Timestamp,Gyro_x_x,Gyro_y_x,Gyro_z_x,Acc_x_x,Acc_y_x,Acc_z_x,Gyro_x_y,Gyro_y_y,Gyro_z_y,Acc_x_y,Acc_y_y,Acc_z_y,combined_action_num
2024-06-13 20:22:09,-0.03176499158,-0.01221730467,0.1270599663,-0.05027823523,1.503558636,7.867346764,-298.97727272727275,-70.125,-285.4431818181818,-8078.556818181818,-22.568181818181817,1241.0113636363635,3
2024-06-13 20:22:09,-0.5119050741,-0.2797762752,-0.2052507252,-0.05027823523,1.503558636,7.867346764,-329.1034482758621,-100.0,33.55172413793103,-8076.3448275862065,-32.37931034482759,1247.896551724138,3
2024-06-13 20:22:09,-1.108109593,-0.3213151097,-2.537534237,2.643198729,-0.2226607651,8.334216118,-253.0,-57.0,49.5,-8300.5,265.5,1267.0,3
2024-06-13 20:22:09,-1.108109593,-0.3213151097,-2.537534237,2.643198729,-0.2226607651,8.334216118,-198.3053435114504,-75.85496183206106,-263.5572519083969,-8072.442748091603,-27.12977099236641,1423.8625954198474,3
2024-06-13 20:22:09,-2.272418737,-0.1209513173,-2.420248032,2.705447912,-7.864952564,8.171410561,-338.5,-22.0,-130.5,-8194.5,-27.5,1389.5,3
2024-06-13 20:22:09,-0.7024950385,-0.5558874011,-1.095892191,5.516240597,-7.457938194,5.09725523,-162.25,-16.681818181818183,-276.3181818181818,-8317.363636363636,-9.477272727272728,1195.2727272727273,3
2024-06-13 20:22:09,-0.7024950385,-0.5558874011,-1.095892191,5.516240597,-7.457938194,5.09725523,-143.67415730337078,-57.73033707865169,-295.19101123595505,-8073.0,-72.41573033707866,1185.943820224719,3
2024-06-13 20:22:09,-0.8356636763,-0.3396410644,-0.7391469479,7.7284832,-5.655104637,4.503493309,-218.33812949640287,94.07913669064747,-350.66906474820144,-8093.431654676259,-75.568345323741,1201.9352517985612,3
2024-06-13 20:22:09,-0.8356636763,-0.3396410644,-0.7391469479,7.7284832,-5.655104637,4.503493309,-483.1860465116279,60.627906976744185,-330.6511627906977,-8276.46511627907,53.2093023255814,1496.5116279069766,3
2024-06-13 20:22:10,-0.2748893499,0.02076941915,0.1172861308,7.17063427,-5.044582844,6.071695328,-301.91208791208794,66.05494505494505,-207.5054945054945,-8103.593406593406,36.72527472527472,1257.5164835164835,3
2024-06-13 20:22:10,-0.3555235863,0.1270599663,0.5241223574,9.088389397,-4.750096321,2.509123325,-585.4462365591398,299.68279569892474,-114.16666666666669,-8468.623655913978,-42.55913978494624,1317.6881720430108,3
2024-06-13 20:22:10,-0.3555235863,0.1270599663,0.5241223574,9.088389397,-4.750096321,2.509123325,-592.4354838709677,295.9193548387097,-97.5,-8467.548387096775,-189.8709677419355,1468.225806451613,3
2024-06-13 20:22:10,0.3750712574,-0.7855727077,-0.3909537494,6.007051945,-4.970362663,3.265691042,577.2051282051282,-468.3076923076923,-662.5641025641025,-8294.25641025641,-565.025641025641,2013.8461538461536,3
2024-06-13 20:22:10,-1.685988069,-1.44042027,-2.770884752,10.6158905,-4.158728123,4.378994942,1033.7586206896551,-161.816091954023,-704.0,-7889.172413793103,-534.0,2393.862068965517,3
2024-06-13 20:22:10,-1.685988069,-1.44042027,-2.770884752,10.6158905,-4.158728123,4.378994942,795.0,537.3333333333334,-789.9139784946236,-8262.193548387097,-555.8172043010753,2372.010752688172,3
2024-06-13 20:22:10,-1.330464482,0.1026253626,-1.654223084,10.27830791,-3.438073635,3.174711466,623.2470588235294,670.929411764706,-626.3764705882353,-7911.223529411764,-229.14117647058825,2155.8117647058825,3
2024-06-13 20:22:10,-1.330464482,0.1026253626,-1.654223084,9.52173996,-3.292027235,2.006340981,432.27906976744185,1380.953488372093,-664.3720930232558,-7899.860465116279,-425.5813953488372,1547.6046511627908,3
2024-06-13 20:22:10,-0.2223549485,0.4300491214,0.08796459436,9.52173996,-3.292027235,2.006340981,835.5955056179776,1600.2134831460671,-721.4606741573034,-7840.741573033708,-835.438202247191,947.4269662921348,3
2024-06-13 20:22:10,-0.6866125464,0.3005456924,0.7562511563,9.31823349,-2.631227732,2.734178305,908.7111111111112,2059.555555555556,-602.3777777777777,-8143.933333333333,-1190.7555555555557,101.73333333333332,3
2024-06-13 20:22:11,-0.6866125464,0.3005456924,0.7562511563,9.31823349,-2.631227732,2.734178305,933.0833333333334,2389.861111111112,-630.3888888888889,-8702.0,-1318.0833333333333,-765.9166666666666,3
2024-06-13 20:22:11,1.544267297,-0.06108652428,0.7574729323,9.126696587,-2.56897831,4.106055737,1004.75,2283.75,-631.5,-8502.0,-1209.75,-734.25,3
2024-06-13 20:22:11,1.185078621,-0.1282816976,0.2626720667,8.82263279,-2.152387381,3.402160645,-131.6986301369863,1939.6712328767123,-968.4657534246576,-7562.424657534247,-1625.6712328767123,-1266.5616438356165,3
2024-06-13 20:22:11,1.185078621,-0.1282816976,0.2626720667,8.82263279,-2.152387381,3.402160645,-823.4545454545455,1791.8068181818182,-1271.2386363636365,-7461.647727272727,-1606.1022727272727,-1715.9431818181818,3
2024-06-13 20:22:11,0.3005456924,0.003665191587,-0.06230825558,9.030928612,-2.085349798,3.224989653,-1082.1946308724832,1778.1342281879197,-1247.5637583892617,-7469.96644295302,-1891.4496644295305,-2088.718120805369,3
2024-06-13 20:22:11,0.3005456924,0.003665191587,-0.06230825558,9.528923035,-2.444479942,2.894589901,-1009.9333333333334,1370.2,-350.66666666666663,-7468.266666666666,-1729.0,-2585.333333333333,3
2024-06-13 20:22:11,-0.1050688252,0.05131268129,0.1747074574,9.528923035,-2.444479942,2.894589901,-1020.1264367816092,835.5057471264367,-472.5747126436781,-7745.252873563219,-1501.5402298850574,-2604.264367816092,3
2024-06-13 20:22:11,0.0232128799,-0.06841690838,0.3249803185,9.299078941,-2.365471363,2.978386879,-1576.6813186813188,288.6043956043956,-745.945054945055,-7212.362637362637,-1743.7142857142858,-2381.923076923077,3
2024-06-13 20:22:11,0.0232128799,-0.06841690838,0.3249803185,9.299078941,-2.365471363,2.978386879,-1593.5176470588235,229.6117647058824,-490.6941176470588,-7461.447058823529,-1800.152941176471,-2026.129411764706,3
2024-06-13 20:22:11,-0.2272418737,-0.05986479297,-0.05131268129,9.241618156,-2.523488522,3.303998232,-1535.9032258064517,449.0,-466.8064516129032,-7346.784946236559,-1521.1935483870968,-2286.3548387096776,3
2024-06-13 20:22:12,-0.3640756905,0.007330383174,-0.3787364662,9.3685112,-2.602497339,3.435679436,-1777.8202247191011,919.38202247191,-159.31460674157304,-7349.022471910112,-1859.76404494382,-2723.696629213483,3
2024-06-13 20:22:12,-0.3640756905,0.007330383174,-0.3787364662,9.3685112,-2.602497339,3.435679436,-846.7386363636364,-192.375,-181.07954545454544,-7404.954545454545,-1640.4545454545455,-2863.329545454545,3
2024-06-13 20:22:12,-0.3335324228,0.03787364438,-0.3909537494,9.375694275,-2.803610086,3.062183857,-795.7821229050279,-554.754189944134,-220.7709497206704,-7309.631284916201,-1239.4581005586592,-2388.31843575419,3
2024-06-13 20:22:12,-0.3335324228,0.03787364438,-0.3909537494,9.337387085,-2.999934673,2.999934673,-819.245810055866,-427.3798882681565,16.10055865921788,-7318.569832402235,-1313.2011173184358,-2307.8715083798884,3
2024-06-13 20:22:12,-0.2785545588,-0.00122173049,-0.1979203373,9.337387085,-2.999934673,2.999934673,-686.375,-173.1875,-367.0625,-7331.875,-1276.8125,-2597.9375,3
2024-06-13 20:22:12,0.07696902007,-0.06475171447,0.1343903542,9.373299599,-2.643198729,3.007117271,-100.02298850574712,-336.5632183908046,172.20689655172413,-7417.816091954023,-907.8735632183908,-2009.8045977011493,3
2024-06-13 20:22:12,0.07696902007,-0.06475171447,0.1343903542,9.373299599,-2.643198729,3.007117271,-52.920529801324506,-370.6887417218543,259.65562913907286,-7448.675496688742,-1048.317880794702,-1979.82119205298,3
2024-06-13 20:22:12,0.2211332172,-0.06719517708,0.2211332172,9.409213066,-2.537853718,3.059789658,-17.158940397350996,-380.6225165562914,504.6887417218543,-7652.649006622517,-791.364238410596,-1949.35761589404,3
2024-06-13 20:22:12,0.1881465018,-0.02809980139,0.1905899495,9.370905876,-2.621650934,2.966415882,325.60526315789474,-261.4736842105263,68.84210526315789,-7725.881578947368,-1460.2894736842106,-2540.4473684210525,3
2024-06-13 20:22:12,0.1881465018,-0.02809980139,0.1905899495,9.370905876,-2.621650934,2.966415882,432.0674157303371,-343.17977528089887,-10.80898876404494,-7559.921348314607,-1072.561797752809,-2176.247191011236,3
2024-06-13 20:22:13,0.09773843735,-0.02687807009,-0.02565634064,9.385271072,-2.604891539,2.817975283,310.97777777777776,-522.1111111111111,259.68888888888887,-7618.2444444444445,-778.2666666666667,-1555.3333333333333,3
2024-06-13 20:22:13,0.09773843735,-0.02687807009,-0.02565634064,9.493009567,-2.56897831,2.664746523,-534.661971830986,-167.52816901408448,-257.0633802816901,-7489.30985915493,-1109.5915492957747,-2125.9084507042253,3
2024-06-13 20:22:13,-0.2309070677,0.01954768784,-0.02443460934,9.493009567,-2.56897831,2.664746523,-215.0,142.91666666666666,-108.25,-7795.75,-1855.6666666666667,-2378.4166666666665,3
2024-06-13 20:22:13,-0.1038470939,-0.06963863969,-0.1600466967,9.533711433,-2.616862535,2.834734917,595.0454545454545,-409.8181818181818,-343.0,-7395.818181818182,-1182.0454545454545,-1813.0,3
2024-06-13 20:22:13,-0.1038470939,-0.06963863969,-0.1600466967,9.533711433,-2.616862535,2.834734917,67.8,71.8,244.4,-7772.4,-955.4,-1561.0,3
2024-06-13 20:22:13,0.3579670191,-0.09529497474,-0.3396410644,9.911994934,-2.758120298,3.497928619,-24.909090909090907,-22.02272727272728,-231.8636363636364,-7757.159090909091,-1871.409090909091,-2296.068181818182,3
2024-06-13 20:22:13,-0.3799581826,0.338419348,0.1857030392,8.719682693,-2.171540976,2.284068346,263.3777777777778,93.24444444444444,94.37777777777778,-7594.444444444444,-1660.7777777777778,-1950.022222222222,3
2024-06-13 20:22:13,-0.3799581826,0.338419348,0.1857030392,8.719682693,-2.171540976,2.284068346,-290.6588235294118,-67.83529411764707,383.5529411764706,-7633.858823529412,-1125.2117647058824,-1421.3647058823528,3
2024-06-13 20:22:13,0.5009095073,0.05497787148,0.006108652335,9.327810287,-2.171540976,3.27287364,-304.70786516853934,125.51685393258428,27.415730337078685,-7633.730337078651,-1299.4606741573034,-1928.887640449438,3
2024-06-13 20:22:13,0.5009095073,0.006108652335,0.2504547536,8.987833023,-2.375048161,3.303998232,-251.1555555555556,465.1777777777778,-246.88888888888889,-7718.911111111111,-1486.088888888889,-2423.5333333333333,3
2024-06-13 20:22:14,0.5009095073,0.006108652335,0.2504547536,8.987833023,-2.375048161,3.303998232,-62.88202247191012,219.7696629213483,39.14044943820225,-7730.348314606742,-1465.376404494382,-2043.612359550562,3
2024-06-13 20:22:14,0.2089159191,0.06352998316,0.1954768747,9.59835434,-2.066195965,2.717418909,-224.3152173913044,280.0869565217391,-96.22826086956522,-7723.576086956522,-1327.7717391304348,-2114.3695652173915,3
2024-06-13 20:22:14,0.2089159191,0.06352998316,0.1954768747,9.59835434,-2.066195965,2.717418909,-307.5,171.04761904761904,-541.6904761904761,-7339.761904761905,-1594.9761904761904,-2371.5714285714284,3
2024-06-13 20:22:14,-0.2235766798,0.06108652428,0.5363397002,9.172186852,-2.133233786,3.244143248,-67.96478873239437,260.9647887323944,-100.8943661971831,-7379.866197183099,-1192.901408450704,-2360.274647887324,3
2024-06-13 20:22:14,-0.393397212,-0.0354301855,-0.2883284092,9.153033257,-2.128445387,3.699041605,32.739436619718305,60.260563380281695,-98.78169014084509,-7617.19014084507,-1330.9295774647887,-2125.7676056338028,3
2024-06-13 20:22:14,-0.393397212,-0.0354301855,-0.2883284092,9.153033257,-2.128445387,3.699041605,-581.6046511627907,-203.40697674418604,-161.15116279069767,-7492.5,-1319.7325581395348,-2180.0116279069766,3
2024-06-13 20:22:14,-0.287106663,-0.1246165112,-0.8002334833,9.378087997,-2.449268341,3.361459255,-471.7627118644068,585.9661016949152,-215.2542372881356,-7386.779661016949,-1441.271186440678,-2260.71186440678,3
2024-06-13 20:22:14,-0.287106663,-0.1246165112,-0.8002334833,9.519346237,-2.918531895,3.114856482,-331.6497175141243,537.3785310734463,20.33898305084745,-7404.293785310734,-1429.9717514124293,-2247.7175141242938,3
2024-06-13 20:22:14,-0.4312708676,-0.1026253626,-0.5791002512,9.519346237,-2.918531895,3.114856482,-309.71232876712327,-384.986301369863,437.7534246575343,-7605.86301369863,-990.6986301369864,-2102.232876712329,3
2024-06-13 20:22:14,0.07941248268,-0.01588249579,0.1368338168,9.564835548,-2.722207308,3.742137194,-566.0,-108.71428571428572,43.42857142857143,-7506.142857142857,-1243.0,-2336.8571428571427,3
2024-06-13 20:22:15,0.07941248268,-0.01588249579,0.1368338168,9.564835548,-2.722207308,3.742137194,40.43181818181819,354.0681818181818,-29.78409090909093,-7673.181818181818,-1235.3636363636365,-2346.8977272727275,3
2024-06-13 20:22:15,0.4141666293,0.2040289938,0.814894259,9.519346237,-2.351106167,3.402160645,46.355555555555554,-202.48888888888888,-4.355555555555554,-7567.066666666667,-938.3111111111112,-1732.3111111111111,3
2024-06-13 20:22:15,0.3396410644,0.1820378453,0.7293730974,9.246406555,-2.185906172,2.904166698,6.909090909090909,-546.4545454545455,-542.6363636363636,-7577.772727272727,-1466.409090909091,-2060.181818181818,3
2024-06-13 20:22:15,0.3396410644,0.1820378453,0.7293730974,9.246406555,-2.185906172,2.904166698,177.0,-597.3636363636364,41.79545454545455,-7736.647727272727,-1544.5795454545455,-2027.272727272728,3
2024-06-13 20:22:15,-0.01343903504,-0.01466076635,0.2724458873,8.930372238,-2.11647439,2.710236311,200.3333333333333,-569.8444444444444,276.9555555555555,-8054.733333333334,-1045.2,-1268.8222222222223,3
2024-06-13 20:22:15,0.2541199327,-0.2809980214,-0.5681046844,9.069235802,-1.482010841,3.19625926,-118.5483870967742,-701.9677419354839,129.06451612903226,-7796.548387096775,-1118.516129032258,-1395.7096774193549,3
2024-06-13 20:22:15,0.2541199327,-0.2809980214,-0.5681046844,9.069235802,-1.482010841,3.19625926,-182.53488372093025,-36.48837209302326,-708.5930232558139,-7601.6511627906975,-1642.1511627906978,-1518.860465116279,3
2024-06-13 20:22:15,-0.02809980139,-0.1844813079,-0.8002334833,9.476250648,-2.384624958,3.471592426,57.54651162790698,173.0581395348837,-60.54651162790698,-8017.860465116279,-1327.9651162790697,-1374.0116279069766,3
2024-06-13 20:22:15,-0.02809980139,-0.1844813079,-0.8002334833,9.476250648,-2.384624958,3.471592426,-201.8181818181818,-522.7272727272727,202.45454545454544,-7712.545454545455,-1225.0,-1197.8181818181818,3
2024-06-13 20:22:15,-0.5766568184,0.04276056588,-0.2541199327,9.495404243,-3.363853455,2.947262287,-22.33707865168537,296.5280898876405,-460.7752808988764,-7631.101123595506,-1442.5168539325844,-1508.8314606741574,3
2024-06-13 20:22:16,-0.05619960278,-0.01221730467,0.1246165112,9.411606789,-2.410961151,3.303998232,247.3676470588236,577.25,-107.19852941176472,-7611.323529411765,-1339.8529411764705,-1480.9632352941176,3
2024-06-13 20:22:16,-0.05619960278,-0.01221730467,0.1246165112,9.411606789,-2.410961151,3.303998232,101.76744186046513,-1014.1744186046512,730.6744186046511,-7958.430232558139,-1126.093023255814,-1150.4418604651162,3
2024-06-13 20:22:16,0.1722639948,0.0293215327,0.4495968223,9.414001465,-2.190694571,3.239354849,285.45454545454544,253.45454545454544,-483.09090909090907,-7644.090909090909,-1457.7272727272727,-1551.090909090909,3
2024-06-13 20:22:16,-0.6365215778,0.05742133409,0.4422664344,9.11233139,-2.233790159,3.536235809,578.6304347826087,-112.77173913043478,-86.70652173913044,-7998.597826086957,-1497.2282608695652,-1540.163043478261,3
2024-06-13 20:22:16,-0.6365215778,0.05742133409,0.4422664344,9.11233139,-2.233790159,3.536235809,320.77777777777777,-825.7777777777778,17.666666666666664,-7936.0,-1100.5555555555557,-796.4444444444445,3
2024-06-13 20:22:16,-5.000543118,-0.2003637999,2.397035122,8.173804283,-8.434772491,1.288080573,71.33333333333333,-149.0,-491.6666666666667,-7589.333333333333,-1565.6666666666667,-1010.3333333333334,3
2024-06-13 20:22:16,-5.000543118,-0.2003637999,2.397035122,8.173804283,-8.434772491,1.288080573,249.29032258064515,675.1720430107528,-538.2688172043011,-7935.05376344086,-1806.8279569892472,-1412.720430107527,3
2024-06-13 20:22:16,0.5986479521,-2.756223917,2.647490025,4.57531929,-8.394071579,-4.338293552,260.7674418604651,-268.1627906976744,-110.04651162790697,-8057.162790697675,-1481.7209302325582,-1189.2093023255811,3
2024-06-13 20:22:16,0.9749409556,-2.414139509,0.7452555895,4.254496574,-7.376535416,-1.340752959,183.9659090909091,-1072.1818181818182,456.3863636363636,-7286.056818181818,-1337.5113636363635,-665.4772727272727,3
2024-06-13 20:22:16,0.9749409556,-2.414139509,0.7452555895,4.254496574,-7.376535416,-1.340752959,235.20689655172413,797.5172413793103,-132.73563218390805,-8205.425287356322,-1788.9770114942528,-1222.425287356322,3
2024-06-13 20:22:17,0.2675589919,0.5766568184,0.5436700583,1.568202138,-8.453926086,1.580173135,1536.428571428571,-1302.021978021978,1158.5494505494505,-8219.945054945056,-964.1648351648352,-778.9230769230769,3
2024-06-13 20:22:17,6.164852142,-0.05864306539,-2.263866663,-0.5746083856,-7.297526836,0.7661445141,1879.386363636364,-1835.2045454545453,1194.8181818181818,-7682.022727272727,-1056.9545454545455,-489.3181818181818,3
2024-06-13 20:22:17,6.164852142,-0.05864306539,-2.263866663,-0.5746083856,-7.297526836,0.7661445141,1857.6470588235293,-1882.9411764705883,178.35294117647058,-8120.058823529412,-1633.1176470588234,309.2352941176471,3
2024-06-13 20:22:17,-2.316401005,-3.204599142,-3.766595125,9.756371498,-1.285686255,3.615244627,1690.0,-1536.421052631579,80.05263157894737,-8051.263157894737,-1511.421052631579,288.8421052631579,3
2024-06-13 20:22:17,-2.316401005,-3.204599142,-3.766595125,9.756371498,-1.285686255,3.615244627,2039.152941176471,-1154.8235294117646,621.2470588235294,-8073.788235294118,-1728.894117647059,718.0823529411765,3
2024-06-13 20:22:17,-0.676838696,0.08185594529,-2.651155233,9.983820915,-3.289633036,5.5042696,3246.6363636363635,-720.5454545454545,1316.6818181818182,-8274.09090909091,-1365.7272727272727,726.1818181818182,3
2024-06-13 20:22:17,-0.7538077235,-0.06597344577,-0.6707300544,9.512163162,-3.162740469,1.673547029,3535.125,-317.125,1430.7083333333333,-8256.333333333334,-746.6666666666667,739.3333333333334,3
2024-06-13 20:22:17,-0.7538077235,-0.06597344577,-0.6707300544,9.512163162,-3.162740469,1.673547029,2005.6206896551728,776.4022988505747,1315.1724137931035,-7998.862068965517,-13.965517241379317,-2.367816091954012,3
2024-06-13 20:22:17,-1.345125318,0.2186897546,0.6646214128,9.785101891,-2.037465572,2.999934673,-435.8764044943821,395.5505617977528,24.292134831460658,-8773.41573033708,16.02247191011236,546.4831460674158,3
2024-06-13 20:22:17,-0.3090978265,0.2944370508,1.698205352,9.58638382,-2.691082716,3.411737442,-1485.5890410958905,-432.9931506849315,-55.53424657534248,-8093.493150684932,-39.34246575342465,586.3150684931506,3
2024-06-13 20:22:18,-0.3090978265,0.2944370508,1.698205352,9.58638382,-2.691082716,3.411737442,-86.90361445783132,-59.93975903614458,627.9759036144578,-7925.469879518072,335.0120481927711,994.6987951807228,3
2024-06-13 20:22:18,0.2431243658,-0.008552113548,0.5180137157,8.827422142,-2.04704237,3.354276657,-286.6428571428571,366.54761904761904,-291.42857142857144,-8336.42857142857,217.0952380952381,831.4761904761905,3
2024-06-13 20:22:18,0.2431243658,-0.008552113548,0.5180137157,8.827422142,-2.04704237,3.354276657,-1060.3333333333333,-351.6111111111111,-501.1111111111111,-8155.222222222223,-101.05555555555556,739.3888888888889,3
2024-06-13 20:22:18,0.3555235863,-0.4019493461,-0.8100073338,9.607931137,-2.477998734,4.062960148,-1516.9887640449438,-631.561797752809,-248.5730337078652,-8191.595505617977,-1.1011235955056122,1030.2359550561798,3
2024-06-13 20:22:18,0.864985168,-0.5522221923,-1.205847979,9.402029991,-2.384624958,3.995922565,-2010.7386363636365,-629.6590909090909,188.125,-8284.477272727272,-45.75,1480.8068181818182,3
2024-06-13 20:22:18,0.864985168,-0.5522221923,-1.205847979,9.402029991,-2.384624958,3.995922565,-2313.058139534884,-383.7441860465116,-245.02325581395348,-7870.406976744186,-95.73255813953487,1463.3488372093022,3
2024-06-13 20:22:18,1.097113967,-0.1661553532,-0.6267477274,9.157821655,-2.353500366,4.163516521,-2755.4,485.0,-336.8,-7705.2,-105.8,1621.6,3
2024-06-13 20:22:18,0.5913175344,0.4960225821,0.6719517708,9.569623947,-1.750161409,3.811569214,-2739.095238095238,282.8571428571429,-276.5238095238095,-8429.190476190477,36.42857142857143,1791.809523809524,3
2024-06-13 20:22:18,0.5913175344,0.4960225821,0.6719517708,9.569623947,-1.750161409,3.811569214,-1441.4367816091954,598.3908045977012,195.5862068965517,-7793.597701149425,120.29885057471265,2296.0689655172414,3
2024-06-13 20:22:18,-0.522900641,0.9040805697,1.696983695,9.629479408,-1.611297727,2.463633537,-711.1555555555556,714.6888888888889,333.02222222222224,-7909.822222222222,78.82222222222222,2140.911111111111,3
2024-06-13 20:22:19,-0.522900641,0.9040805697,1.696983695,9.629479408,-1.611297727,2.463633537,517.9883720930233,178.7093023255814,422.4302325581396,-8492.03488372093,350.9651162790698,1693.9883720930231,3
2024-06-13 20:22:19,-0.4899139404,0.4386012554,2.293188095,9.715670586,-3.354276657,3.663128614,1045.360655737705,-227.2622950819672,698.0491803278688,-8362.606557377048,526.4098360655738,1892.426229508197,3
2024-06-13 20:22:19,1.003040791,-0.4166100919,0.5204572082,7.556100368,-2.226607561,3.397372246,985.2513661202186,-450.2131147540984,489.8524590163934,-8294.84699453552,458.103825136612,1888.0546448087432,3
2024-06-13 20:22:19,1.003040791,-0.4166100919,0.5204572082,7.556100368,-2.226607561,3.397372246,740.5170454545455,-343.23295454545456,-220.9375,-8171.039772727273,591.8693181818181,1513.5852272727273,3
2024-06-13 20:22:19,-0.2700024247,-0.9700540304,-1.743409395,9.473855972,-2.382230759,3.497928619,855.8579545454545,-302.89204545454544,-14.6875,-8256.835227272728,624.2556818181819,1490.2897727272727,3
2024-06-13 20:22:19,-0.8112290502,-0.5607742667,-2.028072596,10.73081207,-2.372653961,3.004723072,317.8571428571429,457.7142857142857,-55.42857142857143,-8159.428571428572,457.2380952380952,1324.6190476190477,3
2024-06-13 20:22:19,-0.8112290502,-0.5607742667,-2.028072596,10.73081207,-2.372653961,3.004723072,270.13793103448273,817.3563218390805,-28.58620689655172,-8296.149425287356,471.367816091954,976.1954022988506,3
2024-06-13 20:22:19,-1.16553092,0.0415388383,-0.5473352671,9.643844604,-2.877830505,2.449268341,217.843137254902,612.4901960784314,-326.9477124183006,-8234.862745098038,589.3398692810457,1070.1307189542483,3
2024-06-13 20:22:19,-1.16553092,0.0415388383,-0.5473352671,9.643844604,-2.877830505,2.449268341,652.8390804597701,205.73563218390805,-792.0229885057471,-8180.126436781609,327.2988505747126,847.7471264367816,3
2024-06-13 20:22:19,-0.3017674387,-0.01588249579,0.4227187634,9.421183586,-2.825158119,1.582567334,758.8426966292135,222.9438202247191,-641.0786516853932,-8159.438202247191,296.8988764044944,819.7865168539325,3
2024-06-13 20:22:20,0.6059783101,-0.3139847219,0.7024950385,9.780313492,-3.100491285,2.114080191,320.370786516854,31.764044943820224,-71.47191011235955,-8188.067415730337,275.96629213483146,808.3483146067416,3
2024-06-13 20:22:20,0.6059783101,-0.3139847219,0.7024950385,9.780313492,-3.100491285,2.114080191,-99.44565217391305,44.869565217391305,356.3804347826087,-8292.978260869566,181.34782608695653,779.054347826087,3
2024-06-13 20:22:20,2.695137501,0.0171042271,1.524719596,10.13226128,-2.379836559,2.846705914,455.90697674418607,-149.06976744186048,276.27906976744185,-8199.139534883721,176.02325581395348,721.9069767441861,3
2024-06-13 20:22:20,-0.4031710625,0.3995058835,0.1197295859,9.358934402,-2.93768549,2.564189911,404.13793103448273,-174.27586206896552,366.9655172413793,-8233.068965517241,439.2758620689655,1071.551724137931,3
2024-06-13 20:22:20,-0.4031710625,0.3995058835,0.1197295859,9.358934402,-2.93768549,2.564189911,590.0,-255.06666666666663,26.75555555555553,-8285.08888888889,551.9333333333333,1104.3333333333333,3
2024-06-13 20:22:20,0.9199630618,0.003665191587,0.08796459436,9.59835434,-3.313575268,2.250549555,554.5108695652174,-94.70652173913044,88.02173913043478,-8296.0,581.3913043478261,1081.7608695652175,3
2024-06-13 20:22:20,0.9199630618,0.003665191587,0.08796459436,9.59835434,-3.313575268,2.250549555,307.52173913043475,-112.90217391304348,-174.54347826086956,-8318.565217391304,249.9891304347826,1085.108695652174,3
2024-06-13 20:22:20,-0.8417723179,-0.04886921868,-0.09407325089,9.02374649,-3.430891037,2.015917778,-4.735632183908047,-4.011494252873561,-298.3793103448276,-8307.563218390804,218.5862068965517,1081.7701149425288,3
2024-06-13 20:22:20,0.1905899495,-0.6389650702,-0.8161159754,9.397241592,-3.816357613,4.328716755,-297.59550561797755,170.92134831460675,73.1685393258427,-8271.932584269663,216.04494382022472,953.438202247191,3
2024-06-13 20:22:20,0.1905899495,-0.6389650702,-0.8161159754,9.397241592,-3.816357613,4.328716755,-183.0540540540541,575.0135135135135,-283.2162162162162,-8304.554054054053,153.10135135135135,739.3243243243244,3
2024-06-13 20:22:21,-0.1600466967,-0.007330383174,-0.4850270152,9.354146004,-3.117250681,3.229778051,-331.7027027027027,587.1756756756756,-277.81081081081084,-8303.202702702703,144.31756756756758,731.2162162162163,3
2024-06-13 20:22:21,0.04398229718,0.02809980139,0.908967495,10.42914295,-2.542642117,2.760514498,-235.2325581395349,647.8720930232558,-303.19767441860466,-8306.56976744186,343.1511627906977,585.3488372093024,3
2024-06-13 20:22:21,0.04398229718,0.02809980139,0.908967495,10.42914295,-2.542642117,2.760514498,-753.5054945054945,827.7582417582418,-16.59340659340659,-8138.758241758242,244.35164835164835,556.6483516483516,3
2024-06-13 20:22:21,3.59921813,-0.2663372457,1.99019897,9.282320023,-2.408566952,3.315969467,-1030.8970588235295,514.2058823529412,548.1176470588235,-8150.823529411765,603.9852941176471,533.3529411764706,3
2024-06-13 20:22:21,3.59921813,-0.2663372457,1.99019897,9.282320023,-2.408566952,3.315969467,-645.2954545454545,-29.52272727272725,533.8181818181819,-8147.022727272727,723.0227272727273,599.0454545454545,3
2024-06-13 20:22:21,-8.68283844,1.673770785,-0.7232644558,8.28633213,2.322375536,-3.205836058,-1046.901098901099,-445.38461538461536,-38.582417582417584,-8150.076923076923,468.4065934065934,464.5274725274725,3
2024-06-13 20:22:21,-2.398257017,0.7880161405,-0.161268428,9.004592896,-6.291962147,0.8236053586,-1028.0,-770.8275862068965,19.321839080459768,-8124.241379310345,549.5977011494253,865.3563218390805,3
2024-06-13 20:22:21,-2.398257017,0.7880161405,-0.161268428,9.004592896,-6.291962147,0.8236053586,-1104.5454545454545,-929.181818181818,29.90909090909091,-8202.727272727272,217.0,1416.5454545454545,3
2024-06-13 20:22:21,-0.9688322544,0.3005456924,-0.3982841372,8.566453934,-3.938461781,-1.572990537,-929.8279569892474,-965.0967741935484,-107.25806451612904,-7872.935483870968,349.1720430107527,1722.720430107527,3
2024-06-13 20:22:21,-0.2858849466,0.4593706727,-0.2370157093,10.31182671,-4.067748547,-1.757344007,-914.2823529411764,-68.23529411764707,-46.02352941176471,-7867.929411764706,544.3529411764706,1838.8117647058823,3
2024-06-13 20:22:22,-0.2858849466,0.4593706727,-0.2370157093,10.31182671,-4.067748547,-1.757344007,-1333.0,1044.4347826086955,-296.3478260869565,-8107.586956521739,501.8913043478261,1391.4565217391305,3
2024-06-13 20:22:22,0.1123992056,-0.161268428,0.1111774743,10.36449909,-3.335123062,-1.508347034,-859.7877094972067,1032.7150837988827,320.33519553072625,-8151.748603351955,422.8659217877095,971.7597765363128,3
2024-06-13 20:22:22,0.1123992056,-0.161268428,0.1111774743,10.36449909,-3.335123062,-1.508347034,-693.8659217877096,1086.3463687150838,345.4748603351956,-8257.893854748603,412.8100558659218,1028.7430167597763,3
2024-06-13 20:22:22,-0.4911356568,-0.3652974069,0.3616322279,9.380482674,-2.93768549,-1.699883223,337.35,163.8,-84.10000000000002,-7878.15,1023.85,1021.8,3
2024-06-13 20:22:22,0.0354301855,-0.8356636763,0.6377432942,9.119514465,-3.612850428,-3.282450438,-344.3690476190476,649.0833333333334,-374.6190476190476,-8007.988095238095,744.1785714285714,876.25,3
2024-06-13 20:22:22,0.0354301855,-0.8356636763,0.6377432942,9.119514465,-3.612850428,-3.282450438,-306.89473684210526,393.89473684210526,-565.3157894736842,-8497.105263157895,585.7368421052631,-2.2631578947368425,3
2024-06-13 20:22:22,-1.285260439,0.06597344577,0.1563815027,10.16099167,-3.711012602,-2.906560898,-68.73684210526318,155.73684210526318,-217.2894736842105,-8685.263157894737,315.3421052631579,102.34210526315788,3
2024-06-13 20:22:22,0.03909537569,0.2394591719,-0.196698606,8.4012537,-3.866635799,-2.971204281,236.1428571428572,-466.0,-143.78571428571428,-8180.142857142857,747.1428571428571,1041.642857142857,3
2024-06-13 20:22:22,0.03909537569,0.2394591719,-0.196698606,8.4012537,-3.866635799,-2.971204281,364.3636363636364,39.30681818181818,-578.1590909090909,-8128.443181818182,254.70454545454544,339.5681818181818,3
2024-06-13 20:22:22,0.1551597714,0.5778785348,-0.2309070677,8.458714485,-3.706224203,-2.595314741,658.9078947368421,-415.7368421052632,154.67105263157896,-8494.486842105263,278.7894736842105,599.4342105263158,3
2024-06-13 20:22:23,0.1551597714,0.5778785348,-0.2309070677,8.458714485,-3.706224203,-2.595314741,1011.2307692307692,-526.5384615384615,608.0,-8120.538461538462,287.61538461538464,709.0769230769231,3
2024-06-13 20:22:23,-0.1111774743,0.0354301855,-0.05131268129,10.87925243,-4.728548527,-1.972822189,5.088888888888889,-268.7111111111111,-456.8,-7946.888888888889,849.2,1228.088888888889,3
2024-06-13 20:22:23,1.16553092,0.4605923891,0.03176499158,7.467514992,-4.865017891,-1.498770237,-336.67857142857144,326.25,-845.9642857142858,-8561.142857142857,367.0,424.1785714285714,3
2024-06-13 20:22:23,1.16553092,0.4605923891,0.03176499158,7.467514992,-4.865017891,-1.498770237,941.0869565217392,-1232.5869565217392,767.5,-8075.586956521739,262.0652173913044,1809.5,3
2024-06-13 20:22:23,0.4190535545,0.3017674387,0.1087340117,8.188169479,-3.64158082,-1.666364431,1200.9886363636365,-1189.75,-755.8068181818181,-8031.170454545455,408.1931818181818,1753.965909090909,3
2024-06-13 20:22:23,0.334754169,-0.8319984674,0.3982841372,9.634267807,-4.888959885,-1.345541358,691.0454545454545,-513.6136363636364,-211.77272727272725,-8006.170454545455,567.8522727272727,1776.409090909091,3
2024-06-13 20:22:23,0.334754169,-0.8319984674,0.3982841372,9.634267807,-4.888959885,-1.345541358,702.344262295082,-176.672131147541,827.6065573770492,-8242.04918032787,501.7377049180328,1522.967213114754,3
2024-06-13 20:22:23,3.789808035,-2.189341068,-0.2651155293,10.10113716,-4.718971729,-2.477998734,811.6338797814208,-297.983606557377,726.5136612021859,-8267.185792349726,712.1202185792349,1561.7650273224044,3
2024-06-13 20:22:23,3.789808035,-2.189341068,-0.2651155293,10.10113716,-4.718971729,-2.477998734,-17.177215189873422,-1754.3291139240505,1013.7848101265822,-8194.822784810127,1027.392405063291,1654.26582278481,3
2024-06-13 20:22:23,-1.821600199,-0.9578366876,1.275486588,3.610456228,-5.145139217,-2.952050686,667.3636363636364,-1519.909090909091,959.8181818181818,-7708.545454545455,1413.0,2471.0,3
2024-06-13 20:22:24,-0.1588249654,-1.147204876,-0.3152064681,8.518569946,-5.602431774,-5.889736176,537.0454545454545,-516.3522727272727,869.0340909090909,-7643.761363636364,2336.9772727272725,2488.534090909091,3
2024-06-13 20:22:24,-0.1588249654,-1.147204876,-0.3152064681,8.518569946,-5.602431774,-5.889736176,-57.73255813953489,-588.2906976744187,-464.9767441860465,-7969.53488372093,1832.8953488372088,2764.732558139535,3
2024-06-13 20:22:24,1.386664152,-0.8051204085,0.1111774743,3.912125587,-5.532999992,-4.077325344,248.36111111111111,-45.80555555555556,-624.3055555555555,-8013.388888888889,1627.5555555555557,2535.972222222222,3
2024-06-13 20:22:24,-0.2125810981,-0.5216789246,-0.2003637999,5.195417881,-6.497863293,-5.207388878,457.3888888888889,-90.94444444444444,-481.94444444444446,-7873.111111111111,1591.4444444444443,2510.277777777778,3
2024-06-13 20:22:24,-0.2125810981,-0.5216789246,-0.2003637999,5.195417881,-6.497863293,-5.207388878,422.2441860465116,-738.8720930232558,-730.0232558139535,-8002.837209302325,950.7093023255812,2729.9186046511627,3
2024-06-13 20:22:24,0.196698606,-0.3054326177,-0.4337143302,5.317522049,-7.54891777,-4.86980629,409.04597701149424,-257.5977011494253,-237.22988505747128,-7655.0344827586205,1324.4367816091954,2800.344827586207,3
2024-06-13 20:22:24,0.196698606,-0.3054326177,-0.4337143302,5.317522049,-7.54891777,-4.86980629,-91.58278145695364,63.87417218543047,274.44370860927154,-7875.258278145695,1339.086092715232,3129.8741721854303,3
2024-06-13 20:22:24,0.5473352671,-0.2015855312,-0.232128799,4.620809078,-8.760383606,-5.09725523,-330.65562913907286,72.48344370860927,159.87417218543047,-7689.165562913908,1543.7218543046358,3138.483443708609,3
2024-06-13 20:22:24,1.303586483,-0.1881465018,0.9126327038,3.56496644,-8.494627953,-5.559336185,-976.2747252747253,313.6373626373626,307.9450549450549,-7612.989010989011,1433.241758241758,3135.7912087912086,3
2024-06-13 20:22:24,1.303586483,-0.1881465018,0.9126327038,3.56496644,-8.494627953,-5.559336185,-583.3658536585366,470.1707317073171,-832.8292682926829,-7920.8536585365855,1055.9268292682927,2761.414634146341,3
2024-06-13 20:22:25,-4.001167297,-0.1844813079,1.78494823,2.164358377,-6.931213856,-7.316680431,-135.53932584269663,561.3370786516854,-640.6741573033707,-7847.23595505618,933.8988764044944,2547.988764044944,3
2024-06-13 20:22:25,-0.5888741016,-0.9590584636,-0.05131268129,3.112462282,-3.442862034,-7.582436562,-415.54857142857145,95.06857142857145,106.65142857142855,-7852.965714285714,931.4114285714286,2855.2057142857143,3
2024-06-13 20:22:25,-0.5888741016,-0.9590584636,-0.05131268129,3.112462282,-3.442862034,-7.582436562,-628.4505494505495,31.94505494505494,291.02197802197804,-8025.340659340659,1063.5164835164835,2888.5934065934066,3
2024-06-13 20:22:25,3.073873997,-1.76173532,-0.03420845419,-3.112462282,-7.826645374,-7.189787865,-696.433734939759,198.48192771084337,-76.42168674698794,-7833.819277108434,1369.9518072289156,2514.144578313253,3
2024-06-13 20:22:25,3.073873997,-1.76173532,-0.03420845419,-3.112462282,-7.826645374,-7.189787865,-703.5934065934066,12.2967032967033,-35.098901098901095,-7828.604395604396,1338.4615384615386,2481.912087912088,3
2024-06-13 20:22:25,3.833790302,-1.297477722,1.904677868,-3.632004023,-11.06599998,-0.6751648784,-485.4090909090909,72.69318181818181,-70.98863636363636,-7829.534090909091,1338.6931818181818,2498.090909090909,3
2024-06-13 20:22:25,2.070833206,-0.2150245607,1.722640038,-4.721365929,-6.399701118,4.635174274,-863.5194805194806,-62.24675324675325,-129.2987012987013,-8007.480519480519,1289.5064935064936,2787.2597402597403,3
2024-06-13 20:22:25,2.070833206,-0.2150245607,1.722640038,-4.721365929,-6.399701118,4.635174274,-1649.7272727272727,47.636363636363626,-287.45454545454544,-7837.272727272727,1045.090909090909,3004.181818181818,3
2024-06-13 20:22:25,0.4911356568,-0.2455678284,0.8955284357,-4.553771496,-4.201824188,5.686229229,-1502.764705882353,-464.8627450980392,-220.7058823529412,-7947.058823529412,831.2549019607843,3155.764705882353,3
2024-06-13 20:22:25,0.7867944241,0.03298672289,0.5241223574,-5.145139217,-2.147598982,6.497863293,-1729.04,-190.6,-224.12,-7624.08,439.64,3354.6,3
2024-06-13 20:22:26,0.7867944241,0.03298672289,0.5241223574,-5.145139217,-2.147598982,6.497863293,-1739.1666666666667,265.27777777777777,312.27777777777777,-7823.555555555556,168.83333333333334,3027.6666666666665,3
2024-06-13 20:22:26,0.1649336219,-0.2712241709,0.1747074574,-6.042964935,-2.11647439,6.766014099,-979.782894736842,20.20394736842105,767.5657894736842,-7845.138157894737,937.2565789473684,3214.157894736842,3
2024-06-13 20:22:26,0.1649336219,-0.2712241709,0.1747074574,-6.042964935,-2.11647439,6.766014099,-939.6513157894736,-93.61184210526316,687.3026315789474,-7961.585526315789,939.2302631578948,3261.5263157894738,3
2024-06-13 20:22:26,-0.1087340117,0.2736676335,0.5424483418,-7.235277653,-2.272097349,6.289567947,227.2470588235294,198.6705882352941,-299.2235294117648,-7975.929411764706,560.9176470588235,3301.8,3
2024-06-13 20:22:26,0.2809980214,-0.05375614017,0.6389650702,-6.576871872,-0.4836287498,7.017405033,473.3932584269663,43.83146067415731,-324.7865168539326,-8006.955056179775,735.056179775281,3072.258426966292,3
2024-06-13 20:22:26,0.2809980214,-0.05375614017,0.6389650702,-6.576871872,-0.4836287498,7.017405033,344.27777777777777,-683.8333333333334,697.9444444444445,-7865.333333333333,1344.6666666666667,3516.722222222222,3
2024-06-13 20:22:26,0.1246165112,-0.08796459436,-0.3371976018,-7.134721279,-0.0023942017,6.72531271,-224.27906976744185,-376.3837209302326,-105.20930232558136,-7646.162790697675,1030.7674418604652,3364.406976744186,3
2024-06-13 20:22:26,-0.1576032341,0.1637118906,-0.9908234477,-6.682217121,-0.6631938815,6.282385349,279.7586206896552,-251.7586206896552,-172.48275862068965,-8053.413793103448,526.3793103448276,3015.448275862069,3
2024-06-13 20:22:26,-0.1576032341,0.1637118906,-0.9908234477,-6.682217121,-0.6631938815,6.282385349,1188.8539325842696,-512.5842696629213,-452.0337078651685,-7949.0,463.86516853932585,2990.921348314607,3
2024-06-13 20:22:26,0.4007275999,-0.1539380401,0.7733554244,-7.603984833,-3.672705412,6.088454723,935.5842696629212,-933.2134831460676,-831.3258426966293,-7513.426966292135,1260.2247191011236,4389.662921348315,3
2024-06-13 20:22:27,0.4007275999,-0.1539380401,0.7733554244,-7.603984833,-3.672705412,6.088454723,769.7717391304348,-161.52173913043478,-1001.9021739130436,-7395.184782608696,836.7173913043479,4652.673913043478,3
2024-06-13 20:22:27,-0.08674286306,0.1404990107,-0.6377432942,-6.236895561,1.78368032,6.052541733,740.5632183908046,683.551724137931,-1253.9885057471265,-7222.379310344828,562.816091954023,4525.632183908046,3
2024-06-13 20:22:27,0.04031710699,0.03665191308,-0.6805039048,-7.448361397,-7.077260017,7.299921036,-273.3333333333333,1452.6666666666667,-550.8850574712644,-7750.954022988506,639.264367816092,3792.229885057471,3
2024-06-13 20:22:27,0.04031710699,0.03665191308,-0.6805039048,-7.448361397,-7.077260017,7.299921036,-914.685393258427,1283.2359550561798,-548.4269662921348,-7971.876404494382,427.4606741573034,3140.808988764045,3
2024-06-13 20:22:27,1.282817006,-0.05253441259,1.395216227,-4.896142483,2.142810583,8.779537201,-640.1948051948052,853.7272727272727,-745.8961038961039,-7985.636363636364,-104.72727272727272,2736.948051948052,3
2024-06-13 20:22:27,-2.621833563,3.288898468,-0.3029891551,-2.779668093,1.256955862,4.977545261,-469.4155844155844,712.8181818181818,-480.31168831168833,-8081.090909090909,-63.81818181818182,2779.155844155844,3
2024-06-13 20:22:27,-2.621833563,3.288898468,-0.3029891551,-2.779668093,1.256955862,4.977545261,-336.6551724137931,562.8045977011494,308.7701149425287,-7824.091954022989,1252.5632183908046,2570.816091954023,3
2024-06-13 20:22:27,-0.4972442985,-0.5412266254,-3.26202035,-4.601655483,-1.891419291,0.457292527,-723.8,-567.4666666666667,312.44444444444446,-8092.377777777778,451.5111111111111,2993.911111111111,3
2024-06-13 20:22:27,-0.4972442985,-0.5412266254,-3.26202035,-4.601655483,-1.891419291,0.457292527,855.3416149068323,-600.3416149068323,-341.2608695652174,-7571.975155279503,774.3788819875776,3632.6024844720496,3
2024-06-13 20:22:27,-1.565036774,0.4544837475,-6.257703781,3.313575268,-13.25669479,1.685518026,782.7380952380952,414.9166666666667,33.73809523809524,-7848.214285714285,996.5,2992.5,3
2024-06-13 20:22:28,-4.367686272,2.884505749,-2.71835041,7.153874874,-14.21676922,-4.328716755,97.57142857142856,560.0,-535.0,-8048.428571428572,710.4285714285714,3143.5714285714284,3
2024-06-13 20:22:28,-4.367686272,2.884505749,-2.71835041,7.153874874,-14.21676922,-4.328716755,1.6923076923076934,487.1428571428572,-468.912087912088,-7827.2307692307695,417.75824175824175,2795.8901098901097,3
2024-06-13 20:22:28,-1.811826348,1.505172014,0.7916813493,2.940079689,-9.387664795,-7.484274387,-252.15384615384613,472.8571428571428,-239.24175824175825,-7842.615384615385,411.1648351648352,2883.802197802198,3
2024-06-13 20:22:28,0.9700540304,-1.849699974,0.5974262357,3.833117008,-4.774038315,-11.38921738,-803.1125,423.1125,51.0625,-7954.8125,595.7625,2901.4625,3
2024-06-13 20:22:28,0.9700540304,-1.849699974,0.5974262357,3.833117008,-4.774038315,-11.38921738,-1072.7333333333331,813.3333333333334,-256.06666666666666,-7886.266666666666,320.8666666666667,2462.6,3
2024-06-13 20:22:28,6.631553173,-3.792251348,1.6224581,-3.08373189,-13.66370869,-2.961627483,-715.090909090909,200.32954545454547,-155.4318181818182,-8233.011363636364,260.17045454545456,2643.7272727272725,3
2024-06-13 20:22:28,6.631553173,-3.792251348,1.6224581,-3.08373189,-13.66370869,-2.961627483,-436.13186813186815,-21.021978021978043,114.28571428571428,-7945.945054945055,363.4065934065934,2644.670329670329,3
2024-06-13 20:22:28,3.530801058,-0.8234463334,3.655417681,-1.216254473,-11.53765774,2.839523315,-247.29032258064515,118.48387096774194,368.8387096774193,-7901.451612903225,571.1290322580645,2455.1612903225805,3
2024-06-13 20:22:28,-0.1869247705,-0.6389650702,0.7428121567,0.2681505978,-3.222595453,4.934449673,354.15,-58.425,-37.8,-7877.45,527.025,2456.25,3
2024-06-13 20:22:28,-0.1869247705,-0.6389650702,0.7428121567,0.2681505978,-3.222595453,4.934449673,250.53932584269663,58.57303370786517,-34.58426966292134,-7887.67415730337,695.7078651685393,2505.4269662921347,3
2024-06-13 20:22:29,0.4813618064,0.3738495409,0.684169054,-1.244984865,-3.490746021,7.84340477,103.05434782608695,289.05434782608694,-92.33695652173913,-7896.945652173913,426.3043478260869,2616.913043478261,3
2024-06-13 20:22:29,0.4214970171,0.5412266254,2.031737804,-6.983886242,-3.028665066,7.963114738,-77.62237762237763,310.8111888111888,62.65734265734266,-7920.776223776224,415.0,2574.7062937062938,3
2024-06-13 20:22:29,0.4214970171,0.5412266254,2.031737804,-6.983886242,-3.028665066,7.963114738,-287.4125874125874,315.7062937062937,75.24475524475524,-7922.874125874126,415.0,2571.2097902097903,3
2024-06-13 20:22:29,-0.5057964325,0.1649336219,-0.8698720932,-5.482721806,-2.183511972,8.748413086,-215.35294117647047,-62.25882352941176,97.45882352941176,-8009.329411764706,588.4588235294118,2277.3529411764707,3
2024-06-13 20:22:29,-0.5057964325,0.1649336219,-0.8698720932,-5.482721806,-2.183511972,8.748413086,-231.57777777777773,62.888888888888886,36.15555555555556,-7969.622222222222,601.0,2532.177777777778,3
2024-06-13 20:22:29,-0.3017674387,-0.109955743,-2.375044107,-6.308721542,-8.037335396,6.43082571,-221.33112582781456,98.55629139072848,33.556291390728475,-7922.443708609271,593.0264900662252,2609.1854304635763,3
2024-06-13 20:22:29,0.9407324791,-0.1172861308,2.715906858,-5.307945251,-2.37744236,8.051700592,-156.5483870967742,45.70967741935484,44.516129032258064,-7898.967741935484,576.5806451612904,2481.322580645161,3
2024-06-13 20:22:29,0.9407324791,-0.1172861308,2.715906858,-5.307945251,-2.37744236,8.051700592,-292.56470588235294,36.61176470588235,-98.03529411764706,-7884.247058823529,589.3764705882353,2489.058823529412,3
2024-06-13 20:22:29,-1.615127683,0.3359758854,-2.893057823,-5.571307182,2.655169725,7.553706169,-300.1034482758621,356.48275862068965,-84.0,-7919.448275862069,431.0344827586207,2628.206896551724,3
2024-06-13 20:22:29,-0.2296853364,-0.2541199327,1.846034765,-4.699818134,-7.580042362,4.544194698,-177.26966292134833,-39.640449438202246,111.29213483146069,-8197.707865168539,400.5280898876405,2596.7640449438204,3
2024-06-13 20:22:30,-0.2296853364,-0.2541199327,1.846034765,-4.699818134,-7.580042362,4.544194698,-158.48863636363637,-42.60227272727273,-115.95454545454544,-7909.534090909091,431.5113636363636,2593.534090909091,3
2024-06-13 20:22:30,-0.3787364662,0.3090978265,0.4080579877,-6.7636199,0.2657563984,9.943120003,-230.4318181818182,275.79545454545456,111.61363636363636,-7917.840909090909,460.84090909090907,2573.9772727272725,3
2024-06-13 20:22:30,-0.3787364662,0.3090978265,0.4080579877,-6.7636199,0.2657563984,9.943120003,-515.0,322.25,60.25,-7914.5,431.25,2355.75,3
2024-06-13 20:22:30,-0.1282816976,0.814894259,0.3762930036,-6.888118267,-2.138022184,6.689399719,-446.68131868131866,349.1758241758242,29.0,-8155.945054945055,551.4175824175825,2229.846153846154,3
2024-06-13 20:22:30,-4.988325596,1.946216702,1.437976837,-6.576871872,-2.159569979,3.131615877,-417.13953488372096,0.4767441860465169,22.72093023255814,-8228.82558139535,246.56976744186045,2393.8837209302324,3
2024-06-13 20:22:30,-4.988325596,1.946216702,1.437976837,-6.576871872,-2.159569979,3.131615877,-212.62790697674416,-342.8837209302326,213.1627906976744,-8203.790697674418,400.9302325581396,2570.8372093023254,3
2024-06-13 20:22:30,-1.115439892,0.7000515461,-1.089783549,-5.932831764,-0.825999558,1.185129881,-285.20454545454544,-213.6590909090909,166.04545454545456,-7884.113636363636,820.5227272727273,2628.3636363636365,3
2024-06-13 20:22:30,-2.872288465,2.092824221,-1.479515672,-12.95502567,-7.505822182,-3.090914488,-319.02013422818794,-252.98657718120805,-91.94630872483222,-7856.234899328859,698.1744966442953,2455.489932885906,3
2024-06-13 20:22:30,-2.872288465,2.092824221,-1.479515672,-12.95502567,-7.505822182,-3.090914488,-231.1006711409396,-44.93288590604027,-259.7315436241611,-7897.174496644296,802.8724832214765,2449.44966442953,3
2024-06-13 20:22:30,1.670105577,0.7696902156,0.7965682745,-4.661510944,-2.549824715,-6.823474884,-545.6590909090909,-33.81818181818181,-315.625,-7837.454545454545,434.45454545454544,2530.6136363636365,3
2024-06-13 20:22:31,1.670105577,0.7696902156,0.7965682745,-4.661510944,-2.549824715,-6.823474884,-760.2093023255813,339.6046511627907,86.27906976744185,-7880.930232558139,602.6976744186047,2561.279069767442,3
2024-06-13 20:22:31,2.717128515,0.7330383062,-1.776396155,-2.758120298,-3.502717018,-6.330269337,-786.9933774834437,190.42384105960264,-9.324503311258283,-8044.980132450331,537.0198675496689,2632.9403973509934,3
2024-06-13 20:22:31,0.9468411207,0.4557054639,-2.438574076,-4.134786129,-10.13226128,-5.887341976,-630.3103448275862,-17.551724137931036,-189.3793103448276,-8051.6551724137935,404.1379310344828,2540.0344827586205,3
2024-06-13 20:22:31,0.9468411207,0.4557054639,-2.438574076,-4.134786129,-10.13226128,-5.887341976,-146.9418604651163,79.81395348837209,-354.06976744186045,-8190.383720930233,522.2558139534883,2646.220930232558,3
2024-06-13 20:22:31,1.295034289,-1.521054506,-0.9505063295,-2.284068346,-11.03726959,-2.540247917,-585.4367816091954,-163.42528735632183,-367.91954022988506,-7892.586206896552,-37.70114942528736,2815.5172413793102,3
2024-06-13 20:22:31,2.537534237,-1.161865711,0.2406809032,-1.616086125,-12.28225517,-1.757344007,-489.0112359550562,-254.8876404494382,-146.2134831460674,-7870.247191011236,-36.89887640449438,3107.078651685393,3
2024-06-13 20:22:31,2.537534237,-1.161865711,0.2406809032,-1.616086125,-12.28225517,-1.757344007,-644.4556962025316,286.0632911392405,-261.9113924050633,-7966.670886075949,305.5949367088608,2776.8481012658226,3
2024-06-13 20:22:31,1.588249683,-0.07574728876,1.034805775,-1.716642618,-9.026140213,2.597708941,-671.8045977011494,215.9655172413793,464.65517241379314,-8092.459770114942,91.73563218390804,2649.816091954023,3
2024-06-13 20:22:31,1.588249683,-0.07574728876,1.034805775,-1.716642618,-9.026140213,2.597708941,273.0444444444445,102.68888888888888,-320.7333333333333,-8161.422222222222,-107.53333333333332,2327.822222222222,3
2024-06-13 20:22:31,1.731192112,0.03298672289,0.4349360466,-2.726995707,-7.785943985,5.219359875,1279.5555555555557,-844.7222222222222,654.7777777777778,-8460.833333333334,-297.05555555555554,2379.111111111112,3
2024-06-13 20:22:32,-0.334754169,0.632856369,0.1514945775,-3.620033026,-8.317456245,5.408501625,2255.438202247191,-2276.314606741573,1588.6516853932585,-7931.146067415731,799.8539325842696,3112.38202247191,3
2024-06-13 20:22:32,-0.334754169,0.632856369,0.1514945775,-3.620033026,-8.317456245,5.408501625,813.5977011494252,-1132.9195402298851,1631.3103448275865,-7144.091954022989,1978.471264367816,3806.5172413793102,3
2024-06-13 20:22:32,0.2419026345,0.4031710625,0.2590068579,-3.857059002,-6.349422932,4.534617901,-1124.8279569892472,306.7849462365592,770.8709677419355,-7372.129032258064,1867.268817204301,3889.505376344086,3
2024-06-13 20:22:32,-0.3787364662,0.6450737119,-0.4276056588,-1.960851192,-9.251194954,4.49870491,-1189.3164556962026,400.63291139240505,-48.30379746835443,-7778.898734177215,1370.6455696202531,3477.0506329113923,3
2024-06-13 20:22:32,-0.3787364662,0.6450737119,-0.4276056588,-1.960851192,-9.251194954,4.49870491,601.3720930232558,-186.8372093023256,-149.0,-7967.697674418605,1041.6279069767445,3351.4186046511627,3
2024-06-13 20:22:32,0.4740314186,0.3591887653,-0.5974262357,-6.313509941,-7.414842606,4.340687752,1115.2934782608695,-832.3586956521739,41.60869565217392,-7563.326086956522,1368.4891304347825,3936.597826086957,3
2024-06-13 20:22:32,0.4740314186,0.3591887653,-0.5974262357,-6.313509941,-7.414842606,4.340687752,191.35,-54.55,59.9,-7132.866666666667,2089.483333333333,4180.533333333334,3
2024-06-13 20:22:32,0.9224064946,0.7134906054,0.1038470939,-2.30801034,-11.22641182,1.685518026,53.01666666666668,77.11666666666667,23.23333333333333,-7150.644444444444,2100.038888888889,4142.755555555556,3
2024-06-13 20:22:32,1.034805775,-0.6524040699,0.3469714522,-3.524264812,-7.340622425,1.630451322,-1160.6268656716418,673.4776119402985,-950.0597014925372,-7693.432835820896,1093.7761194029852,3253.7462686567164,3
2024-06-13 20:22:32,1.034805775,-0.6524040699,0.3469714522,-3.524264812,-7.340622425,1.630451322,74.82022471910113,204.65168539325845,-155.17977528089887,-8139.76404494382,692.3370786516854,3079.6404494382023,3
2024-06-13 20:22:33,-0.4593706727,-0.1429424733,-0.03909537569,-4.079719543,-8.913613319,3.986345768,408.3068181818182,-512.25,501.7272727272728,-7748.215909090909,1194.0454545454545,3778.534090909091,3
2024-06-13 20:22:33,-0.08307767659,-0.2211332172,0.1954768747,-3.268085241,-8.468291283,3.27287364,-334.55056179775283,-26.741573033707866,104.16853932584269,-7536.23595505618,1436.8539325842696,3765.14606741573,3
2024-06-13 20:22:33,-0.6157521605,0.1319468915,-0.1783726513,-3.687070608,-8.66940403,3.138798475,473.8837209302326,55.95348837209303,-106.95348837209302,-8279.860465116279,267.37209302325584,2768.395348837209,3
2024-06-13 20:22:33,-0.6157521605,0.1319468915,-0.1783726513,-3.687070608,-8.66940403,3.138798475,1893.225806451613,-798.4516129032259,319.80645161290323,-7899.688172043011,850.5698924731182,3419.0,3
2024-06-13 20:22:33,-0.1197295859,0.09162978828,-0.1441642046,-4.797980309,-9.351752281,2.767697096,1264.6785714285716,-715.2261904761905,208.6547619047619,-7380.952380952381,1968.5357142857144,3878.214285714286,3
2024-06-13 20:22:33,0.9724974632,0.01343903504,0.3946189582,-4.927267075,-9.823410034,3.766079187,-553.3715846994535,430.0218579234973,260.9781420765028,-7453.573770491803,1924.4371584699447,3790.464480874317,3
2024-06-13 20:22:33,0.9724974632,0.01343903504,0.3946189582,-4.927267075,-9.823410034,3.766079187,-1202.0054644808745,638.7650273224044,52.23497267759564,-7383.081967213115,1899.3005464480875,3576.256830601093,3
2024-06-13 20:22:33,1.363451242,-0.07819075137,0.1380555481,-4.127603531,-8.765172005,4.235342979,-1122.1927710843374,1032.9638554216867,-492.3253012048193,-7918.578313253012,634.7831325301205,2713.0481927710844,3
2024-06-13 20:22:33,0.9798278809,-0.1001819,-0.3298672438,-1.347935557,-6.402095318,4.690241337,336.24719101123605,242.74157303370785,88.12359550561803,-8192.876404494382,809.1797752808989,2719.38202247191,3
2024-06-13 20:22:34,0.9798278809,-0.1001819,-0.3298672438,-1.347935557,-6.402095318,4.690241337,997.7,-612.3,700.3333333333334,-7881.2,1520.0666666666666,3522.733333333333,3
2024-06-13 20:22:34,0.2040289938,-0.161268428,-0.0293215327,-1.539471745,-5.923254967,5.430049419,-975.4,715.2666666666667,-216.53333333333333,-7942.066666666667,1160.8,3304.4,3
2024-06-13 20:22:34,0.2040289938,-0.161268428,-0.0293215327,-1.539471745,-5.923254967,5.430049419,-724.4827586206897,465.1724137931034,-733.551724137931,-7953.551724137931,790.3793103448276,2799.793103448276,3
2024-06-13 20:22:34,-0.216246292,-0.4068362415,-0.338419348,-3.040636063,-6.564900875,6.548141479,194.7171052631579,71.89473684210526,104.10526315789474,-8207.756578947368,830.0131578947369,2640.5131578947367,3
2024-06-13 20:22:34,0.004886921961,-0.2247984111,-0.1698205322,-2.664746523,-7.290344238,7.467514992,429.5855263157895,-196.5263157894737,472.5263157894737,-8130.782894736842,926.0657894736842,2786.565789473684,3
2024-06-13 20:22:34,0.004886921961,-0.2247984111,-0.1698205322,-2.664746523,-7.290344238,7.467514992,-501.75,673.3,-440.9375,-7739.4875,1818.8,3263.7,3
2024-06-13 20:22:34,0.02076941915,-0.05986479297,-0.06841690838,-2.810792685,-7.086836815,7.264008045,-942.0444444444444,639.7333333333333,-570.2444444444444,-8013.311111111111,1104.9555555555555,2533.088888888889,3
2024-06-13 20:22:34,0.07819075137,0.1075122803,0.03420845419,-2.602497339,-6.962338448,6.924031258,-312.5869565217391,85.17391304347825,-742.804347826087,-8146.608695652174,535.0869565217391,2129.673913043478,3
2024-06-13 20:22:34,0.07819075137,0.1075122803,0.03420845419,-2.602497339,-6.962338448,6.924031258,1972.4767441860463,-1163.7209302325582,473.8604651162791,-8280.162790697674,662.4651162790698,2764.813953488372,3
2024-06-13 20:22:34,-1.087340117,-0.04642575979,-0.009773843922,-2.027888775,-7.146692276,5.729324818,1852.043956043956,-1308.076923076923,520.8241758241759,-7719.054945054945,1866.8131868131868,3250.2417582417584,3
2024-06-13 20:22:35,-1.087340117,-0.04642575979,-0.009773843922,-2.027888775,-7.146692276,5.729324818,-913.367816091954,183.93103448275863,15.172413793103448,-7774.609195402299,1402.7586206896551,3236.942528735632,3
2024-06-13 20:22:35,-0.4960225821,-0.109955743,-0.1722639948,-2.121262789,-8.166622162,4.795586109,-740.2359550561798,162.7078651685393,-669.9887640449438,-7633.820224719101,996.629213483146,2751.0,3
2024-06-13 20:22:35,-0.2186897546,0.1722639948,0.1392772794,-2.628833532,-8.101978302,5.623979568,861.4545454545455,-311.45454545454544,859.7272727272727,-8102.545454545455,1302.909090909091,2886.181818181818,3
2024-06-13 20:22:35,-0.2186897546,0.1722639948,0.1392772794,-2.628833532,-8.101978302,5.623979568,711.7078651685393,-718.7528089887641,918.4606741573034,-7530.393258426966,1982.2921348314608,3493.94382022472,3
2024-06-13 20:22:35,0.3530801237,-0.008552113548,0.228463605,-2.418143749,-8.659827232,5.099649429,-362.5340909090909,210.32954545454547,361.9545454545455,-7526.022727272727,2285.7272727272725,3583.5,3
2024-06-13 20:22:35,0.7134906054,-0.07574728876,0.471587956,-2.746149302,-7.005434036,6.059724331,-866.6363636363636,492.9090909090909,-155.36363636363637,-7567.818181818182,2062.909090909091,3079.7272727272725,3
2024-06-13 20:22:35,0.7134906054,-0.07574728876,0.471587956,-2.746149302,-7.005434036,6.059724331,-406.3783783783784,459.2702702702703,-199.48648648648648,-7938.324324324324,1346.918918918919,2903.6216216216217,3
2024-06-13 20:22:35,1.359786034,-0.2956587672,0.634078145,-3.076549292,-6.543353081,6.569689274,163.40540540540542,-62.0,277.7027027027027,-7802.0,1812.2162162162165,3064.5135135135133,3
2024-06-13 20:22:35,1.359786034,-0.2956587672,0.634078145,-3.076549292,-6.543353081,6.569689274,16.361445783132524,-347.1084337349397,-66.54216867469879,-7453.542168674699,2831.843373493976,3528.168674698796,3
2024-06-13 20:22:35,1.018923283,-0.1307251602,0.866206944,-4.826710701,-2.420537949,9.054870605,-1534.3046357615897,520.8344370860927,-702.0331125827814,-7391.099337748345,2037.364238410596,3253.3311258278145,3
2024-06-13 20:22:36,-0.1747074574,0.1026253626,-0.2785545588,-2.135627985,-5.018246651,7.469909191,-1272.7152317880796,334.7417218543046,-1119.2516556291391,-7642.754966887417,1726.7682119205297,3125.5165562913908,3
2024-06-13 20:22:36,-0.1747074574,0.1026253626,-0.2785545588,-2.135627985,-5.018246651,7.469909191,784.8666666666667,-494.6,-232.06666666666663,-7801.066666666667,1229.3333333333333,3137.6,3
2024-06-13 20:22:36,0.6890559793,-0.5876523852,-0.2150245607,-4.189853191,-3.378218651,11.11149025,867.5402298850574,-757.2068965517242,215.54022988505747,-7572.057471264367,1897.850574712644,3586.3563218390805,3
2024-06-13 20:22:36,-0.3848451078,0.2761110961,-0.08429940045,-2.695871115,-4.259284973,6.35421133,80.63043478260869,-191.0652173913044,33.72826086956519,-7409.532608695652,2194.695652173913,3626.5760869565215,3
2024-06-13 20:22:36,-0.3848451078,0.2761110961,-0.08429940045,-2.695871115,-4.259284973,6.35421133,-949.6666666666666,484.4047619047619,-797.452380952381,-7618.952380952381,1454.809523809524,3117.1666666666665,3
2024-06-13 20:22:36,1.060462117,-1.097113967,-0.5131267905,-1.996764183,-2.63841033,8.942343712,-227.48314606741576,285.60674157303373,-749.6629213483146,-7844.786516853933,766.5393258426966,2846.887640449438,3
2024-06-13 20:22:36,-1.452637553,0.432492584,-0.8588765264,0.04548983276,-4.031835556,7.278373241,781.5113636363636,-437.3636363636364,746.5568181818182,-7629.159090909091,1579.443181818182,3403.7386363636365,3
2024-06-13 20:22:36,-1.452637553,0.432492584,-0.8588765264,0.04548983276,-4.031835556,7.278373241,-43.25274725274727,-304.34065934065933,158.4065934065934,-7333.450549450549,1982.34065934066,3678.747252747253,3
2024-06-13 20:22:36,-1.518610954,0.1295034289,-1.025031924,-0.2322375625,-3.217807055,4.939238071,-1335.186046511628,254.81395348837208,-653.8023255813954,-7776.279069767442,1170.1976744186047,3322.360465116279,3
2024-06-13 20:22:36,-1.518610954,0.1295034289,-1.025031924,-0.2322375625,-3.217807055,4.939238071,-464.8888888888889,469.6,-773.0444444444445,-8013.911111111111,710.8222222222222,2804.822222222222,3
2024-06-13 20:22:37,-1.649336219,-0.9883799553,-4.151440144,7.115567684,-7.151480675,3.904942989,863.8876404494382,-124.65168539325842,4.629213483146067,-8176.730337078651,943.7752808988764,2983.14606741573,3
2024-06-13 20:22:37,-1.310916781,0.522900641,-6.261368752,16.75941277,-8.700529099,3.636792421,1747.4166666666667,-959.25,2.4444444444444446,-7942.027777777777,1355.3055555555557,3091.805555555556,3
2024-06-13 20:22:37,-1.310916781,0.522900641,-6.261368752,16.75941277,-8.700529099,3.636792421,1725.75,-974.25,18.0,-7819.25,1404.75,3211.25,3
2024-06-13 20:22:37,-2.072054863,0.109955743,-1.803274155,10.9343195,-4.757278919,2.925714493,-398.859872611465,-177.53503184713375,-264.1656050955414,-7586.853503184713,1845.133757961784,3633.75796178344,3
2024-06-13 20:22:37,-2.072054863,0.109955743,-1.803274155,10.9343195,-4.757278919,2.925714493,-1390.5796178343949,145.39490445859872,-328.4968152866242,-7364.5605095541405,1739.4012738853503,3601.2738853503183,3
2024-06-13 20:22:37,0.3787364662,-0.1209513173,-0.04520402849,8.645462036,-3.646369219,1.515529633,-1750.5555555555557,494.9111111111111,-292.0111111111111,-7886.566666666667,1028.2333333333331,3043.366666666667,3
2024-06-13 20:22:37,-0.9969320893,-0.1783726513,1.974316478,10.54645824,-3.028665066,4.237737179,-1355.6705882352942,-88.43529411764706,-395.25882352941176,-8039.623529411765,869.8470588235294,3368.270588235294,3
2024-06-13 20:22:37,-0.9969320893,-0.1783726513,1.974316478,10.54645824,-3.028665066,4.237737179,-633.8658536585366,-271.82926829268297,-1468.9024390243903,-7586.304878048781,250.59756097560967,3335.329268292683,3
2024-06-13 20:22:37,2.541199446,0.05131268129,1.944994926,9.564835548,-2.185906172,3.964797974,-283.4146341463415,215.6829268292683,-1315.0365853658536,-8218.80487804878,-308.2682926829268,3074.939024390244,3
2024-06-13 20:22:37,0.1869247705,-0.2394591719,0.03298672289,8.015787125,-2.319981337,3.186682463,200.45454545454544,-235.29545454545456,-187.5,-7676.727272727273,243.3068181818182,3367.8863636363635,3
2024-06-13 20:22:38,0.1869247705,-0.2394591719,0.03298672289,8.015787125,-2.319981337,3.186682463,-661.2808988764045,-122.84269662921348,-208.04494382022472,-8004.044943820225,481.7752808988764,3533.696629213483,3
2024-06-13 20:22:38,-0.03298672289,-0.3359758854,-1.178969979,9.765948296,-2.504334927,3.203441858,-1779.415730337079,74.75280898876404,-400.4044943820225,-7622.494382022472,226.9438202247191,3551.4269662921347,3
2024-06-13 20:22:38,-0.03298672289,-0.3359758854,-1.178969979,9.765948296,-2.504334927,3.203441858,-2146.111111111112,518.2222222222222,-338.6666666666667,-7894.722222222223,25.0,3107.6666666666665,3
2024-06-13 20:22:38,0.2590068579,-0.1502728462,-0.4434881806,9.485827446,-2.557007313,3.349488258,-1395.9080459770116,507.9770114942529,958.0459770114942,-8008.390804597701,-335.18390804597703,3186.586206896552,3
2024-06-13 20:22:38,0.08307767659,0.1014036313,0.5375614166,9.311050415,-2.817975283,2.892195702,-937.6,521.5111111111111,806.4888888888888,-8009.044444444445,-622.5777777777778,2999.288888888889,3
2024-06-13 20:22:38,0.08307767659,0.1014036313,0.5375614166,9.311050415,-2.817975283,2.892195702,317.56321839080465,168.33333333333334,261.82758620689657,-8055.666666666667,-1119.574712643678,2926.6781609195405,3
2024-06-13 20:22:38,-0.1026253626,0.003665191587,1.373225093,9.10036087,-4.285621166,3.411737442,1775.574712643678,-161.67816091954023,1597.183908045977,-8099.137931034483,-461.7816091954023,2893.6666666666665,3
2024-06-13 20:22:38,0.3677408695,-0.06963863969,2.119702339,8.954314232,-6.457161903,3.19625926,1388.494623655914,-221.89247311827955,1721.1182795698924,-7606.795698924731,1605.4301075268818,2974.4193548387098,3
2024-06-13 20:22:38,0.3677408695,-0.06963863969,2.119702339,8.954314232,-6.457161903,3.19625926,1051.6666666666667,61.13333333333333,417.73333333333335,-7585.6,1680.5333333333333,3339.6666666666665,3
2024-06-13 20:22:38,0.4251621962,0.07452555746,2.392148256,6.220136166,-7.697358608,3.809175014,595.0,41.8,76.39999999999998,-7583.6,1743.2,3333.0,3
2024-06-13 20:22:39,0.4251621962,0.07452555746,2.392148256,3.105279684,-7.960720539,4.817133904,-845.3488372093024,128.25581395348837,-533.9069767441861,-7948.3488372093025,1305.906976744186,2749.6046511627906,3
2024-06-13 20:22:39,0.9138544202,0.09651670605,1.771509171,3.105279684,-7.960720539,4.817133904,-363.6741573033708,-403.4943820224719,-422.4494382022472,-8003.528089887641,827.7303370786517,3277.887640449438,3
2024-06-13 20:22:39,1.186300278,0.338419348,1.41720736,0.2202665508,-8.197746277,6.234501362,498.6741573033708,-859.2471910112359,-1248.808988764045,-7741.404494382023,34.460674157303345,3622.112359550562,3
2024-06-13 20:22:39,1.186300278,0.338419348,1.41720736,0.2202665508,-8.197746277,6.234501362,1533.4367816091954,-197.04597701149424,-799.7011494252874,-7853.229885057472,286.9080459770115,2982.2758620689656,3
2024-06-13 20:22:39,1.067792416,0.5143485069,1.208291411,-1.146822572,-6.950367451,6.775590897,1422.9333333333334,-400.9333333333333,-179.16666666666663,-7859.166666666667,445.4,3044.633333333333,3
2024-06-13 20:22:39,0.7880161405,0.2150245607,0.829554975,-1.704671621,-5.554547787,7.352593422,-168.08695652173913,-351.1304347826087,819.1304347826087,-7724.086956521739,1017.0434782608696,3763.434782608696,3
2024-06-13 20:22:39,0.7880161405,0.2150245607,0.829554975,-1.704671621,-5.554547787,7.352593422,-124.34883720930232,500.4186046511628,679.3139534883721,-7724.232558139535,1031.4651162790697,3837.279069767442,3
2024-06-13 20:22:39,-1.369559884,0.299323976,0.3824016452,-2.456450939,-6.574477673,7.311892033,64.67816091954023,519.3908045977012,688.8735632183908,-7577.908045977011,1158.3563218390805,3608.931034482759,3
2024-06-13 20:22:39,-1.369559884,0.299323976,0.3824016452,-3.727771997,-5.748478413,5.971138954,-109.26373626373626,657.6593406593406,731.6923076923077,-7678.923076923077,1499.0,3375.043956043956,3
2024-06-13 20:22:39,-0.6352998614,0.2235766798,0.3494149148,-3.727771997,-5.748478413,5.971138954,-176.36470588235295,230.0941176470588,201.31764705882352,-7964.247058823529,1475.364705882353,3180.4823529411765,3
2024-06-13 20:22:40,0.1918116808,-0.009773843922,0.06963863969,-3.509899616,-5.712565422,5.609614372,692.5783132530121,-526.5843373493976,200.3855421686747,-7628.686746987952,1568.867469879518,3205.638554216868,3
2024-06-13 20:22:40,0.1918116808,-0.009773843922,0.06963863969,-3.509899616,-5.712565422,5.609614372,819.0843373493976,-551.2831325301205,-15.277108433734952,-7722.6626506024095,1608.6265060240964,3214.0722891566265,3
2024-06-13 20:22:40,1.666440368,-0.58276546,0.03054326214,-4.508281708,-5.13556242,8.025363922,462.2658227848101,-184.77215189873417,1501.6708860759493,-7480.050632911392,1457.9240506329113,3634.6202531645567,3
2024-06-13 20:22:40,-2.20522356,0.4105014503,-0.4202753007,-3.268085241,-9.639056206,7.218518257,820.2988505747127,463.9770114942529,2878.3908045977014,-7096.425287356322,2178.4597701149423,3632.7586206896553,3
2024-06-13 20:22:40,-2.20522356,0.4105014503,-0.4202753007,-3.268085241,-9.639056206,7.218518257,277.9438202247191,1093.3820224719102,2937.0337078651687,-7123.651685393258,2827.516853932584,3057.1348314606744,3
2024-06-13 20:22:40,1.000597239,-0.3628539443,-0.4874704778,-3.629609823,-2.442085743,9.730035782,540.6153846153846,158.0,1757.0,-7144.2307692307695,3531.0,3018.769230769231,3
2024-06-13 20:22:40,-1.861917257,0.7208209634,-0.9443976879,2.200271368,-5.35104084,5.386953831,714.0697674418604,313.0232558139535,1250.7906976744189,-6655.395348837209,4678.627906976744,2904.0697674418607,3
2024-06-13 20:22:40,-1.861917257,0.7208209634,-0.9443976879,2.200271368,-5.35104084,5.386953831,-136.7303370786517,297.8426966292135,722.0674157303371,-6773.23595505618,4476.393258426966,2878.61797752809,3
2024-06-13 20:22:40,-1.181413412,-0.5180137157,-3.116634369,5.506663799,-7.802703381,2.533065319,-1350.092105263158,819.9144736842105,271.25657894736844,-6981.802631578948,4407.25,2529.907894736842,3
2024-06-13 20:22:40,-1.181413412,-0.5180137157,-3.116634369,5.506663799,-7.802703381,2.533065319,-1561.9342105263158,873.203947368421,511.3881578947368,-6927.855263157895,4382.25,2518.065789473684,3
2024-06-13 20:22:41,-3.727499723,0.9175195694,-4.927238941,8.65743351,-12.65575027,0.7948749661,-1846.7912087912089,1013.10989010989,278.8901098901099,-6904.549450549451,4144.010989010989,2647.043956043956,3
2024-06-13 20:22:41,0.9908234477,1.348790407,-4.840496063,14.04917526,-7.896077156,-1.173158884,-1538.6144578313254,1054.7951807228917,326.2409638554217,-6945.361445783133,4172.0,2810.5060240963858,3
2024-06-13 20:22:41,0.9908234477,1.348790407,-4.840496063,14.04917526,-7.896077156,-1.173158884,-972.2777777777778,728.6222222222223,322.44444444444446,-6684.2,4352.811111111111,2865.3888888888887,3
2024-06-13 20:22:41,-1.044579625,-0.3359758854,0.8772025108,8.73404789,-6.363788128,1.259350061,-679.8,399.8,-478.0,-6520.0,4655.4,3063.0,3
2024-06-13 20:22:41,-1.499063253,-1.103222609,2.189341068,10.6398325,-5.437232018,0.1580173075,784.3522727272727,-314.125,-1480.0795454545455,-6747.840909090909,4183.715909090909,3216.2727272727275,3
2024-06-13 20:22:41,-1.499063253,-1.103222609,2.189341068,10.6398325,-5.437232018,0.1580173075,1224.3636363636365,-203.02272727272725,-959.5909090909092,-7257.022727272727,4303.659090909091,3281.590909090909,3
2024-06-13 20:22:41,-0.04398229718,-2.552195072,2.71835041,10.51054573,-7.532158375,-1.805228114,1194.2065217391305,135.48913043478262,-1579.7608695652175,-6655.472826086957,3732.407608695652,3030.3641304347825,3
2024-06-13 20:22:41,-0.04398229718,-2.552195072,2.71835041,10.51054573,-7.532158375,-1.805228114,860.5108695652174,408.3152173913044,-1681.9347826086955,-6762.538043478261,3476.429347826087,2665.6902173913045,3
2024-06-13 20:22:41,2.569299221,-2.84418869,2.918714046,6.184223175,-9.945513725,-3.869029999,1121.8481012658228,-199.126582278481,-946.3924050632912,-7371.645569620253,2794.354430379746,2333.4050632911394,3
2024-06-13 20:22:41,2.444682598,-1.892460585,3.10930419,0.5530605912,-8.221688271,1.237802267,1346.875,156.4375,-530.25,-7269.5,2592.0625,1821.625,3
2024-06-13 20:22:42,2.444682598,-1.892460585,3.10930419,0.5530605912,-8.221688271,1.237802267,1438.25,453.8863636363636,112.1818181818182,-8180.443181818182,2778.625,1368.3636363636365,3
2024-06-13 20:22:42,0.9920451641,-0.338419348,2.206445217,-3.05021286,-6.426037312,6.390124321,680.3333333333333,224.90476190476195,89.28571428571428,-7921.761904761905,2808.3809523809523,900.904761904762,3
2024-06-13 20:22:42,-0.03909537569,0.2590068579,1.043357849,-4.38378334,-4.49870491,5.219359875,94.84848484848484,-275.7575757575757,-176.9090909090909,-7475.987878787879,2553.4060606060607,1165.3272727272729,3
2024-06-13 20:22:42,-0.03909537569,0.2590068579,1.043357849,-4.38378334,-4.49870491,5.219359875,-291.64044943820227,336.40449438202245,-233.97752808988764,-7599.179775280899,2740.47191011236,1209.7303370786517,3
2024-06-13 20:22:42,-0.3689626157,-0.08552113175,0.1857030392,-4.687847137,-4.118026733,5.382165432,-456.1666666666667,35.388888888888886,3.666666666666668,-7733.055555555556,2509.833333333333,1367.7222222222222,3
2024-06-13 20:22:42,-0.3689626157,-0.08552113175,0.1857030392,-4.687847137,-4.118026733,5.382165432,45.68539325842697,-437.4269662921348,195.1460674157304,-7654.393258426966,2891.1011235955057,1607.2359550561798,3
2024-06-13 20:22:42,-0.2761110961,-0.531452775,-0.6462954283,-5.714959621,-5.710171223,5.5042696,-471.0253164556962,-203.9873417721519,237.48101265822783,-7376.987341772152,3097.164556962025,1841.746835443038,3
2024-06-13 20:22:42,-0.02809980139,-0.2455678284,-0.2932153046,-5.954379559,-6.39251852,7.16824007,-752.0379746835442,-163.48101265822783,226.72151898734177,-7486.481012658228,3323.746835443038,1731.620253164557,3
2024-06-13 20:22:42,-0.02809980139,-0.2455678284,-0.2932153046,-5.954379559,-6.39251852,7.16824007,-822.7692307692307,49.0,268.0769230769231,-7473.0,2972.076923076923,2147.846153846154,3
2024-06-13 20:22:42,0.538783133,0.2003637999,0.2773328125,-6.325480938,-5.573701382,6.727706909,-661.054945054945,-270.6923076923077,503.2417582417583,-7506.758241758242,3139.3736263736264,1999.4945054945056,3
2024-06-13 20:22:43,-0.03665191308,-0.1246165112,-0.03665191308,-2.700659513,-4.525041103,5.099649429,-668.9444444444445,-386.8333333333333,708.1111111111111,-7170.388888888889,3663.1666666666665,2170.1666666666665,3
2024-06-13 20:22:43,-0.03665191308,-0.1246165112,-0.03665191308,-2.700659513,-4.525041103,5.099649429,-1143.3010752688172,-230.16129032258064,334.35483870967744,-7017.129032258064,3784.58064516129,2924.1397849462364,3
2024-06-13 20:22:43,-0.2700024247,-0.1588249654,-0.2712241709,-8.911218643,-6.907271862,8.870517731,-919.7529411764706,-298.9764705882353,-53.89411764705882,-6904.482352941176,3502.423529411765,2738.6470588235293,3
2024-06-13 20:22:43,-0.2700024247,-0.1588249654,-0.2712241709,-8.911218643,-6.907271862,8.870517731,-348.27272727272725,-345.0,305.0,-6837.545454545455,3824.545454545456,2910.181818181818,3
2024-06-13 20:22:43,0.3567453027,0.07452555746,0.3042109013,-1.845929503,-4.158728123,4.996698856,-490.5505617977528,-176.35955056179776,466.8876404494382,-6970.247191011236,3813.078651685393,2754.9775280898875,3
2024-06-13 20:22:43,-0.6951646209,-0.5974262357,-0.7562511563,-8.992621422,-7.764396191,9.567230225,-121.5,-231.5,380.5,-6973.0,4122.5,3112.0,3
2024-06-13 20:22:43,-0.6951646209,-0.5974262357,-0.7562511563,-8.992621422,-7.764396191,9.567230225,-36.77272727272727,-538.8181818181819,292.95454545454544,-6604.636363636364,4173.090909090909,2974.090909090909,3
2024-06-13 20:22:43,-0.762359798,1.275486588,1.088561893,-4.441244125,-5.252878666,4.125209332,-89.42045454545453,-64.30681818181819,469.6931818181818,-6567.534090909091,4106.170454545455,2958.204545454545,3
2024-06-13 20:22:43,0.8881980777,0.1857030392,-0.2736676335,-3.064578056,-0.7110779285,3.318363667,-294.25,-74.81818181818181,374.52272727272725,-6608.727272727273,4182.875,3002.806818181818,3
2024-06-13 20:22:43,0.8881980777,0.1857030392,-0.2736676335,-3.064578056,-0.7110779285,3.318363667,161.23563218390805,76.13218390804597,-104.60344827586206,-6642.373563218391,4182.022988505747,2963.0459770114944,3
2024-06-13 20:22:44,-0.08796459436,-1.95721221,-4.406781673,-1.532289028,-5.576095581,4.247313976,-188.8705882352941,-71.62352941176471,319.8,-6595.105882352941,4353.2235294117645,2949.564705882353,3
2024-06-13 20:22:44,-0.08796459436,-1.95721221,-4.406781673,-1.532289028,-5.576095581,4.247313976,-134.6222222222222,-12.266666666666666,48.6,-6592.266666666666,4303.555555555556,2995.5777777777776,3
2024-06-13 20:22:44,-4.247956753,-0.2015855312,-6.129421711,7.771578789,-11.51850414,1.977610588,-63.80645161290322,-70.48387096774194,-494.8709677419355,-6606.548387096775,4214.548387096775,2968.4193548387098,3
2024-06-13 20:22:44,-3.594331026,1.445307136,-6.236934185,17.64766121,-6.663063526,-3.112462282,-87.03225806451613,-112.41935483870968,-310.35483870967744,-6620.741935483871,4208.741935483871,2958.0967741935483,3
2024-06-13 20:22:44,-3.594331026,1.445307136,-6.236934185,17.64766121,-6.663063526,-3.112462282,-563.2,254.35555555555555,128.11111111111111,-6618.777777777777,4183.266666666666,3177.8888888888887,3
2024-06-13 20:22:44,5.412266254,-0.4605923891,-0.1307251602,8.741230011,-6.387730122,-0.316034615,-67.69318181818181,210.125,-77.93181818181819,-6938.852272727273,3946.545454545456,3074.2613636363635,3
2024-06-13 20:22:44,-1.871691108,-0.3604104817,0.3885102868,9.832986832,-4.012681961,2.398990154,356.4186046511628,162.11627906976744,-400.0,-7026.046511627907,3792.418604651162,2747.2093023255816,3
2024-06-13 20:22:44,-1.871691108,-0.3604104817,0.3885102868,9.832986832,-4.012681961,2.398990154,-47.66666666666666,21.66666666666667,-168.83333333333334,-6814.0,3931.3333333333335,2745.0,3
2024-06-13 20:22:44,1.976759911,-0.2455678284,1.232726097,9.758766174,-2.97599268,5.262455463,-50.57954545454545,85.1590909090909,-41.14772727272727,-6949.045454545455,4145.556818181818,2730.5113636363635,3
2024-06-13 20:22:44,1.976759911,-0.2455678284,1.232726097,9.758766174,-2.97599268,5.262455463,271.4943820224719,-36.438202247191015,-632.7303370786517,-6997.494382022472,3718.0898876404494,2753.370786516854,3
2024-06-13 20:22:45,-0.4190535545,0.3604104817,0.6072000265,9.591172218,-2.432508945,2.41335535,-278.7142857142857,29.5,-117.16666666666669,-6986.619047619048,3905.309523809524,2857.285714285714,3
2024-06-13 20:22:45,0.2797762752,0.08063421398,0.08307767659,9.165003777,-3.363853455,2.054224968,-244.29885057471265,320.45977011494256,170.91954022988506,-6837.563218390805,3872.2183908045977,2837.114942528736,3
2024-06-13 20:22:45,0.2797762752,0.08063421398,0.08307767659,9.165003777,-3.363853455,2.054224968,-63.28409090909091,224.1818181818182,158.51136363636363,-6892.329545454545,4008.681818181818,2837.340909090909,3
2024-06-13 20:22:45,-0.4886921942,-0.05131268129,1.395216227,8.125920296,-7.891288757,3.430891037,35.02298850574712,-64.7816091954023,-582.6781609195402,-6837.114942528736,3946.2758620689656,2893.896551724138,3
2024-06-13 20:22:45,0.3909537494,-0.05864306539,2.238210201,6.459556103,-9.346963882,3.093308687,-224.6292134831461,-263.685393258427,-282.7415730337079,-6811.359550561798,3517.7865168539324,2870.752808988764,3
2024-06-13 20:22:45,0.3909537494,-0.05864306539,2.238210201,6.459556103,-9.346963882,3.093308687,-363.4155844155844,-84.1948051948052,346.7142857142857,-6818.019480519481,3776.519480519481,2875.2987012987014,3
2024-06-13 20:22:45,0.003665191587,-0.4398229718,2.737898111,4.139574528,-10.51293945,1.862688899,-229.8260869565217,-37.26086956521739,328.0869565217391,-6807.695652173913,3805.086956521739,2849.0,3
2024-06-13 20:22:45,0.003665191587,-0.4398229718,2.737898111,4.139574528,-10.51293945,1.862688899,56.57647058823528,54.65882352941176,-626.6941176470589,-6798.435294117647,3957.635294117647,2794.764705882353,3
2024-06-13 20:22:45,-0.2577851415,-0.5571091175,2.531425476,1.948880196,-11.10191345,1.968033791,-518.9487179487179,-66.48717948717949,212.43589743589743,-6850.4358974358975,4120.282051282052,2799.794871794872,3
2024-06-13 20:22:45,-0.1832595766,-0.5485569835,1.37078166,0.4381389022,-8.063671112,1.616086125,-316.38461538461536,-90.84615384615384,284.2307692307692,-6822.2307692307695,3934.3846153846152,2989.538461538461,3
2024-06-13 20:22:46,-0.1832595766,-0.5485569835,1.37078166,0.4381389022,-8.063671112,1.616086125,-18.10526315789474,-93.47368421052632,-366.3684210526316,-6857.052631578948,3533.368421052632,2783.9473684210525,3
2024-06-13 20:22:46,-0.4312708676,-0.2309070677,0.7513642311,0.3519476354,-8.518569946,0.691924274,-193.9095744680851,74.00531914893617,-121.93617021276596,-6904.696808510638,3606.61170212766,2722.345744680851,3
2024-06-13 20:22:46,1.462411404,-0.9358455539,1.76173532,-1.738190413,-7.750030994,3.035847664,-205.07978723404256,-3.1223404255319167,-47.46808510638297,-7100.973404255319,3536.93085106383,2709.0478723404253,3
2024-06-13 20:22:46,1.462411404,-0.9358455539,1.76173532,-1.738190413,-7.750030994,3.035847664,363.7837837837838,67.64864864864865,-473.72972972972974,-6849.459459459459,3693.432432432433,3157.891891891892,3
2024-06-13 20:22:46,0.1429424733,-0.4349360466,-0.381179899,-8.104372978,-5.360617638,7.931990147,-228.8426966292135,-75.64044943820224,-335.55056179775283,-6883.5842696629215,3655.7078651685392,2807.696629213483,3
2024-06-13 20:22:46,0.1429424733,-0.4349360466,-0.381179899,-8.104372978,-5.360617638,7.931990147,-622.9772727272727,352.8409090909091,532.0227272727273,-7257.409090909091,3821.840909090909,2926.090909090909,3
2024-06-13 20:22:46,-0.09896016866,0.4471533597,0.6780604124,-5.420472622,-9.172186852,2.516305923,-252.06976744186045,19.418604651162795,-79.66279069767441,-7177.941860465116,3867.813953488372,3154.0813953488373,3
2024-06-13 20:22:46,0.4202753007,-0.6157521605,-0.01221730467,-3.253720045,-2.288856745,4.872200489,0.2888888888888878,149.2888888888889,-320.3111111111112,-6893.733333333334,3664.4222222222224,2755.2444444444445,3
2024-06-13 20:22:46,0.4202753007,-0.6157521605,-0.01221730467,-3.253720045,-2.288856745,4.872200489,-547.0689655172414,-54.75862068965517,362.183908045977,-7234.770114942528,3737.5632183908046,2831.0,3
2024-06-13 20:22:46,-0.9724974632,0.7941248417,-0.04520402849,-7.527369976,-9.31823349,5.051765442,44.90909090909091,-230.27272727272725,-261.1818181818182,-7006.181818181818,3547.6363636363635,3014.3636363636365,3
2024-06-13 20:22:47,1.115439892,-0.7819074988,0.2431243658,-2.106897593,-3.909731388,3.79480958,-57.83333333333334,158.61111111111111,-230.27777777777777,-6867.833333333333,3558.611111111112,2977.055555555556,3
2024-06-13 20:22:47,1.115439892,-0.7819074988,0.2431243658,-2.106897593,-3.909731388,3.79480958,-387.5,167.88636363636363,173.7159090909091,-7074.897727272727,3803.272727272728,2793.3977272727275,3
2024-06-13 20:22:47,-0.7110471725,0.6976081133,-0.2687807083,-8.35097599,-11.0229044,5.820304394,-438.0059880239521,179.7005988023952,341.6826347305389,-7255.125748502994,3893.832335329341,2905.047904191617,3
2024-06-13 20:22:47,-0.7110471725,0.6976081133,-0.2687807083,-8.35097599,-11.0229044,5.820304394,-413.45508982035926,-92.75449101796409,242.88023952095807,-7239.556886227545,3881.25748502994,3108.640718562874,3
2024-06-13 20:22:47,0.4618141353,-0.4422664344,0.1123992056,-1.893813491,-3.08373189,4.683058739,-496.0659340659341,70.87912087912088,-127.0,-6835.9010989010985,3895.7582417582416,2853.7582417582416,3
2024-06-13 20:22:47,-0.3188716471,0.4532620013,-0.5461135507,-10.26154804,-11.21444035,8.640673637,-404.3,93.5,-48.44999999999999,-6896.65,3934.3,2986.6,3
2024-06-13 20:22:47,-0.3188716471,0.4532620013,-0.5461135507,-10.26154804,-11.21444035,8.640673637,66.90419161676647,-346.55089820359285,-753.8862275449102,-6917.0,3441.604790419162,3360.640718562874,3
2024-06-13 20:22:47,0.9272934198,-0.3970624208,0.8478809595,0.3088520169,-4.738125324,1.786074519,-18.77777777777778,-89.42222222222222,-51.644444444444446,-7183.888888888889,3614.3333333333335,3109.288888888889,3
2024-06-13 20:22:47,-0.02809980139,-0.7538077235,-0.7012733221,-8.058882713,-5.231330872,9.993397713,-200.66666666666669,72.97701149425288,413.2528735632184,-6906.241379310345,3652.597701149425,3098.609195402299,3
2024-06-13 20:22:47,-0.02809980139,-0.7538077235,-0.7012733221,-8.058882713,-5.231330872,9.993397713,-34.337078651685395,-142.13483146067415,-602.9662921348315,-6813.719101123596,3602.887640449438,2955.494382022472,3
2024-06-13 20:22:48,-1.016479731,1.965764403,-0.3115412891,-5.762843609,-10.46505547,6.177040577,-262.0,-103.0,-377.5,-7216.5,3414.5,3150.5,3
2024-06-13 20:22:48,-1.016479731,1.965764403,-0.3115412891,-5.762843609,-10.46505547,6.177040577,-214.375,-95.75,537.25,-7191.875,3836.75,3172.75,3
2024-06-13 20:22:48,0.9566149712,-0.8002334833,3.015230894,-2.971204281,-10.09634876,1.170764685,-324.7333333333333,-184.7333333333333,-47.0,-7102.066666666667,3712.866666666667,3298.8,3
2024-06-13 20:22:48,1.718974829,-1.007927656,2.66581583,-2.908955097,6.074089527,6.600813866,-70.75862068965517,53.3448275862069,-853.9655172413793,-6848.724137931034,3351.620689655173,3106.5172413793102,3
2024-06-13 20:22:48,1.718974829,-1.007927656,2.66581583,-2.908955097,6.074089527,6.600813866,-206.27272727272728,87.88636363636364,-58.77272727272728,-7194.329545454545,3368.625,3004.204545454545,3
2024-06-13 20:22:48,-0.3726277947,0.5412266254,-2.541199446,-3.215412855,5.461174011,7.280767441,-661.9431818181819,350.0681818181818,338.70454545454544,-6970.931818181818,3558.3636363636365,3340.3636363636365,3
2024-06-13 20:22:48,-0.7696902156,0.6902777553,-2.20522356,-7.570465565,-14.33408546,2.700659513,-852.3111111111111,467.0888888888889,48.93333333333334,-6652.022222222222,3708.8888888888887,3566.288888888889,3
2024-06-13 20:22:48,-0.7696902156,0.6902777553,-2.20522356,-7.570465565,-14.33408546,2.700659513,-865.4444444444445,450.3333333333333,765.1111111111111,-6906.388888888889,4125.0,3290.222222222222,3
2024-06-13 20:22:48,0.8381071091,-0.830776751,3.679852247,-7.759607792,-3.725377798,5.106832027,-685.301775147929,194.6094674556213,520.2366863905326,-6594.828402366864,4035.834319526627,3400.112426035503,3
2024-06-13 20:22:48,0.8381071091,-0.830776751,3.679852247,-7.759607792,-3.725377798,5.106832027,-360.4497041420119,-337.9349112426036,406.6272189349112,-6697.19526627219,3855.360946745562,3326.147928994083,3
2024-06-13 20:22:49,-0.4520402849,0.4398229718,-0.2944370508,-2.396595955,-1.438915253,6.071695328,664.6818181818182,-1017.5454545454544,-746.5909090909091,-6508.727272727273,3890.909090909091,3873.863636363637,3
2024-06-13 20:22:49,-1.136209369,0.9431759119,-3.431840897,-4.764461517,-3.090914488,2.928108692,310.609756097561,231.3170731707317,-578.219512195122,-6756.926829268293,3382.121951219512,3481.8048780487807,3
2024-06-13 20:22:49,-1.136209369,0.9431759119,-3.431840897,-4.764461517,-3.090914488,2.928108692,152.95294117647057,58.188235294117646,670.1882352941177,-7098.752941176471,3870.752941176471,3388.0941176470587,3
2024-06-13 20:22:49,-0.7745771408,0.3066543639,-2.268753529,-6.368576527,-10.19451046,2.145204782,240.3333333333333,-87.33333333333334,-114.66666666666664,-6970.666666666667,4146.666666666667,3325.333333333333,3
2024-06-13 20:22:49,-2.129476309,0.161268428,-0.471587956,-4.13239193,-8.710105896,1.122880578,279.44444444444446,459.6666666666667,-669.6666666666666,-6838.611111111111,3237.555555555556,3161.777777777778,3
2024-06-13 20:22:49,-2.129476309,0.161268428,-0.471587956,-4.13239193,-8.710105896,1.122880578,19.244444444444444,-18.666666666666664,-13.933333333333335,-7055.0888888888885,3327.5333333333333,2769.288888888889,3
2024-06-13 20:22:49,1.03969264,-0.9786061049,1.343903542,-3.239354849,-9.574412346,2.604891539,-50.90588235294118,-333.7058823529412,586.8235294117646,-6838.15294117647,3840.905882352941,3055.141176470588,3
2024-06-13 20:22:49,1.03969264,-0.9786061049,1.343903542,-3.239354849,-9.574412346,2.604891539,111.3370786516854,-321.53932584269666,-365.5730337078652,-6807.08988764045,3939.786516853933,3292.887640449438,3
2024-06-13 20:22:49,1.546710849,-1.736078978,1.259604096,-5.822698593,-1.273715258,6.579266071,11.5,122.75,-926.7954545454544,-6930.306818181818,3231.7613636363635,3183.284090909091,3
2024-06-13 20:22:49,-4.364021301,1.793500304,-1.778839588,-7.441178799,-9.186552048,2.466027737,49.13333333333333,73.11111111111111,128.3777777777778,-7143.911111111112,3286.288888888889,3131.6444444444446,3
2024-06-13 20:22:50,-4.364021301,1.793500304,-1.778839588,-7.441178799,-9.186552048,2.466027737,-79.18181818181819,113.45454545454544,522.6363636363636,-6921.545454545455,3684.545454545456,3040.181818181818,3
2024-06-13 20:22:50,1.126435518,-0.5656611919,-0.1991420686,-8.420407295,-1.233013868,8.638279915,18.80434782608696,-267.44565217391306,-156.34782608695653,-6838.869565217391,3881.271739130435,3416.728260869565,3
2024-06-13 20:22:50,1.663996935,-1.220508814,0.009773843922,-0.3280056417,-6.947973251,4.252102375,-182.3953488372093,45.3488372093023,-870.3488372093022,-7027.186046511628,3311.5116279069766,3078.558139534884,3
2024-06-13 20:22:50,1.663996935,-1.220508814,0.009773843922,-0.3280056417,-6.947973251,4.252102375,-601.3333333333334,316.6666666666667,-41.93333333333334,-7247.6,3589.133333333333,3007.6,3
2024-06-13 20:22:50,-1.445307136,0.822224617,-0.6010913849,-0.4429273009,-6.792350292,0.6584054828,-177.1573033707865,-268.34831460674155,-340.5842696629213,-7176.550561797752,3494.820224719101,3243.876404494382,3
2024-06-13 20:22:50,-1.445307136,0.822224617,-0.6010913849,-0.4429273009,-6.792350292,0.6584054828,-330.2073170731707,50.03658536585365,-1017.7134146341464,-6907.914634146341,2971.5243902439024,3446.69512195122,3
2024-06-13 20:22:50,-0.5290092826,1.16553092,-2.560747147,1.146822572,-8.944737434,3.462015629,-207.03658536585365,-65.8170731707317,-1108.5670731707316,-7111.573170731707,3077.621951219512,3445.4756097560976,3
2024-06-13 20:22:50,-1.255938888,0.9065240026,-4.91380024,3.634398222,-9.840168953,1.218648672,-144.74766355140187,122.16822429906544,-281.4485981308411,-7132.85046728972,3068.8317757009345,3225.5140186915887,3
2024-06-13 20:22:50,-1.255938888,0.9065240026,-4.91380024,3.634398222,-9.840168953,1.218648672,-0.941176470588232,-315.7058823529412,-701.7058823529412,-6998.529411764706,3486.5882352941176,3694.941176470588,3
2024-06-13 20:22:50,2.706133127,0.3665191531,-6.511823654,17.82722664,-8.825027466,0.0359130241,-344.9230769230769,317.9010989010989,-958.4725274725274,-7125.725274725275,2627.6593406593406,3227.5274725274726,3
2024-06-13 20:22:51,-2.379930973,-0.6609562039,-0.4569272101,9.430760384,-3.49553442,3.452438831,-99.8913043478261,330.7608695652174,-213.41304347826087,-7125.934782608696,2742.608695652174,3398.521739130435,3
2024-06-13 20:22:51,-2.379930973,-0.6609562039,-0.4569272101,9.430760384,-3.49553442,3.452438831,-91.42424242424242,176.6818181818182,542.8333333333334,-7063.787878787879,3617.060606060606,3249.909090909091,3
2024-06-13 20:22:51,-2.346944332,-0.1649336219,3.571118116,11.03966427,-12.51209831,4.90811348,-331.967032967033,205.2197802197802,-1036.6813186813188,-7250.758241758242,2886.21978021978,3384.1758241758243,3
2024-06-13 20:22:51,-2.346944332,-0.1649336219,3.571118116,11.03966427,-12.51209831,4.90811348,-111.36363636363636,461.29545454545456,-126.61363636363636,-7406.227272727273,2546.0,3195.5,3
2024-06-13 20:22:51,2.10259819,-0.6670648456,5.527108669,9.696516991,-12.24634171,-1.953668594,250.26666666666665,194.7333333333333,169.93333333333334,-7458.933333333333,3153.8,2978.0,3
2024-06-13 20:22:51,1.606575608,-0.7953465581,4.956560612,3.892971992,-8.66940403,2.942473888,547.7111111111111,-113.22222222222224,-300.68888888888887,-7367.111111111111,3341.8888888888887,3162.2444444444445,3
2024-06-13 20:22:51,1.606575608,-0.7953465581,4.956560612,3.892971992,-8.66940403,2.942473888,434.8620689655172,6.264367816091948,-878.9885057471264,-7457.80459770115,2542.4712643678163,3040.5402298850577,3
2024-06-13 20:22:51,-0.3200933933,0.7073819637,1.529606581,0.5889736414,-6.782773495,5.623979568,-0.9340659340659344,-64.57142857142857,-183.7362637362637,-7393.7692307692305,2715.802197802198,2978.5054945054944,3
2024-06-13 20:22:51,0.08063421398,-0.5204572082,0.6108652353,-3.816357613,-5.884947777,3.42131424,193.63953488372093,203.66279069767444,491.59302325581393,-7359.255813953488,3042.4767441860463,3183.732558139535,3
2024-06-13 20:22:51,0.08063421398,-0.5204572082,0.6108652353,-3.816357613,-5.884947777,3.42131424,320.2631578947368,288.63157894736844,-564.4736842105262,-7489.631578947368,2785.0,2964.368421052632,3
2024-06-13 20:22:52,-0.2846632004,-0.1148426682,0.1820378453,-4.666299343,-6.68700552,4.745307922,69.9090909090909,161.93506493506493,-1049.3116883116884,-7491.74025974026,2451.5064935064934,2945.3376623376626,3
2024-06-13 20:22:52,-0.2846632004,-0.1148426682,0.1820378453,-4.666299343,-6.68700552,4.745307922,-268.09375,269.59375,827.375,-7322.3125,3150.03125,2841.3125,3
2024-06-13 20:22:52,0.4007275999,-0.7476990819,0.5119050741,-5.094861031,-6.627150536,5.451597214,-269.96875,301.46875,594.875,-7468.5625,3090.65625,2847.5625,3
2024-06-13 20:22:52,-0.8368853927,0.3518583775,-0.1954768747,-5.449203014,-5.798756599,4.769249916,-206.27777777777777,327.27777777777777,-598.7777777777778,-7449.444444444444,2597.4444444444443,2694.833333333333,3
2024-06-13 20:22:52,-0.8368853927,0.3518583775,-0.1954768747,-5.449203014,-5.798756599,4.769249916,-412.4942528735632,350.98850574712645,-5.96551724137931,-7786.287356321839,2383.057471264368,2578.103448275862,3
2024-06-13 20:22:52,0.7721336484,-0.7611380816,0.4092797041,-4.900930882,-5.7963624,6.141127586,-196.8502994011976,213.497005988024,89.62275449101796,-7726.508982035928,2609.5209580838323,2581.461077844311,3
2024-06-13 20:22:52,-1.209513187,0.1979203373,-0.05497787148,-2.547430515,-6.842628479,4.163516521,-117.80838323353294,3.9161676646706383,382.437125748503,-7555.251497005988,2676.5868263473053,2856.9101796407185,3
2024-06-13 20:22:52,-1.209513187,0.1979203373,-0.05497787148,-2.547430515,-6.842628479,4.163516521,-103.5505617977528,311.8988764044944,-730.9101123595506,-7356.955056179775,2334.6067415730336,2735.3370786516853,3
2024-06-13 20:22:52,-0.2260201424,0.2015855312,-1.814269781,-0.5027823448,-5.638344765,3.971980572,-11.193548387096769,2.677419354838719,882.2903225806451,-7859.322580645161,2542.967741935484,2275.774193548388,3
2024-06-13 20:22:52,-0.2260201424,0.2015855312,-1.814269781,-0.5027823448,-5.638344765,3.971980572,-86.66279069767444,-15.546511627906977,1074.8372093023256,-7178.930232558139,3403.7558139534885,2516.3488372093025,3
2024-06-13 20:22:53,0.9700540304,0.719599247,-5.034751415,3.416525841,-9.021351814,4.201824188,-335.1363636363636,605.8181818181819,-565.2045454545455,-7407.227272727273,2920.204545454545,2288.659090909091,3
2024-06-13 20:22:53,-1.660331726,0.7867944241,-6.778160572,15.00206757,-8.063671112,0.5195417404,-540.6818181818181,226.4318181818182,-449.8636363636364,-7377.181818181818,2868.704545454545,2391.8636363636365,3
2024-06-13 20:22:53,-1.660331726,0.7867944241,-6.778160572,15.00206757,-8.063671112,0.5195417404,-373.0561797752809,322.2134831460674,578.7752808988764,-7621.662921348315,2857.7191011235955,2358.303370786517,3
2024-06-13 20:22:53,0.8319984674,-0.2138028294,-2.858849287,10.39083576,-5.72214222,-0.0023942017,-321.86206896551727,320.1379310344828,244.72413793103448,-7540.448275862069,3093.448275862069,2478.0,3
2024-06-13 20:22:53,-2.056172371,-0.4948008358,-0.8943067193,10.14423275,-3.720589399,2.145204782,-463.5483870967742,596.3763440860215,133.4516129032258,-7382.096774193548,3385.1720430107525,2254.978494623656,3
2024-06-13 20:22:53,-2.056172371,-0.4948008358,-0.8943067193,10.14423275,-3.720589399,2.145204782,-499.6455696202532,135.34177215189874,-622.9240506329114,-7309.772151898735,3117.1518987341774,2326.746835443038,3
2024-06-13 20:22:53,0.5253441334,-0.1795943826,0.1075122803,8.257601738,-3.828328609,5.882553577,-735.4719101123595,193.7865168539326,-433.6067415730337,-7342.325842696629,2853.258426966292,2101.438202247191,3
2024-06-13 20:22:53,0.5253441334,-0.1795943826,0.1075122803,8.257601738,-3.828328609,5.882553577,-480.17977528089887,132.01123595505618,171.1123595505618,-7367.831460674157,2833.4044943820227,2223.876404494382,3
2024-06-13 20:22:53,-0.4056145251,0.4386012554,1.773952723,9.945513725,-2.695871115,3.830722809,110.5,312.5,-272.0,-7700.0,2702.0,2240.5,3
2024-06-13 20:22:53,1.356120825,-0.1600466967,1.992642403,10.39801788,-3.16034627,2.844311714,-300.7586206896552,319.264367816092,-282.2528735632184,-7340.816091954023,3189.8045977011493,2353.1954022988507,3
2024-06-13 20:22:54,1.356120825,-0.1600466967,1.992642403,10.39801788,-3.16034627,2.844311714,-587.8461538461538,-21.846153846153847,-550.9230769230769,-7415.0,3036.6153846153848,2007.7692307692307,3
2024-06-13 20:22:54,1.711644411,-0.4117231667,1.492954612,7.860164165,-1.800439715,1.74776721,-710.4512195121952,38.48780487804878,252.2926829268293,-7704.59756097561,2644.634146341464,2191.8414634146343,3
2024-06-13 20:22:54,-0.712268889,-0.6536257863,-0.3054326177,8.525752068,-2.798821688,2.511517525,-598.8658536585366,54.34146341463415,221.8048780487805,-7502.768292682927,2520.243902439024,2222.939024390244,3
2024-06-13 20:22:54,-0.712268889,-0.6536257863,-0.3054326177,8.525752068,-2.798821688,2.511517525,-533.3678160919541,143.77011494252875,428.44827586206895,-7726.735632183908,2923.609195402299,2284.586206896552,3
2024-06-13 20:22:54,1.332907915,-0.7525860071,-1.222952247,10.6446209,-2.200271368,2.142810583,-44.94444444444444,-60.94444444444444,297.27777777777777,-7437.5,3007.3888888888887,2373.8888888888887,3
2024-06-13 20:22:54,1.332907915,-0.7525860071,-1.222952247,10.6446209,-2.200271368,2.142810583,-630.344827586207,34.586206896551715,88.75862068965517,-7376.0,3112.9655172413795,1957.103448275862,3
2024-06-13 20:22:54,-0.9150761366,-0.17715092,-0.3176499307,9.378087997,-3.045424461,2.813186884,-641.4597701149426,59.08045977011494,1479.9080459770116,-7495.356321839081,2717.7011494252874,2290.310344827586,3
2024-06-13 20:22:54,0.5338962078,-0.1539380401,-0.4532620013,9.493009567,-2.911349297,2.114080191,150.70786516853934,-53.32584269662921,1633.1460674157304,-7474.7191011235955,2940.6067415730336,2624.6629213483147,3
2024-06-13 20:22:54,0.5338962078,-0.1539380401,-0.4532620013,9.493009567,-2.911349297,2.114080191,26.125,390.5568181818182,1136.8295454545455,-7461.079545454545,3035.8863636363635,2309.4886363636365,3
2024-06-13 20:22:54,-0.866206944,0.1979203373,0.8063421249,9.847352028,-2.832340717,1.850717902,-9.057471264367816,-82.95402298850576,1562.1609195402298,-6815.045977011494,3669.689655172414,1999.816091954023,3
2024-06-13 20:22:55,0.03054326214,-0.08429940045,0.3665191531,9.143456459,-3.074155092,1.934514999,-832.3139534883721,-853.1627906976744,1008.7441860465116,-6291.616279069767,4651.720930232558,2348.267441860465,3
2024-06-13 20:22:55,0.03054326214,-0.08429940045,0.3665191531,9.143456459,-3.074155092,1.934514999,-263.6774193548387,-1213.1935483870968,1178.258064516129,-6386.129032258064,5191.096774193548,2924.6129032258063,3
2024-06-13 20:22:55,0.3090978265,-0.1637118906,-0.07086037099,9.847352028,-2.920926094,2.19308877,-323.89247311827955,-1197.0645161290322,1273.4193548387098,-6142.043010752688,5399.698924731183,3073.537634408602,3
2024-06-13 20:22:55,0.3090978265,-0.1637118906,-0.07086037099,9.847352028,-2.920926094,2.19308877,655.4615384615385,-872.8205128205128,-417.79487179487177,-6683.74358974359,4324.48717948718,3659.564102564103,3
2024-06-13 20:22:55,0.1759291887,-0.04520402849,-0.04642575979,9.753977776,-2.760514498,1.891419291,1496.5384615384614,-162.2637362637363,268.2967032967033,-6269.516483516483,4459.043956043956,2773.56043956044,3
2024-06-13 20:22:55,-0.1282816976,0.05742133409,0.2333505303,9.54807663,-2.650381327,1.733402014,54.16666666666663,-728.0,109.66666666666669,-6310.333333333333,5179.166666666667,2553.5,3
2024-06-13 20:22:55,-0.1282816976,0.05742133409,0.2333505303,9.54807663,-2.650381327,1.733402014,108.55494505494504,-684.8626373626373,-235.8296703296703,-6336.093406593406,4934.956043956044,2629.412087912088,3
2024-06-13 20:22:55,0.2028072625,-0.1600466967,-0.2846632004,10.13704967,-2.983175278,1.877054095,571.953488372093,-118.83720930232558,-138.58139534883722,-6744.093023255814,4234.302325581395,2826.558139534884,3
2024-06-13 20:22:55,0.3469714522,0.05619960278,0.2736676335,8.137891769,-1.881842494,1.738190413,627.5384615384615,-34.84615384615385,-515.9230769230769,-6682.2307692307695,4541.384615384615,2152.4615384615386,3
2024-06-13 20:22:55,0.3469714522,0.05619960278,0.2736676335,8.137891769,-1.881842494,1.738190413,426.7906976744186,-332.3953488372093,-44.581395348837205,-6676.162790697675,4818.093023255814,2093.558139534884,3
2024-06-13 20:22:56,0.04764748737,-0.1209513173,-0.9615018964,9.296685219,-3.19625926,1.735796213,369.95,-283.95,-670.45,-6728.2,4294.0,2650.5,3
2024-06-13 20:22:56,0.04764748737,-0.1209513173,-0.9615018964,9.296685219,-3.19625926,1.735796213,-182.76712328767124,631.931506849315,-671.013698630137,-6448.643835616438,4460.232876712329,2625.219178082192,3
2024-06-13 20:22:56,0.5338962078,-0.1478293836,0.1698205322,10.47702694,-2.782062292,1.848323703,-582.082191780822,984.6712328767125,-300.4657534246575,-6682.890410958904,4860.917808219178,2446.4520547945203,3
2024-06-13 20:22:56,0.1722639948,0.1466076523,0.68539083,10.15620327,-2.628833532,1.359906554,-1844.235294117647,295.88235294117646,-1037.4117647058824,-6564.117647058823,4017.647058823529,2658.8823529411766,3
2024-06-13 20:22:56,0.1722639948,0.1466076523,0.68539083,10.15620327,-2.628833532,1.359906554,-1674.0454545454545,631.5227272727273,-1088.6136363636365,-6787.295454545455,3485.931818181818,2858.840909090909,3
2024-06-13 20:22:56,0.03054326214,0.1490511149,0.6890559793,9.799467087,-3.816357613,1.527500629,-687.7777777777778,891.4444444444445,-691.1111111111111,-7221.166666666667,3658.6111111111113,2455.6666666666665,3
2024-06-13 20:22:56,1.178969979,-0.003665191587,0.8869763613,8.877699852,-5.461174011,2.298433542,-548.0425531914893,228.82978723404256,-1045.6170212765958,-7065.978723404255,3449.9148936170213,2571.1702127659573,3
2024-06-13 20:22:56,1.178969979,-0.003665191587,0.8869763613,8.877699852,-5.461174011,2.298433542,80.96511627906978,310.3488372093023,-1314.5348837209303,-7118.139534883721,3339.651162790697,2248.3488372093025,3
2024-06-13 20:22:56,0.1747074574,0.6548475623,1.710422635,7.393294811,-6.72531271,3.761290789,-30.6896551724138,-131.0689655172414,-993.1379310344828,-7382.758620689655,3022.655172413793,2335.793103448276,3
2024-06-13 20:22:56,0.1747074574,0.6548475623,1.710422635,7.393294811,-6.72531271,3.761290789,-61.63636363636363,-254.1136363636364,-709.7727272727273,-7322.818181818182,3157.931818181818,2537.318181818182,3
2024-06-13 20:22:57,-0.283441484,0.8820894361,2.003638029,5.920860767,-8.492233276,4.505887508,-252.5,-225.5,-654.0,-7476.5,3051.0,2560.0,3
2024-06-13 20:22:57,0.1710422635,0.4434881806,2.03662467,1.482010841,-7.503427982,6.198588371,-191.5824175824176,-7.340659340659343,-709.1318681318681,-7661.56043956044,2838.6043956043954,2359.714285714286,3
2024-06-13 20:22:57,0.1710422635,0.4434881806,2.03662467,1.482010841,-7.503427982,6.198588371,-242.16666666666663,-428.9880952380952,-461.32142857142856,-7693.238095238095,2353.5238095238096,2520.7738095238096,3
2024-06-13 20:22:57,-0.3567453027,0.3555235863,1.685988069,0.3950432837,-8.626308441,3.835511208,-501.8640776699029,-278.1747572815534,-604.4854368932039,-7751.689320388349,2395.6116504854367,2783.6796116504856,3
2024-06-13 20:22:57,0.07086037099,-0.06963863969,0.728151381,-1.335964561,-8.216899872,4.316745758,-705.7448275862068,-349.848275862069,-399.1724137931034,-7762.351724137931,2494.179310344828,2926.4137931034484,3
2024-06-13 20:22:57,0.07086037099,-0.06963863969,0.728151381,-1.335964561,-8.216899872,4.316745758,-719.2857142857143,80.57142857142857,-213.28571428571428,-7397.571428571428,2268.714285714286,2883.1428571428573,3
2024-06-13 20:22:57,-0.1233947799,0.07696902007,0.4153883755,-1.850717902,-8.334216118,3.529053211,-485.8965517241379,-283.58620689655174,568.2413793103449,-7678.689655172414,2305.793103448276,3139.793103448276,3
2024-06-13 20:22:57,-0.1233947799,0.07696902007,0.4153883755,-1.850717902,-8.334216118,3.529053211,-238.4943820224719,94.48314606741572,84.03370786516854,-7429.101123595506,2887.348314606741,3036.6516853932585,3
2024-06-13 20:22:57,-0.01343903504,-0.1295034289,0.5754350424,-0.8858546019,-9.208099365,2.470816135,-408.0574712643678,382.2528735632184,-129.183908045977,-7438.896551724138,2427.551724137931,2758.310344827586,3
2024-06-13 20:22:57,0.3237585723,0.1075122803,0.1844813079,-4.378994942,-4.414907932,7.048529625,-169.0,430.5,401.5,-7756.0,2366.0,2802.0,3
2024-06-13 20:22:58,0.3237585723,0.1075122803,0.1844813079,-4.378994942,-4.414907932,7.048529625,-185.79310344827587,6.275862068965518,18.51724137931035,-7449.586206896552,3125.9655172413795,2969.0,3
2024-06-13 20:22:58,0.7257078886,-0.68539083,0.522900641,-2.688688517,-6.809109688,5.997475147,-229.1685393258427,-74.26966292134831,-495.1011235955056,-7461.449438202248,2801.752808988764,3089.7191011235955,3
2024-06-13 20:22:58,-1.693318486,0.68539083,-0.3494149148,-4.244919777,-6.95276165,4.371812344,-308.3529411764706,545.0941176470589,245.0,-7618.011764705882,2215.4117647058824,2887.4823529411765,3
2024-06-13 20:22:58,-1.693318486,0.68539083,-0.3494149148,-4.244919777,-6.95276165,4.371812344,248.42045454545456,-51.59090909090909,545.8409090909091,-7710.784090909091,2863.568181818182,2902.8636363636365,3
2024-06-13 20:22:58,1.318247199,-0.3836233616,0.2382374406,-1.853112102,-2.707842112,6.378153324,32.59090909090909,104.45454545454544,-437.4431818181818,-7501.829545454545,2549.3636363636365,2880.659090909091,3
2024-06-13 20:22:58,1.318247199,-0.3836233616,0.2382374406,-1.853112102,-2.707842112,6.378153324,288.0574712643678,-40.79310344827586,97.86206896551724,-7784.448275862069,2344.862068965517,2475.4597701149423,3
2024-06-13 20:22:58,-3.838677168,1.073901057,-2.901609898,1.793257117,-7.232883453,2.365471363,-95.2528735632184,-296.8620689655172,441.5862068965517,-7621.977011494253,2829.114942528736,2564.3793103448274,3
2024-06-13 20:22:58,-0.9101892114,1.530828357,-5.463578701,8.561665535,-8.851364136,1.553836942,-279.8387096774194,-196.2258064516129,-328.1935483870968,-7441.290322580645,2666.548387096774,2953.5806451612902,3
2024-06-13 20:22:58,-0.9101892114,1.530828357,-5.463578701,8.561665535,-8.851364136,1.553836942,-203.66666666666663,-251.20238095238096,-178.9047619047619,-7730.880952380952,2226.9166666666665,2930.6071428571427,3
2024-06-13 20:22:58,0.9908234477,0.7440338731,-5.896071434,16.96052551,-8.049305916,-0.2202665508,41.52,-242.4,325.8,-7645.56,2534.44,3090.04,3
2024-06-13 20:22:59,3.600439787,-0.8429940343,-0.3054326177,10.35971069,-3.655946016,-0.248996973,-95.05142857142856,-339.54285714285714,491.5142857142857,-7550.131428571429,2715.5828571428574,2974.04,3
2024-06-13 20:22:59,3.600439787,-0.8429940343,-0.3054326177,10.35971069,-3.655946016,-0.248996973,-573.4659090909091,94.97727272727272,-575.6818181818181,-7348.136363636364,2255.9886363636365,3130.818181818182,3
2024-06-13 20:22:59,-2.842966795,0.1685988009,0.8063421249,8.202534676,-3.332728863,4.05338335,276.0,124.15555555555557,205.9111111111111,-7350.911111111111,2486.133333333333,2950.688888888889,3
2024-06-13 20:22:59,-2.842966795,0.1685988009,0.8063421249,8.202534676,-3.332728863,4.05338335,-354.5869565217391,-97.43478260869566,-172.45652173913044,-7470.695652173913,3080.1739130434785,3040.4347826086955,3
2024-06-13 20:22:59,0.389732033,0.5754350424,1.842369556,11.20725822,-1.656787634,3.327940464,-42.56164383561644,67.0958904109589,-278.93150684931504,-7417.630136986301,2224.095890410959,2990.904109589041,3
2024-06-13 20:22:59,-0.5033529401,0.3433062732,1.618792892,9.244012833,-2.595314741,3.236960649,194.4246575342466,59.56164383561644,-20.02739726027397,-7389.54794520548,2266.5616438356165,2998.4383561643835,3
2024-06-13 20:22:59,-0.5033529401,0.3433062732,1.618792892,9.244012833,-2.595314741,3.236960649,-12.29479768786127,216.8728323699422,-317.8612716763006,-7461.849710982658,2922.4046242774566,2983.4624277456646,3
2024-06-13 20:22:59,0.6609562039,-0.2467895597,-0.8393288255,7.445967197,-2.542642117,3.12203908,-189.17341040462424,40.57225433526011,-534.6242774566474,-7471.676300578035,2865.1791907514453,2960.9190751445085,3
2024-06-13 20:22:59,0.03909537569,-0.4007275999,-1.747074604,10.20648193,-2.894589901,3.404554844,514.635294117647,-63.62352941176471,297.2117647058824,-7399.211764705882,2518.458823529412,2908.211764705882,3
2024-06-13 20:22:59,0.03909537569,-0.4007275999,-1.747074604,10.20648193,-2.894589901,3.404554844,346.7241379310345,-64.72413793103448,-211.11494252873564,-7458.643678160919,2845.229885057471,3101.172413793104,3
2024-06-13 20:23:00,0.58276546,-0.2944370508,-0.125838235,9.569623947,-2.432508945,3.773261786,337.8021978021978,-44.25274725274724,-348.35164835164835,-7393.549450549451,2340.4395604395604,2724.923076923077,3
2024-06-13 20:23:00,0.58276546,-0.2944370508,-0.125838235,9.569623947,-2.432508945,3.773261786,532.3375,313.0625,661.7375,-7340.9875,2547.5,2774.2625,3
2024-06-13 20:23:00,1.601688623,0.003665191587,1.205847979,9.390059471,-2.418143749,2.669534922,-499.5274725274725,327.4065934065934,-282.6703296703297,-7326.241758241758,3165.5054945054944,2789.054945054945,3
2024-06-13 20:23:00,-0.05742133409,0.2761110961,0.9553932548,9.512163162,-2.456450939,1.613691926,-527.6511627906976,292.8837209302326,-217.67441860465115,-7372.139534883721,2311.4651162790697,2866.767441860465,3
2024-06-13 20:23:00,-0.05742133409,0.2761110961,0.9553932548,9.512163162,-2.456450939,1.613691926,-307.9887640449438,492.2022471910112,147.17977528089887,-7699.977528089887,2549.0337078651687,2748.8651685393256,3
2024-06-13 20:23:00,0.2614503205,-0.2003637999,0.3567453027,9.344569206,-2.626439333,1.989581585,-776.5333333333333,225.1555555555556,186.44444444444449,-7364.111111111111,3029.3777777777777,2862.177777777778,3
2024-06-13 20:23:00,0.3909537494,-0.3494149148,-0.1759291887,9.267954826,-2.693476915,2.327163935,-753.0,291.5,28.0,-7501.0,2733.5,2807.5,3
2024-06-13 20:23:00,0.3909537494,-0.3494149148,-0.1759291887,9.267954826,-2.693476915,2.327163935,64.375,349.75,477.875,-7400.75,2619.0,2515.75,3
2024-06-13 20:23:00,-0.235793978,-0.25167647,-1.0995574,9.373299599,-2.808398485,2.240972757,-120.3068181818182,174.8068181818182,258.85227272727275,-7337.022727272727,3248.0,2757.056818181818,3
2024-06-13 20:23:00,-0.235793978,-0.25167647,-1.0995574,9.373299599,-2.808398485,2.240972757,-429.4157303370787,500.5505617977528,-272.94382022471905,-7448.303370786517,3065.629213483146,2937.168539325842,3
2024-06-13 20:23:01,-0.2981022298,-0.1429424733,-0.8100073338,10.24718285,-3.165134668,2.059013367,-416.0659340659341,1139.4835164835165,-56.06593406593407,-7132.3626373626375,3137.7032967032965,2680.1098901098903,3
2024-06-13 20:23:01,-0.1869247705,-0.04520402849,0.06475171447,9.411606789,-3.055001259,1.917755604,-561.578947368421,1890.368421052632,279.7368421052632,-7558.736842105263,3406.842105263158,2324.842105263158,3
2024-06-13 20:23:01,-0.1869247705,-0.04520402849,0.06475171447,9.411606789,-3.055001259,1.917755604,-237.8947368421053,1646.5087719298244,-174.64912280701753,-7687.684210526316,3420.877192982456,2355.5438596491226,3
2024-06-13 20:23:01,0.287106663,0.06352998316,1.033583999,10.29506683,-2.741360903,1.807622313,1229.943820224719,1513.056179775281,-672.2584269662922,-7746.528089887641,2564.370786516854,1482.1685393258426,3
2024-06-13 20:23:01,0.3017674387,0.08796459436,1.121548533,9.931148529,-2.63841033,1.532289028,117.55172413793105,1288.655172413793,-52.37931034482759,-8018.620689655172,2726.344827586207,984.103448275862,3
2024-06-13 20:23:01,0.3017674387,0.08796459436,1.121548533,9.931148529,-2.63841033,1.532289028,-345.7386363636364,179.1818181818182,-696.6590909090909,-7872.340909090909,2706.7386363636365,1140.4204545454545,3
2024-06-13 20:23:01,0.2150245607,-0.0354301855,0.3359758854,9.452308655,-2.693476915,1.673547029,-416.6516853932584,278.7752808988764,-378.85393258426967,-7711.224719101124,2187.213483146068,741.561797752809,3
2024-06-13 20:23:01,0.2150245607,-0.0354301855,0.3359758854,9.452308655,-2.693476915,1.673547029,-459.0,327.7142857142857,480.8571428571429,-7958.571428571428,2599.1428571428573,731.8571428571429,3
2024-06-13 20:23:01,0.0232128799,-0.1270599663,-0.3885102868,9.502586365,-2.777273893,1.814804912,-577.7586206896551,356.0919540229885,-229.81609195402305,-7465.528735632184,3176.0919540229884,1107.7931034482758,3
2024-06-13 20:23:01,-0.1857030392,-0.06108652428,-0.864985168,9.770736694,-3.007117271,2.027888775,-449.5697674418605,188.9883720930233,-435.7674418604651,-7564.220930232558,2196.5697674418607,882.7441860465117,3
2024-06-13 20:23:02,-0.1857030392,-0.06108652428,-0.864985168,9.770736694,-3.007117271,2.027888775,-54.22727272727273,-86.77272727272728,171.6818181818182,-7995.727272727273,2519.8636363636365,697.5,3
2024-06-13 20:23:02,-0.1185078546,-0.00244346098,-0.581543684,9.703699112,-2.887407303,1.848323703,121.4494382022472,-297.7752808988764,-611.561797752809,-7456.404494382023,2814.9101123595506,1046.8202247191011,3
2024-06-13 20:23:02,-0.1979203373,-0.00122173049,-0.09040805697,9.615114212,-3.002328873,1.750161409,-298.20212765957444,261.4574468085106,-105.0744680851064,-7703.563829787234,2413.436170212766,821.5531914893617,3
2024-06-13 20:23:02,-0.1979203373,-0.00122173049,-0.09040805697,9.615114212,-3.002328873,1.750161409,552.1764705882352,-139.47058823529412,489.11764705882354,-7893.176470588235,2560.8823529411766,665.4705882352941,3
2024-06-13 20:23:02,0.05742133409,-0.03054326214,0.3078760803,9.751583099,-2.724601507,1.924938202,602.7647058823529,-157.7058823529412,456.1764705882353,-7693.764705882353,2703.823529411765,673.7058823529412,3
2024-06-13 20:23:02,0.05742133409,-0.03054326214,0.3078760803,9.751583099,-2.724601507,1.924938202,-270.9418604651163,-486.27906976744185,-808.1046511627907,-7661.593023255814,2292.6976744186045,1104.546511627907,3
2024-06-13 20:23:02,0.2443460971,0.00122173049,0.5583308339,9.696516991,-2.726995707,1.924938202,49.03448275862069,-46.19540229885058,-95.67816091954025,-7987.666666666667,2521.436781609196,919.2988505747128,3
2024-06-13 20:23:02,0.3103195429,0.007330383174,0.2981022298,9.612719536,-2.588132143,1.771709204,-314.8636363636364,-193.72727272727275,-449.7272727272728,-7608.272727272727,2603.272727272727,1200.4318181818182,3
2024-06-13 20:23:02,0.3103195429,0.007330383174,0.2981022298,9.612719536,-2.588132143,1.771709204,-172.25,-535.75,-833.5454545454545,-7571.659090909091,2329.204545454545,1347.0681818181818,3
2024-06-13 20:23:02,0.17715092,-0.0171042271,-0.003665191587,9.684545517,-2.645592928,1.683123827,-246.9767441860465,-92.4186046511628,184.90697674418604,-7650.255813953488,2851.767441860465,1176.046511627907,3
2024-06-13 20:23:03,0.00244346098,-0.06719517708,-0.1747074574,9.497797966,-2.767697096,1.752555609,-286.44444444444446,-332.2,-833.8444444444444,-7589.711111111111,2652.4,1203.911111111111,3
2024-06-13 20:23:03,0.00244346098,-0.06719517708,-0.1747074574,9.497797966,-2.767697096,1.752555609,-395.4285714285714,-225.57142857142856,-588.0,-7609.285714285715,2428.714285714286,1227.857142857143,3
2024-06-13 20:23:03,-0.02565634064,-0.07086037099,-0.2981022298,9.646238327,-2.7533319,1.927332401,-96.6,114.91111111111113,-2.3999999999999773,-7952.155555555555,2262.0222222222224,1294.9333333333334,3
2024-06-13 20:23:03,-0.02565634064,-0.07086037099,-0.2981022298,9.646238327,-2.7533319,1.927332401,-26.678160919540232,-202.0114942528736,47.56321839080459,-7705.471264367816,2656.586206896552,1420.1494252873565,3
2024-06-13 20:23:03,-0.1026253626,0.0109955743,-0.1123992056,9.588777542,-2.815581083,1.886630893,-146.45054945054946,-129.86813186813183,-322.032967032967,-7711.362637362637,2204.043956043956,1450.857142857143,3
2024-06-13 20:23:03,-0.07819075137,0.03298672289,0.0109955743,9.660603523,-2.796427488,1.800439715,-138.27906976744185,240.16279069767444,554.6395348837209,-7830.127906976744,2062.558139534884,1182.7325581395348,3
2024-06-13 20:23:03,-0.07819075137,0.03298672289,0.0109955743,9.660603523,-2.796427488,1.800439715,189.38636363636363,112.5,370.52272727272725,-7699.75,2685.25,1240.4318181818182,3
2024-06-13 20:23:03,0.02443460934,0.004886921961,0.1123992056,9.708487511,-2.734178305,1.752555609,-335.7701149425287,-151.97701149425288,-857.8505747126437,-7576.448275862069,2391.0459770114944,1356.6781609195402,3
2024-06-13 20:23:03,0.0415388383,0.02199114859,0.1478293836,9.629479408,-2.604891539,1.908178806,-270.5056179775281,-106.29213483146069,307.82022471910113,-8002.29213483146,2154.247191011236,1175.9775280898875,3
2024-06-13 20:23:03,0.0415388383,0.02199114859,0.1478293836,9.629479408,-2.604891539,1.908178806,-377.2637362637363,349.9340659340659,664.6978021978022,-7592.175824175824,3101.664835164835,1179.3186813186812,3
2024-06-13 20:23:04,0.08918632567,0.0109955743,0.02443460934,9.631873131,-2.664746523,1.78128612,-419.0219780219781,189.4945054945055,-103.9835164835165,-7686.681318681319,2952.763736263736,1288.10989010989,3
2024-06-13 20:23:04,0.08918632567,0.0109955743,0.02443460934,9.631873131,-2.664746523,1.78128612,-8.989189189189188,271.96216216216214,269.9081081081081,-8000.216216216216,2407.908108108108,1336.994594594595,3
2024-06-13 20:23:04,0.04398229718,-0.008552113548,-0.02199114859,9.610325813,-2.655169725,1.793257117,-44.66486486486487,96.827027027027,473.15135135135137,-7986.7027027027025,2711.1513513513514,1354.8324324324324,3
2024-06-13 20:23:04,0.01343903504,-0.02565634064,-0.05864306539,9.612719536,-2.738966703,1.82198751,-188.2631578947368,-411.3157894736842,-574.6842105263158,-7771.894736842105,2342.7105263157896,1415.0526315789473,3
2024-06-13 20:23:04,0.01343903504,-0.02565634064,-0.05864306539,9.612719536,-2.738966703,1.82198751,-83.59550561797752,205.73033707865167,348.5280898876405,-7999.0,2296.011235955056,1205.0112359550562,3
2024-06-13 20:23:04,-0.02076941915,-0.02443460934,-0.01954768784,9.672574997,-2.772485495,1.905784607,-203.07954545454544,4.72727272727272,26.159090909090907,-7967.795454545455,2672.909090909091,1254.125,3
2024-06-13 20:23:04,-0.0109955743,-0.01588249579,-0.02076941915,9.660603523,-2.707842112,1.8579005,-354.21649484536084,-243.77319587628864,-730.7731958762886,-7744.01030927835,2618.907216494845,1556.340206185567,3
2024-06-13 20:23:04,-0.0109955743,-0.01588249579,-0.02076941915,9.660603523,-2.707842112,1.8579005,-60.84137931034482,201.75172413793103,-203.2,-7836.5931034482755,2113.537931034483,1167.3724137931035,3
2024-06-13 20:23:04,-0.004886921961,0.00244346098,-0.01832595654,9.742006302,-2.67432332,1.826775908,-354.85185185185185,533.7407407407408,-589.7777777777778,-7953.333333333333,2693.345679012345,1195.148148148148,3
2024-06-13 20:23:04,-0.00122173049,0.006108652335,0.0,9.617507935,-2.7533319,1.738190413,-431.25531914893617,29.59574468085107,-771.4893617021277,-7659.63829787234,2172.425531914894,1268.659574468085,3
2024-06-13 20:23:05,-0.00122173049,0.006108652335,0.0,9.617507935,-2.7533319,1.738190413,-395.5581395348837,453.8372093023256,-468.5581395348837,-7739.883720930233,1841.3488372093025,1043.4186046511627,3
2024-06-13 20:23:05,0.01588249579,-0.0109955743,0.00122173049,9.617507935,-2.664746523,1.831564307,-289.17977528089887,500.7640449438202,209.247191011236,-8030.191011235955,2304.7078651685392,1036.247191011236,3
2024-06-13 20:23:05,0.01588249579,-0.0109955743,0.00122173049,9.617507935,-2.664746523,1.831564307,1.6179775280898876,176.87640449438203,-99.23595505617976,-8024.696629213483,2107.7865168539324,984.2808988764044,3
2024-06-13 20:23:05,0.02076941915,-0.01588249579,0.01343903504,9.655815125,-2.734178305,1.817199111,180.5287356321839,-142.58620689655172,379.6666666666667,-8007.022988505747,2062.4137931034484,737.6206896551724,3
2024-06-13 20:23:05,0.01221730467,-0.004886921961,0.0171042271,9.662998199,-2.705447912,1.78368032,-164.47252747252747,31.15384615384616,370.967032967033,-7732.67032967033,2744.120879120879,912.2417582417582,3
2024-06-13 20:23:05,0.01221730467,-0.004886921961,0.0171042271,9.662998199,-2.705447912,1.78368032,16.772727272727252,-350.59090909090907,-494.2272727272728,-7605.318181818182,2375.909090909091,921.181818181818,3
2024-06-13 20:23:05,-0.008552113548,0.006108652335,0.004886921961,9.588777542,-2.667140722,1.800439715,259.4157303370786,-28.719101123595507,160.6067415730337,-7817.70786516854,2245.123595505618,1060.0786516853932,3
2024-06-13 20:23:05,-0.008552113548,0.006108652335,0.004886921961,9.641449928,-2.650381327,1.735796213,36.96629213483146,-19.685393258426966,132.17977528089887,-7661.91011235955,2505.370786516854,932.370786516854,3
2024-06-13 20:23:05,-0.008552113548,-0.00122173049,-0.01832595654,9.641449928,-2.650381327,1.735796213,-351.4255319148936,-199.7234042553192,-407.3617021276596,-7605.723404255319,2316.808510638298,949.468085106383,3
2024-06-13 20:23:05,-0.0232128799,0.01588249579,-0.00122173049,9.639056206,-2.698265314,1.707065821,-361.531914893617,-169.40425531914894,-429.7021276595744,-7625.404255319149,2228.5106382978724,943.0851063829788,3
2024-06-13 20:23:06,-0.0232128799,0.01588249579,-0.00122173049,9.639056206,-2.698265314,1.707065821,-224.6172839506173,-172.49382716049382,134.320987654321,-7827.641975308642,2803.061728395062,1115.358024691358,3
2024-06-13 20:23:06,-0.03176499158,0.01221730467,0.004886921961,9.648633003,-2.667140722,1.786074519,-575.7885714285715,-107.36,-695.7657142857142,-7589.931428571428,2212.782857142857,1207.2457142857145,3
2024-06-13 20:23:06,-0.007330383174,-0.007330383174,-0.007330383174,9.617507935,-2.765302896,1.750161409,-555.8913043478261,282.45652173913044,-540.0869565217391,-7887.489130434783,1813.0217391304348,975.2717391304348,3
2024-06-13 20:23:06,-0.007330383174,-0.007330383174,-0.007330383174,9.617507935,-2.765302896,1.750161409,60.6,12.355555555555554,70.71111111111111,-7864.111111111111,2517.911111111111,950.3555555555556,3
2024-06-13 20:23:06,0.008552113548,-0.003665191587,0.00122173049,9.631873131,-2.782062292,1.786074519,-296.390243902439,-371.0609756097561,-681.6951219512196,-7630.256097560976,2337.682926829268,1295.9634146341464,3
2024-06-13 20:23:06,0.02076941915,-0.003665191587,0.01221730467,9.715670586,-2.726995707,1.675941229,338.4782608695652,-238.7826086956522,-145.6304347826087,-8049.945652173913,1498.5760869565215,1291.9565217391305,3
2024-06-13 20:23:06,0.02076941915,-0.003665191587,0.01221730467,9.715670586,-2.726995707,1.675941229,122.95505617977528,287.96629213483146,457.2921348314607,-7845.494382022472,2399.213483146068,1009.9887640449438,3
2024-06-13 20:23:06,0.0415388383,-0.00122173049,0.00122173049,9.58638382,-2.719813108,1.726219416,-53.146067415730336,-233.76404494382024,-426.5393258426966,-7754.528089887641,2019.6516853932585,1203.6179775280898,3
2024-06-13 20:23:06,0.0415388383,-0.00122173049,0.00122173049,9.58638382,-2.719813108,1.726219416,-44.52325581395349,-75.98837209302326,21.19767441860465,-7994.837209302325,2414.0813953488373,1318.0581395348838,3
2024-06-13 20:23:06,0.0415388383,-0.01343903504,-0.004886921961,9.567230225,-2.738966703,1.740584612,330.5,-301.5,-158.0,-8003.5,2345.0,1219.5,3
2024-06-13 20:23:07,0.04642575979,-0.01588249579,0.02565634064,9.753977776,-2.817975283,1.723825216,573.2222222222222,-250.8333333333333,-401.8888888888889,-8044.166666666667,2073.277777777778,1552.5555555555557,3
2024-06-13 20:23:07,0.04642575979,-0.01588249579,0.02565634064,9.753977776,-2.817975283,1.723825216,724.1685393258427,-28.269662921348328,-760.314606741573,-7699.752808988764,2087.8651685393256,1541.314606741573,3
2024-06-13 20:23:07,0.06719517708,-0.0171042271,0.0293215327,9.844957352,-2.671929121,1.769315004,782.6279069767442,437.1627906976744,-345.9767441860465,-7868.53488372093,2113.232558139535,1159.5348837209303,3
2024-06-13 20:23:07,0.06719517708,-0.0171042271,0.0293215327,9.617507935,-2.880224705,1.582567334,676.7727272727273,-310.5,38.31818181818181,-7824.227272727273,1725.7272727272727,1034.5454545454545,3
2024-06-13 20:23:07,-0.1722639948,0.1539380401,-0.07574728876,9.617507935,-2.880224705,1.582567334,1093.3736263736264,87.96703296703296,-564.4615384615385,-8182.032967032967,1218.3956043956043,590.3406593406594,3
2024-06-13 20:23:07,-0.04642575979,0.07819075137,-0.2076941878,9.682151794,-2.995146275,1.453280449,-664.8543689320388,289.56310679611653,311.6699029126213,-8411.582524271844,1010.980582524272,250.6990291262136,3
