Timestamp,Gyro_x_x,Gyro_y_x,Gyro_z_x,Acc_x_x,Acc_y_x,Acc_z_x,Gyro_x_y,Gyro_y_y,Gyro_z_y,Acc_x_y,Acc_y_y,Acc_z_y,combined_action_num
2024-06-13 20:08:25,0.0415388383,-0.1270599663,-0.05619960278,-6.014234543,-6.198588371,2.865859509,-362.55,357.6,-267.25,-8050.0,2074.5,1386.65,2
2024-06-13 20:08:25,-0.290771842,0.2590068579,0.1563815027,-7.814674377,-7.28555584,2.873042107,-265.747572815534,365.41747572815535,-278.43689320388347,-7824.058252427184,2058.6116504854367,1348.1650485436894,2
2024-06-13 20:08:25,-0.290771842,0.2590068579,0.1563815027,-7.814674377,-7.28555584,2.873042107,-268.6470588235294,36.1764705882353,-94.23529411764706,-7817.35294117647,2108.529411764706,1327.764705882353,2
2024-06-13 20:08:25,-0.235793978,0.4923573732,-0.2089159191,-7.161057472,-5.133168221,3.536235809,-311.26605504587155,-66.43119266055047,-7.385321100917437,-8063.678899082569,2154.1743119266057,1348.605504587156,2
2024-06-13 20:08:25,-0.235793978,0.4923573732,-0.2089159191,-7.161057472,-5.133168221,3.536235809,-320.8679245283019,-12.58490566037736,47.87735849056604,-8056.028301886792,2035.0235849056603,1296.410377358491,2
2024-06-13 20:08:25,0.2089159191,-0.1404990107,-0.1014036313,-5.930437565,-5.655104637,1.508347034,-311.4339622641509,74.20754716981133,67.68867924528303,-8043.764150943396,1858.1367924528304,1218.580188679245,2
2024-06-13 20:08:25,0.6426302195,-0.4764748812,0.5485569835,-7.340622425,-6.694188118,3.433285236,-136.98305084745763,-20.372881355932204,-83.50847457627118,-8049.610169491525,2164.762711864407,1337.2372881355932,2
2024-06-13 20:08:25,0.6426302195,-0.4764748812,0.5485569835,-7.340622425,-6.694188118,3.433285236,-3.542168674698793,-50.89156626506024,-44.22891566265061,-7880.180722891566,2024.8072289156623,1305.9156626506024,2
2024-06-13 20:08:25,-0.5363397002,-0.5656611919,0.5021312237,-7.043741226,-8.046912193,-0.7924807668,-257.95454545454544,54.31818181818181,42.54545454545455,-7999.590909090909,1954.5,1350.1818181818182,2
2024-06-13 20:08:25,-0.4043927789,-0.7929030657,0.5925393105,-7.443572998,-5.19781208,5.291185856,20.65384615384616,-90.0,-83.36538461538461,-8038.2692307692305,1993.5384615384608,1312.4423076923076,2
2024-06-13 20:08:26,-0.4043927789,-0.7929030657,0.5925393105,-7.443572998,-5.19781208,5.291185856,30.46153846153846,70.38461538461539,60.92307692307692,-8035.509615384615,1996.384615384616,1332.8365384615386,2
2024-06-13 20:08:26,0.864985168,-0.2333505303,0.1600466967,-6.83784008,-5.676652431,5.485116005,17.0,68.4,36.13333333333333,-8019.266666666666,1946.4,1362.4666666666667,2
2024-06-13 20:08:26,0.864985168,-0.2333505303,0.1600466967,-6.83784008,-5.676652431,5.485116005,55.30769230769231,101.84615384615384,-84.48076923076923,-8010.576923076923,2002.2884615384608,1386.2692307692307,2
2024-06-13 20:08:26,0.3188716471,0.1014036313,0.2614503205,-7.256825447,-4.299986362,4.228160381,-31.152380952380952,-60.66666666666666,-42.49523809523809,-7994.457142857143,2277.885714285714,1397.9333333333334,2
2024-06-13 20:08:26,0.2174680233,0.05375614017,-0.05742133409,-6.890512466,-4.443638325,4.8291049,-256.44554455445547,-0.6237623762376234,79.94059405940594,-8021.40594059406,2067.6930693069307,1364.069306930693,2
2024-06-13 20:08:26,0.2174680233,0.05375614017,-0.05742133409,-6.890512466,-4.443638325,4.8291049,78.48076923076923,-86.6826923076923,86.59615384615384,-7951.451923076923,2064.625,1343.375,2
2024-06-13 20:08:26,0.08063421398,-0.03176499158,-0.1172861308,-6.83784008,-4.134786129,5.377377033,89.33962264150944,48.0377358490566,78.23584905660377,-8042.509433962264,2303.367924528302,1365.0188679245282,2
2024-06-13 20:08:26,0.6194173694,-0.00244346098,-0.01221730467,-6.969521046,-3.897760391,4.683058739,100.66037735849056,15.962264150943398,-247.2358490566038,-7959.490566037736,2015.632075471698,1398.9811320754718,2
2024-06-13 20:08:26,0.6194173694,-0.00244346098,-0.01221730467,-6.969521046,-3.897760391,4.683058739,-258.76,-28.12,-3.2799999999999727,-7989.92,1978.88,1356.8,2
2024-06-13 20:08:26,0.4398229718,-0.1869247705,0.06963863969,-6.964732647,-4.319139957,5.908889771,-315.90291262135923,16.640776699029118,-238.0194174757281,-8041.291262135922,2140.5631067961167,1315.1456310679612,2
2024-06-13 20:08:27,0.4398229718,-0.1869247705,0.06963863969,-6.964732647,-4.319139957,5.908889771,-312.1559633027523,-23.02752293577981,-20.55963302752295,-7853.651376146789,2162.3394495412845,1300.3119266055046,2
2024-06-13 20:08:27,0.4129449129,-0.06963863969,0.07086037099,-7.311892033,-4.551377296,5.937620163,10.16326530612245,-104.41836734693878,-91.41836734693878,-8009.938775510204,2013.867346938776,1345.061224489796,2
2024-06-13 20:08:27,0.1111774743,-0.2247984111,-0.0720821023,-6.670246124,-4.393360138,4.405331135,-73.66355140186917,64.22429906542055,118.35514018691588,-8043.355140186916,2220.551401869159,1297.196261682243,2
2024-06-13 20:08:27,0.1111774743,-0.2247984111,-0.0720821023,-6.670246124,-4.393360138,4.405331135,-276.7395833333333,41.47916666666666,-204.88541666666663,-7992.84375,1955.8854166666667,1341.1354166666667,2
2024-06-13 20:08:27,0.1185078546,-0.05742133409,-0.009773843922,-7.048529625,-5.085284233,5.037400246,-94.23809523809524,-74.53968253968253,-69.46031746031747,-8031.920634920635,2045.7619047619048,1153.5555555555557,2
2024-06-13 20:08:27,-0.06475171447,-0.009773843922,-0.1246165112,-7.596801758,-5.262455463,4.65193367,61.0875,-118.1,-128.1875,-7919.8125,1997.7875,1334.1125,2
2024-06-13 20:08:27,-0.06475171447,-0.009773843922,-0.1246165112,-7.596801758,-5.262455463,4.65193367,-13.24271844660194,81.83495145631068,-145.3106796116505,-8043.281553398058,2116.893203883495,1332.378640776699,2
2024-06-13 20:08:27,-0.3139847219,0.07330382615,-0.02076941915,-6.971915245,-4.340687752,4.187458992,7.55140186915888,-296.68224299065423,-80.85981308411215,-7936.401869158878,2022.0,1280.1121495327102,2
2024-06-13 20:08:27,-0.3139847219,0.07330382615,-0.02076941915,-6.971915245,-4.340687752,4.187458992,-85.73469387755102,96.77551020408164,47.81632653061224,-7989.877551020408,2168.1428571428573,1396.0204081632653,2
2024-06-13 20:08:27,-0.2590068579,0.03298672289,-0.01466076635,-7.496245384,-4.520252705,4.144362926,3.477876106194685,-105.94690265486724,-1.212389380530979,-7909.486725663717,2191.380530973451,1314.7433628318583,2
2024-06-13 20:08:28,-0.3652974069,0.05009094998,0.02565634064,-7.515398979,-4.429273129,3.675099611,69.70652173913044,-342.80434782608694,56.70652173913044,-8023.684782608696,1975.0652173913045,1212.2934782608695,2
2024-06-13 20:08:28,-0.3652974069,0.05009094998,0.02565634064,-7.515398979,-4.429273129,3.675099611,-356.5192307692308,44.36538461538461,94.4326923076923,-7977.442307692308,1980.509615384616,1266.5096153846157,2
2024-06-13 20:08:28,-0.287106663,0.1001819,0.06475171447,-7.077260017,-5.262455463,3.749319792,-229.0196078431373,-104.3921568627451,36.5686274509804,-8043.372549019607,2172.7450980392155,1250.3333333333333,2
2024-06-13 20:08:28,-0.03909537569,0.3995058835,0.3567453027,-8.681375504,-5.018246651,3.7181952,77.20183486238533,-58.36697247706422,-18.08256880733945,-8007.568807339449,2056.302752293578,1544.788990825688,2
2024-06-13 20:08:28,-0.03909537569,0.3995058835,0.3567453027,-8.681375504,-5.018246651,3.7181952,17.84848484848485,-77.75757575757575,118.1919191919192,-7999.868686868687,2358.878787878788,1260.6262626262626,2
2024-06-13 20:08:28,0.9541715384,0.09407325089,0.6572909951,-8.382100105,-4.46279192,2.042253971,-245.22222222222223,-115.4949494949495,76.94949494949495,-7988.868686868687,2065.868686868687,1567.7777777777778,2
2024-06-13 20:08:28,0.9541715384,0.09407325089,0.6572909951,-8.382100105,-4.46279192,2.042253971,-226.47,165.17000000000002,26.0,-8039.12,1984.9,1188.58,2
2024-06-13 20:08:28,0.5791002512,-0.1356120855,0.3408628106,-7.848193169,-3.213018656,3.129221678,-138.61320754716982,-37.64150943396226,99.67924528301889,-8062.179245283019,2165.943396226415,1185.4811320754718,2
2024-06-13 20:08:28,0.5155702829,-0.2150245607,-0.06230825558,-7.333439827,-2.794033289,3.852270603,-292.3867924528301,-92.35849056603774,-77.67924528301887,-8034.820754716981,1964.0566037735848,1201.5188679245282,2
2024-06-13 20:08:28,0.5155702829,-0.2150245607,-0.06230825558,-7.333439827,-2.794033289,3.852270603,-509.5050505050505,-3.5353535353535364,90.11111111111111,-7942.20202020202,2394.8888888888887,1178.6868686868686,2
2024-06-13 20:08:29,-0.07574728876,0.008552113548,0.0,-8.676587105,-2.679111719,4.23294878,-244.921568627451,315.11764705882354,-100.74509803921568,-7832.529411764706,1922.9803921568628,1387.921568627451,2
2024-06-13 20:08:29,0.1600466967,0.007330383174,0.05619960278,-7.963114738,-2.406172752,4.273650169,303.05,-342.9,-75.0,-8016.3,2210.1,1200.4,2
2024-06-13 20:08:29,0.1600466967,0.007330383174,0.05619960278,-7.963114738,-2.406172752,4.273650169,-223.3333333333333,-304.6666666666667,76.66666666666666,-7968.0,2328.333333333333,1249.0,2
2024-06-13 20:08:29,0.1673770845,-0.07330382615,0.06230825558,-8.329427719,-2.631227732,4.225766182,-309.86046511627904,73.6046511627907,36.44186046511628,-7756.53488372093,2384.8372093023254,1584.2790697674418,2
2024-06-13 20:08:29,0.1673770845,-0.07330382615,0.06230825558,-8.329427719,-2.631227732,4.225766182,-196.3689320388349,117.1747572815534,-182.0097087378641,-7898.378640776699,2338.1747572815534,1586.1941747572816,2
2024-06-13 20:08:29,-0.09651670605,0.2064724565,-0.1502728462,-7.649474621,-1.958456993,4.381389141,-300.2173913043478,112.0144927536232,-264.7149758454106,-7998.342995169082,1993.4444444444443,1584.714975845411,2
2024-06-13 20:08:29,0.07330382615,-0.09773843735,0.06475171447,-8.372523308,-1.78368032,4.802768707,-107.42857142857142,111.85714285714286,-91.8095238095238,-7997.952380952381,1982.2857142857144,1585.2380952380952,2
2024-06-13 20:08:29,0.07330382615,-0.09773843735,0.06475171447,-8.372523308,-1.78368032,4.802768707,82.1980198019802,-107.54455445544556,106.26732673267328,-7991.445544554455,2206.4257425742576,1580.7623762376238,2
2024-06-13 20:08:29,0.07330382615,-0.1588249654,-0.1637118906,-8.262390137,-2.379836559,3.969586372,89.43478260869566,57.20289855072464,-19.57971014492753,-7952.270531400966,2209.7971014492755,1594.768115942029,2
2024-06-13 20:08:29,0.25167647,-0.05986479297,0.06963863969,-8.353369713,-1.944091797,4.726154327,65.44859813084112,-127.0,-51.00934579439252,-7958.8317757009345,2230.2616822429904,1602.9158878504672,2
2024-06-13 20:08:30,0.25167647,-0.05986479297,0.06963863969,-8.353369713,-1.944091797,4.726154327,-315.6448598130841,-27.67289719626168,78.96261682242991,-7655.355140186916,2408.7383177570096,1618.766355140187,2
2024-06-13 20:08:30,0.1832595766,0.0354301855,0.06230825558,-7.702147007,-2.767697096,4.304774761,2.526315789473685,110.94736842105264,100.05263157894736,-7970.789473684211,2135.894736842105,1604.157894736842,2
2024-06-13 20:08:30,0.1832595766,0.0354301855,0.06230825558,-7.702147007,-2.767697096,4.304774761,-173.9904761904762,89.97142857142856,-64.24761904761905,-7971.114285714286,2258.009523809524,1579.7714285714285,2
2024-06-13 20:08:30,0.1637118906,-0.01466076635,-0.0354301855,-8.468291283,-2.205059767,4.654327869,-104.9126213592233,12.57281553398058,-18.62135922330097,-7749.757281553398,2345.52427184466,1636.8155339805826,2
2024-06-13 20:08:30,0.1270599663,-0.1368338168,0.1356120855,-8.233659744,-2.628833532,4.529829502,-237.7058823529412,92.76470588235294,94.41176470588236,-7976.470588235294,2278.9411764705883,1633.529411764706,2
2024-06-13 20:08:30,0.1270599663,-0.1368338168,0.1356120855,-8.233659744,-2.628833532,4.529829502,-173.22429906542055,79.96261682242991,33.64485981308411,-7954.803738317757,2394.5794392523367,1457.7943925233644,2
2024-06-13 20:08:30,0.2626720667,-0.02443460934,-0.1380555481,-8.094796181,-2.691082716,4.276044369,-181.63636363636363,-58.27272727272727,91.63636363636364,-7664.363636363636,2390.090909090909,1428.4545454545455,2
2024-06-13 20:08:30,-0.09773843735,0.04764748737,0.02443460934,-8.386888504,-3.043030262,4.747702122,-191.65714285714284,-44.91428571428571,-99.11428571428571,-7991.485714285714,2209.3714285714286,1644.428571428571,2
2024-06-13 20:08:30,-0.09773843735,0.04764748737,0.02443460934,-8.386888504,-3.043030262,4.747702122,-84.0,73.92307692307692,30.51923076923077,-7989.807692307692,2422.75,1493.5192307692307,2
2024-06-13 20:08:30,-0.1478293836,0.07086037099,-0.07330382615,-8.379706383,-2.966415882,4.307168961,116.0,20.07692307692308,56.480769230769226,-7980.192307692308,2210.25,1519.4807692307693,2
2024-06-13 20:08:31,-0.1478293836,0.07086037099,-0.07330382615,-8.379706383,-2.966415882,4.307168961,56.51923076923077,321.4519230769231,119.4326923076923,-7670.048076923077,2414.721153846154,1503.0673076923076,2
2024-06-13 20:08:31,0.161268428,-0.00244346098,0.08674286306,-8.008605003,-2.04464817,4.637568474,-107.87313432835822,46.26119402985074,125.77611940298507,-7659.507462686567,2379.216417910448,1459.7910447761194,2
2024-06-13 20:08:31,-0.1014036313,0.1038470939,-0.02565634064,-7.931990147,-3.277662039,4.486733913,-57.25,8.638888888888886,-30.111111111111114,-7980.805555555556,2314.055555555556,1618.8333333333333,2
2024-06-13 20:08:31,-0.1014036313,0.1038470939,-0.02565634064,-7.931990147,-3.277662039,4.486733913,37.53271028037384,89.42990654205607,-2.785046728971963,-7716.177570093458,2327.355140186916,1478.4766355140189,2
2024-06-13 20:08:31,-0.09773843735,0.06230825558,0.01588249579,-8.145073891,-3.227383852,4.266467571,-318.1274509803921,-56.75490196078431,-59.81372549019608,-7665.470588235294,2196.764705882353,1450.0196078431372,2
2024-06-13 20:08:31,-0.9028588533,0.6218608022,-0.1392772794,-7.869740963,-3.071760893,4.599261284,-356.6261682242991,-68.44859813084112,10.598130841121495,-7653.485981308411,2184.299065420561,1448.8971962616822,2
2024-06-13 20:08:31,-0.9028588533,0.6218608022,-0.1392772794,-7.869740963,-3.071760893,4.599261284,-122.710843373494,-66.855421686747,62.62650602409639,-7651.265060240964,2190.5180722891564,1456.7951807228917,2
2024-06-13 20:08:31,-0.7867944241,0.141720742,-0.5326744914,-8.257601738,-3.550601006,2.425326347,-305.0980392156863,-20.25490196078432,100.0392156862745,-7938.78431372549,2235.313725490196,1656.1764705882354,2
2024-06-13 20:08:31,-0.7867944241,0.141720742,-0.5326744914,-8.257601738,-3.550601006,2.425326347,-285.3962264150944,-33.79245283018868,106.33962264150944,-7818.179245283019,2235.0188679245284,1640.7641509433963,2
2024-06-13 20:08:31,-0.5925393105,-0.161268428,-0.3225368559,-8.547300339,-5.066130638,2.15478158,58.46938775510204,-92.46938775510203,-96.86734693877553,-7810.632653061224,2257.9897959183672,1644.7244897959183,2
2024-06-13 20:08:32,0.1001819,-0.2040289938,0.3274237812,-9.354146004,-5.245696068,2.944868088,-280.9126213592233,-75.3495145631068,-313.56310679611653,-7801.543689320389,2294.3009708737864,1628.3980582524273,2
2024-06-13 20:08:32,0.1001819,-0.2040289938,0.3274237812,-9.354146004,-5.245696068,2.944868088,-218.6808510638297,105.45106382978724,34.96595744680851,-7978.229787234042,2399.842553191489,1642.2808510638297,2
2024-06-13 20:08:32,1.164309144,-0.106290549,0.5876523852,-7.35977602,-3.478775024,2.796427488,-101.65957446808513,104.17446808510638,55.81702127659575,-7962.485106382978,2408.778723404256,1645.259574468085,2
2024-06-13 20:08:32,0.00122173049,-0.2150245607,-0.03420845419,-7.685387611,-3.193865061,3.655946016,-329.7763157894737,108.19736842105264,-278.1578947368421,-7677.171052631579,2394.184210526316,1441.907894736842,2
2024-06-13 20:08:32,0.00122173049,-0.2150245607,-0.03420845419,-7.685387611,-3.193865061,3.655946016,-321.3529411764706,14.029411764705882,51.91176470588236,-7880.294117647059,2233.0,1575.235294117647,2
2024-06-13 20:08:32,0.5766568184,-0.1576032341,0.07941248268,-8.147468567,-2.449268341,4.192247391,24.307692307692307,-32.84615384615385,-111.92307692307692,-8003.384615384615,2295.6153846153848,1620.3846153846157,2
2024-06-13 20:08:32,0.5766568184,-0.1576032341,0.07941248268,-8.147468567,-2.449268341,4.192247391,-242.9811320754717,35.867924528301884,-276.1698113207547,-7649.320754716981,2395.433962264151,1489.4905660377358,2
2024-06-13 20:08:32,0.2919935882,-0.03420845419,0.145385921,-7.977479935,-3.236960649,4.005499363,27.803418803418804,-33.0,24.504273504273502,-7940.179487179487,2424.846153846154,1436.042735042735,2
2024-06-13 20:08:32,0.109955743,0.0720821023,-0.05131268129,-8.140285492,-2.188300371,3.883395195,-352.45185185185187,-106.54074074074074,119.53333333333332,-7989.918518518519,2416.451851851852,1417.7111111111112,2
2024-06-13 20:08:32,0.109955743,0.0720821023,-0.05131268129,-8.140285492,-2.188300371,3.883395195,-338.3777777777778,43.0888888888889,106.2,-7989.177777777778,2402.3777777777777,1433.2666666666669,2
2024-06-13 20:08:33,0.01588249579,-0.05253441259,-0.01466076635,-7.706935406,-3.270479441,4.13239193,102.05263157894736,-120.21052631578948,-107.5,-7678.578947368421,2215.315789473684,1456.2894736842106,2
2024-06-13 20:08:33,-0.0171042271,0.0720821023,-0.07819075137,-8.74601841,-3.12203908,4.326322556,77.41176470588235,-106.58823529411764,92.0,-7931.764705882353,2263.058823529412,1460.6470588235295,2
2024-06-13 20:08:33,-0.0171042271,0.0720821023,-0.07819075137,-8.74601841,-3.12203908,4.326322556,-364.1826923076923,30.346153846153847,37.42307692307692,-7697.951923076923,2382.75,1489.9326923076924,2
2024-06-13 20:08:33,0.00244346098,-0.006108652335,0.01343903504,-8.35097599,-2.794033289,4.225766182,59.21782178217822,113.0,111.55445544554456,-7910.524752475248,2217.3564356435645,1510.920792079208,2
2024-06-13 20:08:33,0.00244346098,-0.006108652335,0.01343903504,-8.35097599,-2.794033289,4.225766182,111.4,-11.799999999999995,111.6,-7654.0,2261.4,1568.2,2
2024-06-13 20:08:33,0.08674286306,-0.05375614017,-0.02565634064,-8.762778282,-2.82036972,3.608062029,-187.59803921568627,22.38235294117647,-204.80392156862743,-7611.892156862745,2366.745098039216,1824.362745098039,2
2024-06-13 20:08:33,0.09040805697,0.1221730486,-0.0354301855,-7.314286232,-2.19308877,4.371812344,-61.63106796116506,335.71844660194176,-42.49514563106797,-7855.116504854369,2244.126213592233,1478.776699029126,2
2024-06-13 20:08:33,0.09040805697,0.1221730486,-0.0354301855,-7.314286232,-2.19308877,4.371812344,-78.98076923076923,40.5,52.71153846153845,-7954.961538461538,2235.913461538461,1707.4423076923076,2
2024-06-13 20:08:33,-0.8637634516,0.1576032341,-0.248011291,-7.228095055,-4.072536945,3.742137194,-216.0,-92.6,26.6,-7606.4,2395.0,1830.6,2
2024-06-13 20:08:33,-0.1857030392,-0.4422664344,-0.6414085031,-8.066065788,-3.809175014,4.505887508,-319.4807692307692,-70.17307692307692,84.11538461538461,-7816.201923076923,2256.355769230769,1816.548076923077,2
2024-06-13 20:08:34,-0.1857030392,-0.4422664344,-0.6414085031,-8.066065788,-3.809175014,4.505887508,-286.0808080808081,-87.28282828282829,29.666666666666668,-7649.151515151515,2258.282828282828,1827.888888888889,2
2024-06-13 20:08:34,0.4214970171,-0.07819075137,-0.2382374406,-8.83699894,-4.884171486,4.735731125,-309.47169811320754,-33.83018867924528,90.28301886792453,-7625.490566037736,2227.584905660377,1821.9433962264152,2
2024-06-13 20:08:34,0.4214970171,-0.07819075137,-0.2382374406,-8.83699894,-4.884171486,4.735731125,-68.62857142857143,161.94285714285712,34.714285714285715,-7932.533333333334,2269.1714285714284,1655.4952380952382,2
2024-06-13 20:08:34,0.2504547536,-0.07941248268,0.01954768784,-7.046135426,-4.558559895,4.371812344,-78.40196078431373,177.18627450980392,-184.09803921568627,-7719.058823529412,2324.872549019608,1742.2156862745098,2
2024-06-13 20:08:34,-0.1221730486,0.1111774743,-0.05864306539,-7.417236805,-5.348646641,4.292803764,-366.13,-63.49,88.56,-7864.73,2255.66,1611.34,2
2024-06-13 20:08:34,-0.1221730486,0.1111774743,-0.05864306539,-7.417236805,-5.348646641,4.292803764,-61.37735849056604,-84.29245283018868,30.56603773584905,-7960.037735849057,2268.603773584906,1515.839622641509,2
2024-06-13 20:08:34,-0.1075122803,0.1197295859,0.003665191587,-7.362170219,-4.065354347,4.824316502,-316.7227722772277,77.17821782178217,-9.069306930693068,-7877.633663366337,2317.1188118811883,1842.6930693069307,2
2024-06-13 20:08:34,0.01343903504,-0.1722639948,-0.0232128799,-6.021417141,-4.276044369,4.644751072,-249.71291866028707,107.3444976076555,-164.79425837320574,-7657.291866028708,2296.0574162679427,1842.622009569378,2
2024-06-13 20:08:34,0.01343903504,-0.1722639948,-0.0232128799,-6.021417141,-4.276044369,4.644751072,-114.7846889952153,9.25837320574162,-158.0956937799043,-7664.468899521531,2163.043062200957,1834.9665071770328,2
2024-06-13 20:08:34,-0.01588249579,0.06963863969,-0.07452555746,-7.577648163,-4.79319191,5.140350819,-71.6195652173913,-319.2282608695652,116.53260869565216,-7942.70652173913,2374.1304347826085,1864.9891304347825,2
2024-06-13 20:08:35,-0.01588249579,0.06963863969,-0.07452555746,-7.577648163,-4.79319191,5.140350819,90.07407407407408,65.22222222222223,-62.07407407407408,-7652.888888888889,2231.074074074074,1713.7407407407406,2
2024-06-13 20:08:35,-0.7929030657,0.5119050741,-0.1136209369,-7.249642849,-5.372588634,4.46039772,-299.747572815534,120.747572815534,-273.58252427184465,-7633.077669902913,2406.2815533980583,1758.2912621359224,2
2024-06-13 20:08:35,-0.7929030657,0.5119050741,-0.1136209369,-7.249642849,-5.372588634,4.46039772,-336.6605504587156,-62.1651376146789,95.12844036697248,-7901.220183486239,2199.211009174312,1690.3577981651376,2
2024-06-13 20:08:35,-0.1160643995,0.2382374406,-0.2247984111,-7.584830761,-5.798756599,3.23456645,49.0,-98.36842105263158,69.36842105263158,-7658.684210526316,2220.9473684210525,1693.2631578947369,2
2024-06-13 20:08:35,-0.08552113175,0.1197295859,0.2272418737,-8.046912193,-5.817910194,3.069366693,-358.22222222222223,-76.55555555555556,70.77777777777777,-7674.555555555556,2181.111111111112,1733.4444444444443,2
2024-06-13 20:08:35,-0.08552113175,0.1197295859,0.2272418737,-8.046912193,-5.817910194,3.069366693,-261.75,-109.0,83.75,-7643.0,2240.0,1701.0,2
2024-06-13 20:08:35,0.07330382615,0.109955743,0.4019493461,-7.838616371,-5.477933407,2.916137695,-375.0,-81.60194174757282,-37.126213592233,-7665.747572815534,2248.7281553398057,1700.7184466019417,2
2024-06-13 20:08:35,0.07330382615,0.109955743,0.4019493461,-7.838616371,-5.477933407,2.916137695,-304.5533980582524,-107.75728155339806,113.54368932038837,-7638.058252427184,2184.9417475728155,1732.3009708737864,2
2024-06-13 20:08:35,0.1759291887,-0.02809980139,0.5974262357,-7.987056732,-4.556165695,2.63841033,-164.10679611650485,-53.54368932038835,-9.524271844660191,-7648.019417475728,2264.359223300971,1699.5242718446602,2
2024-06-13 20:08:36,0.5021312237,-0.1734857261,0.1637118906,-7.795520782,-3.287238836,2.93768549,-283.6470588235294,-32.84313725490196,41.13725490196079,-7658.843137254902,2323.8823529411766,1706.7843137254902,2
2024-06-13 20:08:36,0.5021312237,-0.1734857261,0.1637118906,-7.795520782,-3.287238836,2.93768549,-351.1759259259259,-110.25,-116.21296296296296,-7810.324074074074,2295.527777777778,1692.7962962962963,2
2024-06-13 20:08:36,0.381179899,-0.07941248268,-0.00244346098,-7.783549786,-3.636792421,3.287238836,-147.47524752475246,37.17821782178218,-7.099009900990097,-7775.178217821782,2296.920792079208,1691.6534653465346,2
2024-06-13 20:08:36,0.05009094998,-0.01954768784,0.1368338168,-8.55448246,-3.828328609,3.809175014,22.05940594059406,96.46534653465346,-83.52475247524752,-7621.257425742574,2232.841584158416,1711.4356435643565,2
2024-06-13 20:08:36,0.05009094998,-0.01954768784,0.1368338168,-8.55448246,-3.828328609,3.809175014,-95.625,2.25,55.0,-7753.75,2280.125,1674.5,2
2024-06-13 20:08:36,0.6450737119,-0.161268428,-0.00122173049,-8.140285492,-2.97599268,3.557783842,12.923076923076923,91.05128205128204,60.35897435897436,-7636.25641025641,2188.74358974359,1716.1025641025642,2
2024-06-13 20:08:36,0.6450737119,-0.161268428,-0.00122173049,-8.140285492,-2.97599268,3.557783842,-251.1012658227848,-127.54430379746836,-57.32911392405063,-7614.227848101265,2241.8734177215188,1776.6582278481012,2
2024-06-13 20:08:36,0.09773843735,0.1600466967,0.04886921868,-8.513781548,-2.686294317,3.593696833,-161.1359223300971,-100.76699029126212,62.47572815533981,-7619.320388349514,2502.359223300971,1738.7961165048544,2
2024-06-13 20:08:36,0.1014036313,-0.004886921961,0.0109955743,-8.271966934,-3.155557871,3.699041605,-313.6666666666667,-57.66666666666666,100.0,-7649.0,2251.1666666666665,1721.3333333333333,2
2024-06-13 20:08:36,0.1014036313,-0.004886921961,0.0109955743,-8.271966934,-3.155557871,3.699041605,-282.7142857142857,110.28571428571428,-109.71428571428572,-7589.214285714285,2275.714285714286,2033.0,2
2024-06-13 20:08:37,-0.2247984111,0.007330383174,0.01343903504,-8.525752068,-3.19625926,3.576937437,-362.1028037383177,-50.046728971962615,69.94392523364486,-7647.878504672897,2542.11214953271,1744.3177570093458,2
2024-06-13 20:08:37,0.08674286306,-0.04398229718,0.01588249579,-8.468291283,-3.210624456,3.75650239,-250.5,-94.0,65.0,-7621.0,2261.5,1771.5,2
2024-06-13 20:08:37,0.01343903504,0.03787364438,-0.03054326214,-8.195352554,-3.08373189,3.790021181,97.425,204.40625,9.81875,-7653.115625,2341.4125,1726.60625,2
2024-06-13 20:08:37,0.01343903504,0.03787364438,-0.03054326214,-8.195352554,-3.08373189,3.790021181,-30.40366972477064,-50.58715596330275,-54.73394495412844,-7807.4495412844035,2625.321100917431,1766.7706422018348,2
2024-06-13 20:08:37,-0.08063421398,-0.008552113548,-0.03909537569,-7.814674377,-3.045424461,4.508281708,65.00917431192661,15.467889908256891,-72.1651376146789,-7669.376146788991,2626.697247706422,1780.073394495413,2
2024-06-13 20:08:37,-0.04764748737,0.07330382615,-0.05864306539,-8.030152321,-2.925714493,3.445256233,-208.7978723404256,-82.93617021276596,80.79787234042553,-7609.095744680851,2590.489361702128,2016.106382978724,2
2024-06-13 20:08:37,-0.04764748737,0.07330382615,-0.05864306539,-8.030152321,-2.925714493,3.445256233,-955.2857142857144,710.4857142857143,-555.1714285714286,-7608.714285714285,2227.342857142857,1850.8,2
2024-06-13 20:08:37,-0.1221730486,0.004886921961,-0.02076941915,-8.901641846,-3.318363667,4.024652958,-1066.8217821782175,1101.5445544554457,-340.3564356435644,-7887.277227722772,2346.712871287129,1552.7623762376238,2
2024-06-13 20:08:37,-0.05986479297,0.01954768784,-0.01343903504,-8.487444878,-3.301604033,3.426102638,-820.6538461538462,1100.8461538461538,-294.11538461538464,-8010.846153846154,1950.0,1603.423076923077,2
2024-06-13 20:08:38,-0.05986479297,0.01954768784,-0.01343903504,-8.487444878,-3.301604033,3.426102638,-614.9215686274509,610.2058823529412,46.8235294117647,-7892.980392156863,2079.1372549019607,1382.4019607843138,2
2024-06-13 20:08:38,-0.4850270152,-0.05497787148,-0.1233947799,-6.098031521,-4.218583584,2.844311714,-256.4807692307692,244.1346153846154,60.07692307692308,-7956.711538461538,1723.2115384615386,1364.7307692307693,2
2024-06-13 20:08:38,-0.4850270152,-0.05497787148,-0.1233947799,-6.098031521,-4.218583584,2.844311714,-316.93203883495147,133.0,-98.32038834951456,-7931.359223300971,2037.504854368932,1009.9708737864078,2
2024-06-13 20:08:38,-0.08185594529,-0.3359758854,-0.531452775,-9.334992409,-4.211400986,4.438849926,-523.0097087378641,132.80582524271844,-125.33009708737865,-8047.650485436893,2124.747572815534,996.8543689320388,2
2024-06-13 20:08:38,0.1649336219,-0.109955743,-0.2150245607,-8.0229702,-3.991134167,4.663905144,-184.54545454545453,299.2121212121212,80.9090909090909,-8036.69696969697,2024.878787878788,978.8484848484848,2
2024-06-13 20:08:38,0.1649336219,-0.109955743,-0.2150245607,-8.0229702,-3.991134167,4.663905144,28.64383561643836,334.958904109589,346.0821917808219,-8017.520547945205,1990.4246575342463,911.0958904109588,2
2024-06-13 20:08:38,0.0293215327,-0.00122173049,-0.007330383174,-7.742848396,-4.120420933,4.42209053,38.23287671232877,332.2191780821918,351.56164383561645,-8018.890410958904,2002.0684931506848,900.8219178082192,2
2024-06-13 20:08:38,0.1282816976,0.02076941915,0.05742133409,-6.320692539,-4.333505154,4.604049683,-13.383177570093451,54.6822429906542,148.6728971962617,-7919.943925233645,2360.373831775701,911.1682242990654,2
2024-06-13 20:08:38,0.1282816976,0.02076941915,0.05742133409,-6.320692539,-4.333505154,4.604049683,-247.1176470588236,51.44117647058823,-256.52941176470586,-7715.529411764706,2223.294117647059,957.1176470588236,2
2024-06-13 20:08:38,0.1282816976,0.04886921868,-0.01221730467,-7.352593422,-4.378994942,5.202600479,-98.98039215686276,-305.96078431372547,251.1176470588236,-8012.666666666667,2281.921568627451,974.529411764706,2
2024-06-13 20:08:39,0.1282816976,0.04886921868,-0.01221730467,-7.352593422,-4.378994942,5.202600479,-115.66666666666669,-211.4,100.53333333333332,-7903.8,2256.133333333333,1050.7333333333331,2
2024-06-13 20:08:39,0.1893682331,-0.03176499158,-0.07574728876,-7.872135162,-4.335899353,4.34787035,59.86538461538461,-253.09615384615384,68.14423076923077,-7944.384615384615,2180.8076923076924,1377.9615384615386,2
2024-06-13 20:08:39,0.07330382615,-0.07696902007,0.05864306539,-8.221688271,-4.259284973,4.745307922,-173.32323232323233,-73.34343434343434,-85.04040404040404,-7957.020202020202,2177.40404040404,1388.7373737373737,2
2024-06-13 20:08:39,0.1881465018,-0.02565634064,-0.08063421398,-8.209717751,-3.833117008,4.029441357,74.08653846153845,-45.09615384615385,-59.51923076923077,-7934.134615384615,2587.903846153846,1333.6153846153843,2
2024-06-13 20:08:39,-0.96028018,0.3689626157,0.2309070677,-7.979874134,-4.802768707,4.975151062,-11.199999999999989,116.9,39.4,-7657.0,2190.0,1370.5,2
2024-06-13 20:08:39,-0.96028018,0.3689626157,0.2309070677,-7.979874134,-4.802768707,4.975151062,84.53773584905662,45.77358490566039,-80.54716981132074,-7986.754716981132,2596.1132075471696,1348.9528301886792,2
2024-06-13 20:08:39,0.1893682331,0.3029891551,0.3042109013,-8.190564156,-3.409343243,3.397372246,71.03703703703704,35.57407407407408,64.44444444444446,-7957.490740740741,2579.787037037037,1358.148148148148,2
2024-06-13 20:08:39,0.1893682331,0.3029891551,0.3042109013,-7.603984833,-4.12999773,3.105279684,-201.1489361702128,-104.5744680851064,-197.06382978723408,-7872.063829787234,2212.5106382978724,1360.468085106383,2
2024-06-13 20:08:39,0.2687807083,0.2333505303,0.07819075137,-7.603984833,-4.12999773,3.105279684,-76.81132075471699,44.301886792452834,-64.0754716981132,-7987.150943396226,2282.698113207547,1216.7924528301887,2
2024-06-13 20:08:40,0.03054326214,-0.03787364438,0.05742133409,-7.900865555,-3.845088005,3.184288263,-30.538461538461533,-88.07692307692307,39.90384615384615,-7947.557692307692,2232.9326923076924,1198.4807692307693,2
2024-06-13 20:08:40,0.03054326214,-0.03787364438,0.05742133409,-7.900865555,-3.845088005,3.184288263,20.4,83.8,-69.6,-7771.8,2268.8,1216.2,2
2024-06-13 20:08:40,0.08796459436,-0.006108652335,0.05375614017,-8.166622162,-3.849876404,3.612850428,-196.7619047619048,-93.0,-138.95238095238096,-7654.285714285715,2212.04761904762,1223.6190476190477,2
2024-06-13 20:08:40,-0.0171042271,0.01343903504,-0.01466076635,-8.145073891,-3.79480958,3.433285236,-290.2857142857143,231.46031746031747,-20.80952380952381,-7701.809523809524,2250.333333333333,1205.6507936507935,2
2024-06-13 20:08:40,-0.0171042271,0.01343903504,-0.01466076635,-8.145073891,-3.79480958,3.433285236,-373.28712871287127,19.455445544554458,-141.13861386138615,-7640.920792079208,2241.9504950495048,1262.7227722772277,2
2024-06-13 20:08:40,0.01466076635,0.01343903504,-0.008552113548,-8.348581314,-3.675099611,3.555389643,-364.019801980198,-31.207920792079207,35.88118811881188,-7796.574257425743,2288.3564356435645,1242.7623762376238,2
2024-06-13 20:08:40,0.01466076635,0.01343903504,-0.008552113548,-8.348581314,-3.675099611,3.555389643,81.16666666666667,-62.51960784313725,-103.95098039215686,-7954.450980392156,2351.1666666666665,1231.843137254902,2
2024-06-13 20:08:40,0.01343903504,0.01832595654,0.006108652335,-8.135497093,-3.708618402,3.442862034,92.99056603773585,-19.91509433962264,34.9622641509434,-7861.575471698113,2245.207547169812,1226.877358490566,2
2024-06-13 20:08:40,0.00122173049,0.00244346098,0.02809980139,-8.231265068,-3.895366192,3.49553442,30.16504854368932,65.60194174757282,-59.89320388349515,-7647.805825242718,2608.640776699029,1256.5533980582525,2
2024-06-13 20:08:40,0.00122173049,0.00244346098,0.02809980139,-8.231265068,-3.895366192,3.49553442,-55.52941176470589,-66.73529411764706,71.23529411764706,-7677.411764705882,2570.323529411765,1241.5588235294117,2
2024-06-13 20:08:41,0.04031710699,-0.007330383174,0.00122173049,-8.161833763,-3.816357613,3.541024208,-275.3269230769231,-268.2307692307692,38.26923076923077,-7916.115384615385,2250.326923076923,1315.0,2
2024-06-13 20:08:41,0.08429940045,-0.09162978828,0.08552113175,-8.006210327,-3.751713991,3.478775024,32.25,90.0,117.125,-7661.125,2642.125,1546.125,2
2024-06-13 20:08:41,0.08429940045,-0.09162978828,0.08552113175,-8.006210327,-3.751713991,3.478775024,-373.5631067961165,38.66019417475728,73.0,-7635.757281553398,2551.242718446602,1596.0679611650485,2
2024-06-13 20:08:41,0.06108652428,-0.03909537569,-0.04398229718,-8.219294548,-3.349488258,3.665522814,-287.44117647058823,-97.73529411764706,-82.55882352941177,-7955.529411764706,2576.323529411765,1565.4411764705883,2
2024-06-13 20:08:41,0.06108652428,-0.03909537569,-0.04398229718,-8.219294548,-3.349488258,3.665522814,-161.33333333333331,92.33333333333331,-3.0,-7839.0,2589.6666666666665,1593.3333333333333,2
2024-06-13 20:08:41,0.02565634064,0.07086037099,-0.1331686229,-8.279149055,-3.701435804,3.739742994,75.06542056074767,112.1214953271028,84.86915887850466,-7619.598130841122,2639.878504672897,1610.8411214953271,2
2024-06-13 20:08:41,0.06108652428,0.04764748737,0.007330383174,-8.169015884,-3.813963413,3.49553442,-143.5151515151515,-74.8989898989899,46.71717171717172,-7629.313131313132,2572.333333333333,1627.3838383838383,2
2024-06-13 20:08:41,0.06108652428,0.04764748737,0.007330383174,-8.169015884,-3.813963413,3.49553442,-233.6981132075472,291.6792452830189,56.83018867924528,-7674.735849056604,2648.754716981132,1252.188679245283,2
2024-06-13 20:08:41,-0.02076941915,-0.04520402849,0.1209513173,-8.142680168,-3.97676897,3.481169224,0.6176470588235361,-66.94117647058823,69.58823529411765,-7647.35294117647,2347.294117647059,1555.1470588235295,2
2024-06-13 20:08:41,-0.4373795092,0.2492330223,-0.03054326214,-8.264783859,-4.486733913,4.393360138,-275.0,-87.75,106.75,-7662.25,2611.5,1480.25,2
2024-06-13 20:08:42,-0.4373795092,0.2492330223,-0.03054326214,-8.264783859,-4.486733913,4.393360138,-282.2190476190476,-105.7809523809524,58.695238095238096,-7641.990476190476,2599.504761904762,1572.5238095238096,2
2024-06-13 20:08:42,0.2577851415,-0.1270599663,0.05864306539,-8.236053467,-3.507505417,3.411737442,-363.8269230769231,-32.20192307692308,70.91346153846153,-7629.067307692308,2587.1153846153848,1557.798076923077,2
2024-06-13 20:08:42,0.2785545588,-0.08796459436,-0.09773843735,-7.941566944,-2.880224705,3.349488258,-285.6470588235294,100.31372549019608,88.90196078431373,-7646.705882352941,2650.960784313725,1547.1960784313726,2
2024-06-13 20:08:42,0.2785545588,-0.08796459436,-0.09773843735,-7.941566944,-2.880224705,3.349488258,-299.5179856115108,-55.94964028776978,-317.1007194244604,-7640.5395683453235,2445.179856115108,1569.0287769784172,2
2024-06-13 20:08:42,0.05375614017,0.006108652335,-0.02687807009,-8.712499619,-3.555389643,3.852270603,-287.6363636363636,271.42424242424244,-206.37878787878788,-7752.984848484848,2266.4242424242425,1218.121212121212,2
2024-06-13 20:08:42,0.05375614017,0.006108652335,-0.02687807009,-8.712499619,-3.555389643,3.852270603,86.48113207547169,106.25471698113208,106.33018867924528,-7656.669811320755,2263.0283018867926,1270.7735849056603,2
2024-06-13 20:08:42,0.1197295859,0.04031710699,0.01954768784,-8.303091049,-3.284844637,3.241749048,33.24390243902439,-82.63414634146342,123.07317073170732,-7649.975609756098,2577.512195121951,1243.341463414634,2
2024-06-13 20:08:42,0.05864306539,0.04031710699,-0.04764748737,-8.049305916,-3.145981073,3.608062029,24.30081300813008,-79.3821138211382,113.72357723577235,-7647.536585365854,2578.731707317073,1244.1544715447155,2
2024-06-13 20:08:42,0.05864306539,0.04031710699,-0.04764748737,-8.049305916,-3.145981073,3.608062029,15.357723577235774,-76.130081300813,104.3739837398374,-7645.09756097561,2579.951219512195,1244.9674796747968,2
2024-06-13 20:08:42,-0.4031710625,0.09529497474,0.03909537569,-8.063671112,-4.249708176,3.900154591,129.73076923076923,91.1153846153846,37.19230769230769,-7637.615384615385,2274.538461538461,1465.5,2
2024-06-13 20:08:43,-0.4031710625,0.09529497474,0.03909537569,-8.063671112,-4.249708176,3.900154591,256.33009708737865,-42.03883495145631,281.3883495145631,-7946.04854368932,2475.864077669903,1183.1844660194174,2
2024-06-13 20:08:43,0.7147123218,-0.3726277947,0.2150245607,-8.331821442,-2.923320293,3.440467834,-38.39252336448598,-258.86915887850466,-39.39252336448598,-7629.738317757009,2537.448598130841,1516.4392523364486,2
2024-06-13 20:08:43,0.2748893499,-0.1209513173,-0.07574728876,-8.386888504,-2.79163909,4.019864559,-153.34579439252337,-70.55140186915887,-104.34579439252336,-7603.102803738318,2590.2523364485983,1387.9345794392525,2
2024-06-13 20:08:43,0.2748893499,-0.1209513173,-0.07574728876,-8.386888504,-2.79163909,4.019864559,-295.0,-56.0,12.333333333333329,-7644.666666666667,2601.0,1258.6666666666667,2
2024-06-13 20:08:43,0.04031710699,0.03176499158,0.0415388383,-8.255207062,-3.114856482,4.544194698,-300.9230769230769,11.076923076923077,-250.8846153846154,-7585.346153846154,2575.6153846153848,1565.8461538461538,2
2024-06-13 20:08:43,0.04642575979,-0.04398229718,-0.02443460934,-7.982268333,-2.932897091,4.168305397,-144.37623762376236,51.82178217821782,-103.97029702970298,-7668.653465346535,2447.7821782178216,1271.6633663366338,2
2024-06-13 20:08:43,0.1075122803,0.0232128799,-0.01832595654,-8.010998726,-3.057395458,4.616020679,18.15533980582524,-55.33009708737865,98.10679611650484,-7601.660194174758,2614.368932038835,1578.242718446602,2
2024-06-13 20:08:43,0.1075122803,0.0232128799,-0.01832595654,-8.010998726,-3.057395458,4.616020679,-190.8,50.17142857142857,43.37142857142857,-7644.8,2640.057142857143,1581.2571428571428,2
2024-06-13 20:08:43,-0.03176499158,0.1808161139,-0.06108652428,-8.238448143,-2.906560898,4.371812344,-312.8529411764706,-2.058823529411768,43.41176470588235,-7584.64705882353,2680.264705882353,1642.8823529411766,2
2024-06-13 20:08:44,0.06963863969,-0.05619960278,0.0171042271,-8.374917984,-3.107673883,4.158728123,-333.75,16.25,-82.0,-7865.5,2491.5,1598.75,2
2024-06-13 20:08:44,0.06963863969,-0.05619960278,0.0171042271,-8.374917984,-3.107673883,4.158728123,-152.64705882352942,31.647058823529413,-170.58823529411765,-7577.588235294118,2641.764705882353,1439.5882352941176,2
2024-06-13 20:08:44,0.3628539443,-0.1172861308,0.01221730467,-7.797914982,-2.813186884,4.431667328,-304.65384615384613,180.3846153846154,-36.84615384615384,-7642.2307692307695,2668.076923076923,1608.4615384615386,2
2024-06-13 20:08:44,-0.1600466967,0.1637118906,-0.05375614017,-8.226476669,-3.107673883,4.580107689,53.52941176470589,120.23529411764706,19.764705882352928,-7597.117647058823,2654.294117647059,1633.4117647058824,2
2024-06-13 20:08:44,-0.1600466967,0.1637118906,-0.05375614017,-8.226476669,-3.107673883,4.580107689,-121.0,82.72,-11.919999999999987,-7599.0,2578.76,1510.8,2
2024-06-13 20:08:44,0.1356120855,-0.1209513173,0.07086037099,-8.157045364,-2.978386879,4.218583584,-123.03669724770644,-114.03669724770644,55.07339449541284,-7611.935779816514,2504.97247706422,1651.577981651376,2
2024-06-13 20:08:44,0.1356120855,-0.1209513173,0.07086037099,-8.157045364,-2.978386879,4.218583584,-235.3469387755102,-47.16326530612245,61.81632653061224,-7594.877551020408,2649.183673469388,1412.408163265306,2
2024-06-13 20:08:44,-0.02565634064,0.0,-0.05864306539,-8.348581314,-2.947262287,4.707000732,80.84615384615384,-19.73076923076924,-39.65384615384616,-7653.807692307692,2592.6153846153848,1638.6153846153843,2
2024-06-13 20:08:44,-0.08552113175,0.06230825558,0.02443460934,-8.180987358,-2.762908697,4.367023945,57.13592233009709,-104.7864077669903,94.76699029126212,-7595.893203883495,2495.349514563107,1657.106796116505,2
2024-06-13 20:08:44,-0.08552113175,0.06230825558,0.02443460934,-8.180987358,-2.762908697,4.367023945,-95.65714285714286,-58.885714285714286,60.68571428571428,-7598.4,2479.9714285714285,1580.1142857142856,2
2024-06-13 20:08:45,0.05619960278,0.003665191587,-0.007330383174,-8.29830265,-2.602497339,3.64158082,-215.12,70.608,-204.816,-7600.024,2643.064,1442.896,2
2024-06-13 20:08:45,-0.1026253626,0.02076941915,0.01832595654,-8.104372978,-2.67671752,4.340687752,-112.275,-52.825,55.175,-7624.625,2634.4375,1415.5875,2
2024-06-13 20:08:45,-0.1026253626,0.02076941915,0.01832595654,-8.104372978,-2.67671752,4.340687752,-222.9514563106796,-12.990291262135925,47.10679611650485,-7611.796116504855,2452.21359223301,1633.631067961165,2
2024-06-13 20:08:45,-1.511280656,0.4654793143,-0.02443460934,-8.394071579,-3.186682463,3.64158082,39.67857142857143,-55.77678571428572,278.0625,-7627.142857142857,2495.6875,1613.5357142857142,2
2024-06-13 20:08:45,-1.511280656,0.4654793143,-0.02443460934,-8.394071579,-3.186682463,3.64158082,-103.0,39.72631578947369,115.67368421052632,-7798.568421052631,2555.810526315789,1446.9684210526316,2
2024-06-13 20:08:45,-0.6829473376,0.1343903542,-0.04520402849,-8.738836288,-4.429273129,1.853112102,-301.2307692307692,108.0,47.5,-7588.307692307692,2502.730769230769,1471.8461538461538,2
2024-06-13 20:08:45,0.3469714522,0.00122173049,-0.04642575979,-8.803479195,-3.995922565,1.8579005,-263.32,-73.2,126.12,-7578.72,2508.52,1433.0,2
2024-06-13 20:08:45,0.2443460971,-0.04398229718,-0.03298672289,-8.03494072,-4.046200752,2.650381327,15.895238095238096,99.57142857142856,88.4857142857143,-7571.885714285714,2529.04761904762,1426.2095238095235,2
2024-06-13 20:08:45,0.1466076523,-0.0109955743,-0.0232128799,-8.384494781,-3.97676897,2.889801502,27.923076923076923,106.6153846153846,-81.92307692307693,-7762.307692307692,2779.692307692308,1431.7692307692307,2
2024-06-13 20:08:46,0.1466076523,-0.0109955743,-0.0232128799,-8.384494781,-3.97676897,2.889801502,-315.32710280373834,-105.01869158878505,-103.98130841121495,-7801.0,2835.551401869159,1433.2242990654206,2
2024-06-13 20:08:46,-0.1392772794,0.004886921961,0.02687807009,-8.415618896,-4.532223701,3.253720045,-358.3529411764706,48.117647058823536,-127.0,-7623.382352941177,2888.0,1446.9117647058824,2
2024-06-13 20:08:46,-0.1392772794,0.004886921961,0.02687807009,-8.415618896,-4.532223701,3.253720045,-240.23300970873785,-54.252427184466015,38.49514563106796,-7759.621359223301,2926.106796116505,1475.1359223300972,2
2024-06-13 20:08:46,0.01466076635,-0.02565634064,0.0354301855,-8.24802494,-3.842693806,2.741360903,-234.23529411764707,284.2647058823529,-344.5098039215686,-7650.137254901961,2604.5882352941176,1444.4019607843138,2
2024-06-13 20:08:46,-0.01343903504,-0.05375614017,0.05619960278,-8.35097599,-3.90254879,2.873042107,-286.3076923076923,261.5192307692308,-124.51923076923076,-7589.182692307692,2484.903846153846,1436.4903846153843,2
2024-06-13 20:08:46,-0.01343903504,-0.05375614017,0.05619960278,-8.35097599,-3.90254879,2.873042107,-304.47058823529414,99.6470588235294,82.20588235294117,-7696.294117647059,2505.029411764706,1501.764705882353,2
2024-06-13 20:08:46,0.125838235,-0.02199114859,0.0415388383,-7.943961143,-3.897760391,3.466804028,-114.8256880733945,-58.3302752293578,70.09174311926606,-7787.045871559633,2833.7247706422017,1508.8440366972477,2
2024-06-13 20:08:46,0.08796459436,0.1148426682,-0.08185594529,-8.700529099,-3.950432777,3.19865346,39.57142857142857,314.1428571428572,88.85714285714286,-7573.571428571428,2542.285714285714,1471.571428571429,2
2024-06-13 20:08:46,0.08796459436,0.1148426682,-0.08185594529,-8.700529099,-3.950432777,3.19865346,104.046875,-59.5390625,63.6953125,-7719.015625,2647.09375,1472.6640625,2
2024-06-13 20:08:46,0.0293215327,0.0354301855,0.04764748737,-7.87931776,-4.218583584,3.696647406,-304.6666666666667,270.8333333333333,-37.333333333333336,-7797.0,2874.5,1434.6666666666667,2
2024-06-13 20:08:47,0.0293215327,0.0354301855,0.04764748737,-7.87931776,-4.218583584,3.696647406,-210.7524752475248,350.44554455445547,-154.1089108910891,-7605.049504950495,2487.069306930693,1618.8415841584158,2
2024-06-13 20:08:47,-0.03420845419,-0.02809980139,-0.00122173049,-8.760383606,-3.53384161,2.813186884,-226.0970873786408,330.18446601941747,-277.71844660194176,-7605.796116504855,2639.47572815534,1601.2038834951456,2
2024-06-13 20:08:47,0.05375614017,0.1001819,-0.08674286306,-7.900865555,-3.399766445,3.313575268,-378.0792079207921,-56.43564356435643,10.623762376237623,-7640.168316831683,2646.920792079208,1605.4851485148515,2
2024-06-13 20:08:47,0.05375614017,0.1001819,-0.08674286306,-7.900865555,-3.399766445,3.313575268,-345.6470588235294,-74.27450980392157,89.56862745098039,-7600.196078431372,2486.176470588235,1619.6078431372548,2
2024-06-13 20:08:47,-0.1734857261,-0.1539380401,0.06719517708,-8.008605003,-3.945644379,1.786074519,-233.125,113.25,16.625,-7622.625,2479.0,1421.75,2
2024-06-13 20:08:47,-0.0293215327,-0.2504547536,-0.2199114859,-9.205705643,-3.445256233,3.476380825,-180.4705882352941,-4.882352941176471,-276.80392156862746,-7556.431372549019,2658.4117647058824,1458.313725490196,2
2024-06-13 20:08:47,-0.0293215327,-0.2504547536,-0.2199114859,-9.205705643,-3.445256233,3.476380825,-304.8317757009346,224.6355140186916,15.523364485981308,-7669.691588785046,2620.485981308412,1604.943925233645,2
2024-06-13 20:08:47,0.4703662395,-0.1710422635,0.2089159191,-8.599972725,-4.058171749,3.782838583,18.53271028037381,357.3457943925234,65.99065420560748,-7943.523364485981,2610.205607476636,1563.822429906542,2
2024-06-13 20:08:47,0.4703662395,-0.1710422635,0.2089159191,-8.599972725,-4.058171749,3.782838583,-36.98039215686275,92.80392156862744,101.0,-7654.754901960784,2652.43137254902,1572.0980392156862,2
2024-06-13 20:08:47,0.1624901593,0.07330382615,0.1930334121,-7.960720539,-3.236960649,3.42131424,-113.93333333333334,28.923809523809524,-294.1142857142857,-7646.304761904762,2591.6857142857143,1603.104761904762,2
2024-06-13 20:08:48,-0.03665191308,-0.08918632567,-0.07452555746,-7.869740963,-3.529053211,3.79241538,-106.46601941747574,-103.23300970873788,244.0873786407767,-7907.640776699029,2538.6893203883496,1321.5825242718447,2
2024-06-13 20:08:48,-0.03665191308,-0.08918632567,-0.07452555746,-7.869740963,-3.529053211,3.79241538,-26.53271028037383,-315.803738317757,25.27102803738319,-7570.77570093458,2506.822429906542,1616.7009345794393,2
2024-06-13 20:08:48,-0.00122173049,0.02199114859,-0.01466076635,-8.188169479,-3.502717018,3.739742994,-265.7857142857143,-66.09183673469389,76.48979591836735,-7570.744897959184,2619.051020408164,1635.428571428571,2
2024-06-13 20:08:48,0.1111774743,-0.07696902007,-0.00122173049,-8.027758598,-3.600879431,3.734954596,94.5182186234818,-42.47773279352226,-116.79352226720648,-7616.7692307692305,2622.5587044534414,1625.412955465587,2
2024-06-13 20:08:48,0.1111774743,-0.07696902007,-0.00122173049,-8.027758598,-3.600879431,3.734954596,76.29959514170041,-64.74493927125506,-123.27125506072876,-7647.538461538462,2563.8542510121456,1612.4574898785424,2
2024-06-13 20:08:48,-0.0171042271,0.04886921868,-0.03665191308,-7.371747017,-3.521870613,4.278438568,-172.5625,29.1875,105.53125,-7609.0625,2490.71875,1622.15625,2
2024-06-13 20:08:48,-0.0171042271,0.04886921868,-0.03665191308,-7.371747017,-3.521870613,4.278438568,-131.45098039215685,84.27450980392157,55.45098039215687,-7587.843137254902,2543.6666666666665,1629.5098039215686,2
2024-06-13 20:08:48,-0.1857030392,0.05131268129,0.04276056588,-8.54251194,-4.268861771,4.141968727,-378.2105263157895,74.86234817813765,48.578947368421055,-7555.145748987854,2487.7125506072875,1601.2145748987857,2
2024-06-13 20:08:48,-0.1514945775,0.06841690838,0.01221730467,-7.390900612,-4.204218388,4.723760128,-372.9473684210527,-17.85020242914979,59.10526315789474,-7559.194331983806,2485.283400809717,1501.6194331983806,2
2024-06-13 20:08:48,-0.1514945775,0.06841690838,0.01221730467,-7.390900612,-4.204218388,4.723760128,-320.75,-98.375,44.125,-7591.1875,2453.625,1639.125,2
2024-06-13 20:08:49,-0.0232128799,-0.1661553532,-0.1832595766,-7.855375767,-3.588908434,3.821146011,108.36434108527132,-111.8062015503876,-117.65116279069768,-7786.294573643411,2818.767441860465,1642.875968992248,2
2024-06-13 20:08:49,0.05131268129,-0.02443460934,-0.1356120855,-7.970297337,-3.799597979,4.165910721,-22.906666666666663,-46.49333333333333,45.25333333333333,-7639.36,2803.04,1604.506666666667,2
2024-06-13 20:08:49,0.05131268129,-0.02443460934,-0.1356120855,-7.970297337,-3.799597979,4.165910721,21.39622641509434,7.415094339622641,-198.66037735849056,-7790.33962264151,2474.9245283018868,1468.2830188679245,2
2024-06-13 20:08:49,-0.00122173049,-0.04764748737,-0.09407325089,-7.972691536,-3.995922565,4.446032524,-337.13861386138615,-57.04950495049505,-86.13861386138613,-7805.0,2504.930693069307,1628.4257425742574,2
2024-06-13 20:08:49,-0.00122173049,-0.04764748737,-0.09407325089,-8.003816605,-4.929661274,4.647145271,-305.6893203883496,-48.42718446601942,88.02912621359224,-7592.73786407767,2809.2718446601943,1576.8349514563106,2
2024-06-13 20:08:49,-0.5754350424,0.2736676335,0.1881465018,-8.003816605,-4.929661274,4.647145271,64.53846153846153,-116.34615384615384,82.73076923076923,-7560.7307692307695,2479.076923076923,1638.076923076923,2
2024-06-13 20:08:49,0.1979203373,-0.02076941915,0.07819075137,-7.532158375,-3.854664803,3.471592426,-351.4935064935065,112.3896103896104,-93.93506493506491,-7596.493506493506,2845.3766233766232,1647.0,2
2024-06-13 20:08:49,0.1979203373,-0.02076941915,0.07819075137,-7.532158375,-3.854664803,3.471592426,-326.38528138528136,118.88311688311688,-9.519480519480524,-7671.385281385282,2701.65367965368,1547.0,2
2024-06-13 20:08:49,0.2113593817,-0.03176499158,-0.00244346098,-7.625532627,-2.978386879,4.039018154,-301.27705627705626,125.37662337662336,74.89610389610391,-7746.277056277056,2557.930735930736,1447.0,2
2024-06-13 20:08:49,0.04520402849,0.3029891551,-0.3335324228,-8.113949776,-4.101267338,4.216189384,-294.56756756756755,91.72972972972974,59.41891891891892,-7567.486486486487,2837.4864864864867,1650.2432432432431,2
2024-06-13 20:08:50,0.04520402849,0.3029891551,-0.3335324228,-8.113949776,-4.101267338,4.216189384,-70.58139534883722,-77.24031007751938,29.689922480620154,-7631.449612403101,2532.8217054263564,1423.139534883721,2
2024-06-13 20:08:50,0.08674286306,0.04031710699,-0.01466076635,-8.094796181,-4.513070107,3.363853455,-219.86666666666667,83.03999999999999,-87.06666666666666,-7603.453333333333,2765.133333333333,1648.24,2
2024-06-13 20:08:50,0.006108652335,0.07819075137,0.1331686229,-8.257601738,-4.072536945,3.596091032,-41.33653846153845,-25.519230769230774,55.80769230769232,-7766.076923076923,2791.605769230769,1605.7884615384614,2
2024-06-13 20:08:50,0.006108652335,0.07819075137,0.1331686229,-8.257601738,-4.072536945,3.596091032,-337.72549019607845,50.49019607843138,22.7843137254902,-7733.705882352941,2623.1176470588234,1605.6274509803925,2
2024-06-13 20:08:50,0.007330383174,0.05497787148,0.1001819,-7.872135162,-3.778050184,3.677493811,116.06603773584904,69.54716981132076,-88.02830188679245,-7590.198113207547,2899.9150943396226,1591.9811320754718,2
2024-06-13 20:08:50,0.007330383174,0.05497787148,0.1001819,-7.872135162,-3.778050184,3.677493811,75.97087378640776,74.35922330097088,63.95145631067961,-7756.0,2888.378640776699,1650.728155339806,2
2024-06-13 20:08:50,0.03909537569,0.01588249579,0.03665191308,-7.824251175,-3.811569214,3.476380825,-215.0,-31.142857142857142,92.14285714285714,-7656.0,2915.285714285714,1611.142857142857,2
2024-06-13 20:08:50,0.00244346098,0.02443460934,0.01588249579,-8.271966934,-3.780444384,3.632004023,94.6153846153846,-48.92307692307692,26.692307692307693,-7794.846153846154,2846.6153846153848,1572.8461538461538,2
2024-06-13 20:08:50,0.00244346098,0.02443460934,0.01588249579,-8.271966934,-3.780444384,3.632004023,51.01960784313726,24.92156862745098,69.52941176470588,-7671.450980392156,2887.0392156862745,1522.5686274509803,2
2024-06-13 20:08:50,0.1111774743,-0.01221730467,0.0415388383,-8.101978302,-3.82593441,4.295197964,-294.0406504065041,105.85365853658536,-102.07317073170732,-7785.349593495935,2877.60162601626,1427.2032520325204,2
2024-06-13 20:08:51,0.1111774743,-0.01221730467,0.0415388383,-7.582436562,-3.711012602,3.526659012,-345.5176470588235,168.3764705882353,-178.9294117647059,-7790.329411764706,2845.823529411765,1492.4470588235297,2
2024-06-13 20:08:51,0.01221730467,0.01343903504,-0.03298672289,-7.582436562,-3.711012602,3.526659012,-221.578431372549,-50.31372549019608,-39.00980392156863,-7657.156862745098,2742.9117647058824,1618.1666666666667,2
2024-06-13 20:08:51,-0.6352998614,0.3701843321,-0.2309070677,-8.082824707,-4.036623955,2.341529369,-188.66666666666663,-83.66666666666667,105.66666666666669,-7798.666666666667,2548.0,1625.6666666666667,2
2024-06-13 20:08:51,-0.6352998614,0.3701843321,-0.2309070677,-8.082824707,-4.036623955,2.341529369,-43.96039603960397,20.81188118811881,30.099009900990097,-7749.0,2920.5742574257424,1464.3663366336634,2
2024-06-13 20:08:51,0.283441484,0.1221730486,-0.3628539443,-9.15063858,-5.037400246,2.126051188,-153.86274509803923,-42.96078431372549,28.03921568627451,-7608.490196078431,2884.6666666666665,1621.7843137254902,2
2024-06-13 20:08:51,1.076344609,0.1014036313,-0.0293215327,-8.013393402,-5.212177277,2.245761156,4.12,-73.66,89.68,-7573.28,2827.24,1614.14,2
2024-06-13 20:08:51,1.076344609,0.1014036313,-0.0293215327,-8.013393402,-5.212177277,2.245761156,-235.75,67.5,104.375,-7580.75,2868.5,1637.25,2
2024-06-13 20:08:51,0.3078760803,0.06719517708,0.1295034289,-7.809885979,-4.819528103,1.984793186,37.52577319587629,-57.92783505154639,105.81443298969072,-7580.082474226804,2915.979381443299,1616.1237113402062,2
2024-06-13 20:08:51,0.08307767659,-0.1172861308,0.1172861308,-7.809885979,-4.857835293,2.535459518,-279.88461538461536,-272.125,39.99038461538461,-7759.759615384615,2867.9903846153848,1448.9423076923076,2
2024-06-13 20:08:51,0.08307767659,-0.1172861308,0.1172861308,-7.809885979,-4.857835293,2.535459518,-268.34615384615387,15.375,39.02884615384615,-7735.721153846154,2867.028846153846,1443.173076923077,2
2024-06-13 20:08:52,0.1905899495,-0.1685988009,0.2467895597,-8.152256966,-3.881000996,2.892195702,-153.990099009901,-68.99009900990099,106.95049504950497,-7764.891089108911,2907.019801980198,1420.5247524752476,2
2024-06-13 20:08:52,0.1905899495,-0.1685988009,0.2467895597,-8.152256966,-3.881000996,2.892195702,53.91346153846155,-56.76923076923077,98.7403846153846,-7612.298076923077,2883.192307692308,1628.75,2
2024-06-13 20:08:52,0.1795943826,-0.07452555746,-0.006108652335,-8.054094315,-4.209006786,3.177105665,-80.0873786407767,-98.4368932038835,56.50485436893205,-7735.941747572815,2727.330097087379,1430.252427184466,2
2024-06-13 20:08:52,-0.09407325089,0.02565634064,-0.09773843735,-8.805873871,-4.187458992,2.746149302,-207.4,-27.6,-39.0,-7602.4,2829.0,1615.6,2
2024-06-13 20:08:52,-0.09407325089,0.02565634064,-0.09773843735,-8.805873871,-4.187458992,2.746149302,-258.0776699029126,-89.47572815533981,69.14563106796116,-7559.941747572816,2784.485436893204,1608.883495145631,2
2024-06-13 20:08:52,-0.05986479297,0.1514945775,-0.1075122803,-8.183381081,-3.651157618,2.576161146,93.23529411764706,42.05882352941177,42.64705882352941,-7798.235294117647,2932.5882352941176,1651.6470588235295,2
2024-06-13 20:08:52,-0.01954768784,-0.03665191308,0.01466076635,-8.475474358,-3.948038578,2.863465309,24.176470588235293,-68.23529411764707,-238.7058823529412,-7769.35294117647,2842.0,1464.3529411764705,2
2024-06-13 20:08:52,-0.01954768784,-0.03665191308,0.01466076635,-8.475474358,-3.948038578,2.863465309,47.846456692913385,-93.56692913385828,-40.17716535433071,-7769.937007874016,2855.759842519685,1475.791338582677,2
2024-06-13 20:08:52,-0.07086037099,0.03787364438,0.06719517708,-8.348581314,-4.853046894,3.754108191,28.555118110236226,-80.18110236220473,-154.74409448818898,-7782.535433070866,2853.7913385826773,1467.523622047244,2
2024-06-13 20:08:52,-0.07086037099,0.03787364438,0.06719517708,-8.348581314,-4.853046894,3.754108191,-295.7627118644068,-100.10169491525424,50.47457627118644,-7588.542372881356,2826.084745762712,1438.8305084745762,2
2024-06-13 20:08:53,0.05864306539,0.00122173049,0.03420845419,-7.647080421,-4.249708176,3.162740469,-86.3913043478261,-30.73913043478261,-4.086956521739133,-7805.217391304348,2846.8695652173915,1424.8695652173913,2
2024-06-13 20:08:53,-0.4642575979,0.109955743,0.01954768784,-8.43956089,-5.137956619,3.351882458,-261.51063829787233,97.5744680851064,-92.29787234042551,-7804.276595744681,2828.340425531915,1452.0,2
2024-06-13 20:08:53,-0.4642575979,0.109955743,0.01954768784,-8.43956089,-5.137956619,3.351882458,-104.06382978723406,-29.55319148936169,16.212765957446805,-7785.659574468085,2840.0425531914893,1452.0,2
2024-06-13 20:08:53,0.1808161139,-0.1893682331,-0.03909537569,-7.603984833,-3.830722809,3.406949043,17.714285714285715,-44.0,-142.57142857142856,-7624.142857142857,2916.1428571428573,1598.142857142857,2
2024-06-13 20:08:53,0.003665191587,0.03420845419,-0.04642575979,-8.252813339,-4.103661537,3.34230566,13.038095238095238,57.695238095238096,-322.247619047619,-7792.380952380952,2610.9904761904763,1438.1714285714286,2
2024-06-13 20:08:53,0.003665191587,0.03420845419,-0.04642575979,-8.252813339,-4.103661537,3.34230566,27.8,-104.0,78.6,-7557.6,2871.0,1437.2,2
2024-06-13 20:08:53,-0.01588249579,-0.1490511149,0.004886921961,-7.967903137,-3.912125587,3.023876667,5.195876288659794,51.72164948453608,-239.8659793814433,-7585.40206185567,2821.536082474227,1460.8041237113405,2
2024-06-13 20:08:53,-0.01588249579,-0.1490511149,0.004886921961,-7.967903137,-3.912125587,3.023876667,6.019230769230769,28.471153846153847,90.71153846153848,-7805.115384615385,2823.3076923076924,1483.75,2
2024-06-13 20:08:53,-0.1233947799,0.3017674387,-0.4178318381,-6.193799973,-3.998316765,1.407790542,-273.53465346534654,-23.178217821782177,45.17821782178218,-7801.415841584158,2875.3960396039606,1476.2277227722773,2
2024-06-13 20:08:53,-0.1637118906,-0.216246292,-0.616973877,-8.942343712,-5.633556366,3.263296843,42.68067226890757,32.31932773109244,47.22689075630253,-7580.949579831933,2824.176470588235,1472.3025210084031,2
2024-06-13 20:08:54,-0.1637118906,-0.216246292,-0.616973877,-8.942343712,-5.633556366,3.263296843,65.36974789915966,9.630252100840336,54.78991596638655,-7579.268907563025,2830.058823529412,1482.3865546218487,2
2024-06-13 20:08:54,0.2052507252,-0.08429940045,-0.08185594529,-7.862558365,-5.918466568,2.571372509,-83.22222222222223,30.766666666666666,51.86666666666667,-7781.311111111111,2866.4777777777776,1812.3,2
2024-06-13 20:08:54,0.2052507252,-0.08429940045,-0.08185594529,-7.046135426,-6.107608318,2.923320293,107.9009900990099,-88.51485148514851,-38.79207920792078,-7797.6732673267325,2798.158415841584,1837.8217821782173,2
2024-06-13 20:08:54,0.0293215327,-0.009773843922,-0.08429940045,-7.046135426,-6.107608318,2.923320293,108.52941176470588,72.70588235294119,116.0392156862745,-7783.705882352941,2768.3529411764707,1813.2549019607843,2
2024-06-13 20:08:54,-0.01954768784,0.02199114859,0.04520402849,-7.558494568,-6.268020153,3.260902643,-187.0,455.0,-66.2,-7452.8,3173.4,1725.4,2
2024-06-13 20:08:54,-0.01954768784,0.02199114859,0.04520402849,-7.558494568,-6.268020153,3.260902643,-1150.018691588785,662.5514018691589,-208.38317757009344,-7490.897196261682,3126.0,2099.551401869159,2
2024-06-13 20:08:54,-0.2797762752,0.1539380401,-0.1209513173,-6.964732647,-5.767632008,3.375824451,-1047.3564356435645,1100.4158415841584,-521.1980198019802,-7624.108910891089,2969.1782178217823,1920.148514851485,2
2024-06-13 20:08:54,0.00122173049,-0.07696902007,-0.1014036313,-8.003816605,-5.379771233,2.779668093,-538.6923076923077,572.7115384615385,-801.4807692307693,-7634.5,2848.5,1565.5576923076924,2
2024-06-13 20:08:54,0.00122173049,-0.07696902007,-0.1014036313,-8.003816605,-5.379771233,2.779668093,-240.4375,157.9375,-503.96875,-8016.625,2277.875,1346.78125,2
2024-06-13 20:08:54,0.1905899495,0.006108652335,0.06230825558,-7.086836815,-5.671864033,3.689464808,-231.4462809917356,260.0165289256198,-361.4958677685951,-7774.239669421488,2323.884297520661,1157.6528925619834,2
2024-06-13 20:08:55,0.09896016866,-0.03176499158,-0.0720821023,-6.447585106,-5.94719696,3.05021286,102.28571428571428,79.42857142857143,194.1428571428572,-7617.142857142857,2415.1428571428573,1006.4285714285714,2
2024-06-13 20:08:55,0.09896016866,-0.03176499158,-0.0720821023,-6.447585106,-5.94719696,3.05021286,387.05882352941177,-166.16666666666666,-276.0098039215686,-7818.745098039216,2231.0882352941176,926.6176470588236,2
2024-06-13 20:08:55,-0.0354301855,0.06597344577,-0.00244346098,-7.230489254,-5.61919117,3.488351822,582.5,-406.1666666666667,-279.4166666666667,-7989.75,2369.25,917.5,2
2024-06-13 20:08:55,-0.0354301855,0.06597344577,-0.00244346098,-7.230489254,-5.61919117,3.488351822,156.4,-218.08,-594.0,-7754.36,2319.66,936.08,2
2024-06-13 20:08:55,-0.05619960278,-0.06963863969,0.09896016866,-7.256825447,-6.030993938,3.102885485,194.7047619047619,-406.3904761904762,-465.4761904761905,-8008.047619047619,2317.057142857143,1090.0380952380951,2
2024-06-13 20:08:55,0.1576032341,-0.06352998316,-0.06108652428,-7.144298077,-5.537788391,3.34230566,190.5,-1040.6153846153843,-199.73076923076923,-8037.576923076923,2227.692307692308,1567.2692307692307,2
2024-06-13 20:08:55,0.1576032341,-0.06352998316,-0.06108652428,-7.144298077,-5.537788391,3.34230566,161.4392523364486,-857.5981308411215,-115.60747663551402,-7994.233644859813,1958.8130841121488,1830.9158878504672,2
2024-06-13 20:08:55,0.125838235,0.1246165112,0.06230825558,-7.326257229,-5.406107426,2.983175278,179.921568627451,-692.8627450980392,-231.05882352941177,-7946.176470588235,1978.9411764705883,1808.9803921568628,2
2024-06-13 20:08:55,-0.1368338168,0.05619960278,-0.04520402849,-7.572859764,-6.521805286,3.184288263,129.59223300970874,-185.63106796116503,10.563106796116504,-7931.330097087379,2015.980582524272,2013.2233009708737,2
2024-06-13 20:08:55,-0.1368338168,0.05619960278,-0.04520402849,-7.572859764,-6.521805286,3.184288263,268.2647058823529,293.5,-313.8137254901961,-7965.578431372549,1953.3823529411768,1889.2156862745096,2
2024-06-13 20:08:56,-0.5974262357,0.2003637999,0.4239404798,-8.121131897,-6.06451273,3.069366693,313.6730769230769,346.9519230769231,-73.13461538461539,-7832.807692307692,1988.326923076923,1463.423076923077,2
2024-06-13 20:08:56,-0.5974262357,0.2003637999,0.4239404798,-8.121131897,-6.06451273,3.069366693,-30.55769230769232,278.6826923076923,-44.28846153846154,-8059.7307692307695,2032.5576923076924,1444.1923076923076,2
2024-06-13 20:08:56,-0.1026253626,0.2748893499,0.3591887653,-7.343016624,-5.7963624,2.109291792,-321.4807692307692,-1.8653846153846416,-38.28846153846154,-8024.875,2339.519230769231,1473.5096153846157,2
2024-06-13 20:08:56,0.5119050741,-0.4752531648,0.09285151958,-6.959944248,-4.335899353,1.120486379,-317.9230769230769,231.5769230769231,-41.5,-7969.038461538462,2274.8076923076924,1494.076923076923,2
2024-06-13 20:08:56,0.5119050741,-0.4752531648,0.09285151958,-6.959944248,-4.335899353,1.120486379,-224.2718446601941,293.77669902912623,-75.74757281553397,-8043.368932038835,2396.776699029126,1478.0291262135922,2
2024-06-13 20:08:56,-0.2443460971,0.1392772794,-0.2724458873,-8.188169479,-5.307945251,2.940079689,-556.6346153846154,245.84615384615384,79.19230769230768,-7962.576923076923,2243.8076923076924,1560.1923076923076,2
2024-06-13 20:08:56,0.1233947799,0.03298672289,-0.05742133409,-7.783549786,-5.035006046,2.829946518,-471.7864077669903,601.8932038834952,11.582524271844662,-7949.834951456311,2333.5631067961167,1491.990291262136,2
2024-06-13 20:08:56,0.1233947799,0.03298672289,-0.05742133409,-7.783549786,-5.035006046,2.829946518,-455.375,749.5961538461538,-314.2307692307692,-7639.9807692307695,2131.6826923076924,1539.2403846153843,2
2024-06-13 20:08:56,0.7147123218,-0.07941248268,0.0171042271,-7.759607792,-5.501875401,2.777273893,-860.1076923076923,940.8461538461538,-132.66153846153847,-7578.846153846154,2018.9076923076923,1175.1538461538462,2
2024-06-13 20:08:56,0.7147123218,-0.07941248268,0.0171042271,-7.759607792,-5.501875401,2.777273893,-993.842105263158,1021.7368421052632,153.68421052631578,-7664.684210526316,2309.315789473684,1262.421052631579,2
2024-06-13 20:08:57,0.4642575979,-0.2138028294,0.2455678284,-7.673416615,-6.121973515,2.693476915,-1023.504761904762,591.7238095238096,23.02857142857144,-7903.295238095238,2506.3142857142857,1184.295238095238,2
2024-06-13 20:08:57,-1.130100727,0.4996877611,-0.3408628106,-5.930437565,-6.904877663,1.984793186,-489.2857142857143,154.08163265306123,-673.5510204081633,-7763.9795918367345,2301.122448979592,1407.2448979591836,2
2024-06-13 20:08:57,-1.130100727,0.4996877611,-0.3408628106,-5.930437565,-6.904877663,1.984793186,-409.73333333333335,495.0,-745.8,-7593.133333333333,2182.733333333333,1286.4,2
2024-06-13 20:08:57,-0.3530801237,-0.25167647,-0.6707300544,-6.859387875,-6.828263283,1.431732655,-917.9903846153846,991.4230769230768,-487.5192307692308,-7970.913461538462,2010.817307692308,842.2692307692307,2
2024-06-13 20:08:57,0.326202035,-0.196698606,-0.1123992056,-8.109161377,-7.694964409,3.105279684,-912.3495145631068,897.4466019417475,-835.5436893203884,-7914.116504854369,1787.4854368932038,720.1456310679612,2
2024-06-13 20:08:57,0.326202035,-0.196698606,-0.1123992056,-8.109161377,-7.694964409,3.105279684,-733.0873786407767,722.4660194174758,-478.68932038834953,-7872.495145631068,1827.504854368932,461.5922330097088,2
2024-06-13 20:08:57,0.6059783101,-0.2089159191,0.02565634064,-6.167463779,-6.342240334,3.576937437,-421.54285714285714,476.1238095238096,-215.28571428571428,-7895.7904761904765,1808.904761904762,472.06666666666666,2
2024-06-13 20:08:57,0.6059783101,-0.2089159191,0.02565634064,-6.167463779,-6.342240334,3.576937437,-372.0550458715596,-80.6697247706422,353.3669724770642,-7860.678899082569,1712.880733944954,475.3119266055046,2
2024-06-13 20:08:57,-0.4202753007,0.2394591719,-0.02809980139,-6.052541733,-9.3685112,2.67432332,9.959183673469388,42.5,290.4183673469388,-8041.295918367346,1735.15306122449,485.2040816326531,2
2024-06-13 20:08:57,-0.9419541955,0.4911356568,-0.5106833577,-5.006275654,-7.836222172,3.090914488,-337.8,-56.1,365.8,-8054.0,1949.7,445.2,2
2024-06-13 20:08:58,-0.9419541955,0.4911356568,-0.5106833577,-5.006275654,-7.836222172,3.090914488,-337.4,269.2857142857143,-73.57142857142857,-8007.542857142857,2110.0,437.0285714285714,2
2024-06-13 20:08:58,-0.908967495,-0.5412266254,-0.6524040699,-2.588132143,-7.292738438,0.7422025204,-372.4411764705882,248.26470588235293,-26.88235294117647,-8051.35294117647,2172.676470588235,471.8235294117647,2
2024-06-13 20:08:58,-1.576032281,-1.177748203,-2.394591808,-0.895431459,-10.43393135,0.5770025849,-320.45871559633025,-3.486238532110092,74.5137614678899,-7964.4495412844035,2129.422018348624,434.7706422018349,2
2024-06-13 20:08:58,-1.576032281,-1.177748203,-2.394591808,-0.895431459,-10.43393135,0.5770025849,-266.33027522935777,347.88990825688074,-74.11009174311926,-8009.40366972477,2171.623853211009,611.8348623853211,2
2024-06-13 20:08:58,-0.04398229718,-0.531452775,-1.929112434,-0.9074024558,-13.66131496,0.3878606856,65.375,294.125,-88.75,-8020.875,1956.75,559.75,2
2024-06-13 20:08:58,-0.04398229718,-0.531452775,-1.929112434,-0.9074024558,-13.66131496,0.3878606856,81.19417475728156,-2.0,58.82524271844659,-7992.961165048544,2010.1553398058247,549.8155339805825,2
2024-06-13 20:08:58,1.843591332,-0.196698606,-0.2651155293,-1.04147768,-10.88404083,2.691082716,-163.53623188405797,97.4927536231884,-153.68115942028984,-8017.63768115942,1956.782608695652,235.71014492753625,2
2024-06-13 20:08:58,3.199712038,-0.03054326214,0.8271115422,0.8786720037,-10.09395409,5.846640587,-96.28985507246378,-67.55072463768116,-124.81159420289856,-8016.884057971014,1949.1304347826087,423.768115942029,2
2024-06-13 20:08:58,3.199712038,-0.03054326214,0.8271115422,0.8786720037,-10.09395409,5.846640587,28.455813953488374,-119.73488372093024,-86.16744186046512,-7999.813953488372,2022.320930232558,545.413953488372,2
2024-06-13 20:08:58,1.020144939,-0.008552113548,0.6157521605,1.197100878,-5.063736439,6.442796707,12.641860465116276,-124.85116279069769,-98.72558139534884,-7985.860465116279,2021.3906976744183,551.4604651162791,2
2024-06-13 20:08:59,0.8686503768,-0.1624901593,0.3628539443,-0.03830722719,-5.772420406,7.984662533,-294.2315789473684,103.66315789473686,-101.38947368421051,-8005.347368421053,2326.157894736842,535.5473684210526,2
2024-06-13 20:08:59,0.8686503768,-0.1624901593,0.3628539443,-0.03830722719,-5.772420406,7.984662533,-335.63366336633663,-16.0,91.32673267326732,-7988.207920792079,2044.663366336633,212.7920792079208,2
2024-06-13 20:08:59,0.5876523852,-0.7562511563,0.616973877,0.9145850539,-5.451597214,10.21605873,-321.3269230769231,-76.34615384615384,-4.84615384615384,-7998.365384615385,1997.4038461538464,216.94230769230768,2
2024-06-13 20:08:59,0.5876523852,-0.7562511563,0.616973877,0.9145850539,-5.451597214,10.21605873,57.2,-118.46666666666668,-85.86666666666667,-7992.266666666666,2158.266666666667,226.06666666666663,2
2024-06-13 20:08:59,-0.1026253626,-0.07941248268,0.2858849466,0.5243301988,-4.278438568,8.449137688,21.21153846153846,-101.28846153846152,-56.88461538461539,-7782.615384615385,2324.596153846154,226.3653846153846,2
2024-06-13 20:08:59,-0.5448917747,-0.1185078546,0.2235766798,0.2681505978,-6.382941723,8.051700592,-352.1515151515151,-295.7474747474748,81.4040404040404,-7859.242424242424,2213.838383838384,549.010101010101,2
2024-06-13 20:08:59,-0.5448917747,-0.1185078546,0.2235766798,0.2681505978,-6.382941723,8.051700592,-73.61764705882354,58.02941176470589,24.117647058823536,-7970.176470588235,2359.029411764706,547.4411764705883,2
2024-06-13 20:08:59,-0.03176499158,0.145385921,-0.106290549,-0.4429273009,-6.06451273,7.912836552,-312.9230769230769,92.8846153846154,50.15384615384615,-7947.461538461538,2337.8076923076924,578.6923076923077,2
2024-06-13 20:08:59,-0.2028072625,1.397659659,-0.3335324228,-2.470816135,-6.58405447,8.195352554,67.39423076923077,106.2403846153846,116.90384615384616,-7977.211538461538,2079.288461538461,518.7403846153846,2
2024-06-13 20:08:59,-0.2028072625,1.397659659,-0.3335324228,-2.470816135,-6.58405447,8.195352554,108.3861386138614,60.85148514851485,-1.742574257425744,-7723.0990099009905,2397.128712871287,628.7623762376238,2
2024-06-13 20:09:00,-1.886351824,1.341460109,-0.4679227769,-1.843535304,-5.453991413,6.931213856,-321.5,-115.125,-266.125,-7974.0,2296.0,567.0,2
2024-06-13 20:09:00,-1.886351824,1.341460109,-0.4679227769,-1.843535304,-5.453991413,6.931213856,-94.88888888888889,-90.74074074074072,-9.88888888888889,-7980.481481481482,2256.8888888888887,595.3703703703703,2
2024-06-13 20:09:00,-1.365894675,0.7232644558,0.632856369,-1.905784607,-9.050082207,2.643198729,-286.8,43.74,104.14,-7971.99,2314.27,386.45,2
2024-06-13 20:09:00,-1.365894675,0.7232644558,0.632856369,-1.905784607,-9.050082207,2.643198729,10.0,-325.1333333333333,-70.06666666666666,-7977.8,2198.6,431.06666666666666,2
2024-06-13 20:09:00,0.00122173049,0.2736676335,0.03176499158,-4.604049683,-8.473079681,2.671929121,-14.881188118811878,31.881188118811902,-104.5940594059406,-7681.485148514851,2238.2178217821784,502.6831683168317,2
2024-06-13 20:09:00,0.00122173049,0.2736676335,0.03176499158,-5.576095581,-8.090007782,2.130839586,-279.07462686567163,38.52238805970149,69.32835820895522,-7983.835820895522,2194.716417910448,465.2835820895522,2
2024-06-13 20:09:00,0.4850270152,0.3909537494,-0.0415388383,-5.576095581,-8.090007782,2.130839586,-72.8108108108108,44.08108108108108,43.86486486486486,-7960.783783783784,2194.7027027027025,714.7567567567568,2
2024-06-13 20:09:00,0.09285151958,0.4886921942,-0.02565634064,-5.233725071,-8.609549522,0.6177040339,-362.2970297029703,-59.75247524752476,74.42574257425743,-7947.712871287129,2193.1881188118814,824.049504950495,2
2024-06-13 20:09:00,0.09285151958,0.4886921942,-0.02565634064,-5.233725071,-8.609549522,0.6177040339,-157.60747663551402,225.11214953271028,82.1214953271028,-7677.29906542056,2425.504672897196,800.373831775701,2
2024-06-13 20:09:01,0.3139847219,-0.04398229718,0.2235766798,-4.75488472,-8.24802494,0.0359130241,-290.921568627451,320.8137254901961,-97.57843137254902,-7954.892156862745,2206.794117647059,485.5490196078432,2
2024-06-13 20:09:01,0.7843509912,-0.2687807083,0.4569272101,-4.65193367,-8.279149055,1.048660398,-315.78846153846155,283.6923076923077,62.19230769230769,-7662.692307692308,2269.5576923076924,419.2884615384616,2
2024-06-13 20:09:01,0.7843509912,-0.2687807083,0.4569272101,-4.65193367,-8.279149055,1.048660398,-337.2830188679245,58.226415094339615,110.9622641509434,-7671.698113207547,2208.471698113208,402.8867924528302,2
2024-06-13 20:09:01,0.5656611919,-0.1050688252,0.3628539443,-4.977545261,-8.092401505,2.217030764,-283.7216494845361,261.4020618556701,-117.82474226804123,-7676.649484536082,2260.721649484536,628.0515463917526,2
2024-06-13 20:09:01,-0.2211332172,0.3579670191,0.2565633953,-6.974309444,-7.307103634,2.590526342,-277.1923076923077,-78.1923076923077,47.230769230769226,-7700.923076923077,2236.653846153846,630.5384615384615,2
2024-06-13 20:09:01,-0.2211332172,0.3579670191,0.2565633953,-6.974309444,-7.307103634,2.590526342,16.144230769230774,-58.05769230769231,-98.78846153846156,-7673.807692307692,2241.6153846153848,409.2019230769231,2
2024-06-13 20:09:01,0.3286454976,0.01343903504,0.1588249654,-6.160281181,-6.143521786,2.743755102,-289.13861386138615,-97.76237623762376,59.53465346534654,-7668.80198019802,2245.138613861386,405.86138613861385,2
2024-06-13 20:09:01,0.3799581826,-0.06475171447,0.03054326214,-6.282385349,-6.16506958,2.856282711,-311.66346153846155,-57.99038461538461,92.03846153846156,-7697.615384615385,2259.221153846154,417.0673076923077,2
2024-06-13 20:09:02,0.37751472,-0.01954768784,0.1160643995,-6.224924564,-5.705382824,3.833117008,-45.8235294117647,-48.88235294117647,-70.29411764705883,-7884.235294117647,2291.3529411764707,589.5882352941177,2
2024-06-13 20:09:02,0.5632177591,-0.04398229718,0.06352998316,-6.047753334,-7.316680431,3.488351822,-272.17171717171715,-80.21212121212122,-126.68686868686868,-7666.959595959596,2625.373737373737,407.8989898989899,2
2024-06-13 20:09:02,-0.4495968223,0.2944370508,-0.109955743,-6.617573261,-7.211335659,3.981557369,-334.0377358490566,-81.29245283018868,-11.08490566037736,-7621.330188679245,2330.745283018868,400.35849056603774,2
2024-06-13 20:09:02,-0.4495968223,0.2944370508,-0.109955743,-6.617573261,-7.211335659,3.981557369,83.45205479452055,5.534246575342465,-83.97260273972603,-7977.45205479452,2424.575342465753,518.931506849315,2
2024-06-13 20:09:02,-0.04276056588,0.01466076635,0.04764748737,-6.631938934,-7.070077419,3.23456645,74.5,-232.9655172413793,-6.586206896551722,-7607.551724137931,2617.706896551724,464.7586206896552,2
2024-06-13 20:09:02,-0.04276056588,0.01466076635,0.04764748737,-6.631938934,-7.070077419,3.23456645,-322.42857142857144,99.0,39.68571428571428,-7647.657142857143,2263.742857142857,440.25714285714287,2
2024-06-13 20:09:02,-0.05986479297,0.02199114859,0.08429940045,-5.762843609,-7.309497833,4.185064793,-379.38235294117646,-82.52941176470588,33.88235294117647,-7907.705882352941,2287.794117647059,429.0882352941176,2
2024-06-13 20:09:02,-0.5290092826,0.1295034289,-0.2174680233,-6.337451935,-7.35977602,3.438073635,112.53846153846152,-70.875,85.47115384615384,-7653.509615384615,2282.567307692308,431.1442307692308,2
2024-06-13 20:09:02,-0.5290092826,0.1295034289,-0.2174680233,-6.337451935,-7.35977602,3.438073635,77.53846153846155,-59.5,100.34615384615384,-7678.884615384615,2551.192307692308,402.2692307692308,2
2024-06-13 20:09:02,0.1624901593,-0.007330383174,0.04031710699,-6.560112476,-6.663063526,3.186682463,-310.2970297029703,44.237623762376245,83.7128712871287,-7713.6732673267325,2307.6930693069307,451.2376237623762,2
2024-06-13 20:09:03,0.6438519955,-0.1075122803,-0.02443460934,-6.564900875,-5.293580055,2.67671752,-322.1142857142857,-47.22857142857143,111.71428571428572,-7676.8,2611.2,407.0,2
2024-06-13 20:09:03,0.6438519955,-0.1075122803,-0.02443460934,-6.564900875,-5.293580055,2.67671752,-103.40816326530611,-23.81632653061226,101.87755102040816,-7658.530612244898,2258.408163265306,456.6734693877551,2
2024-06-13 20:09:03,0.6316346526,-0.1905899495,0.1343903542,-6.289567947,-6.667851925,3.744531393,30.692307692307693,-99.46153846153848,118.3076923076923,-7835.384615384615,2474.4615384615386,446.84615384615387,2
2024-06-13 20:09:03,0.6316346526,-0.1905899495,0.1343903542,-6.289567947,-6.667851925,3.744531393,-154.14606741573033,-109.64044943820224,81.65168539325843,-7642.808988764045,2592.94382022472,480.1685393258427,2
2024-06-13 20:09:03,0.2968805134,-0.04520402849,0.09407325089,-6.162675381,-7.802703381,4.149151325,-218.9142857142857,-107.15238095238097,-97.73333333333332,-7789.066666666667,2464.590476190476,647.3238095238096,2
2024-06-13 20:09:03,-1.193630695,0.1087340117,-0.1673770845,-5.42765522,-7.146692276,1.675941229,-111.05825242718448,-96.92233009708738,89.90291262135922,-7643.145631067961,2618.990291262136,477.66990291262135,2
2024-06-13 20:09:03,-1.193630695,0.1087340117,-0.1673770845,-5.42765522,-7.146692276,1.675941229,-221.36866359447004,-73.8110599078341,116.0,-7648.442396313364,2605.2350230414745,487.3917050691245,2
2024-06-13 20:09:03,-0.2235766798,-0.06719517708,-0.05497787148,-6.186617374,-7.407660007,2.700659513,-49.479262672811046,-75.65437788018433,116.0,-7622.175115207373,2644.4055299539173,486.00921658986175,2
2024-06-13 20:09:03,-0.08185594529,-0.05131268129,-0.1209513173,-5.401319027,-7.716512203,2.092532396,-108.48780487804878,246.78048780487805,91.07317073170732,-7646.195121951219,2625.3414634146343,418.7073170731707,2
2024-06-13 20:09:03,-0.08185594529,-0.05131268129,-0.1209513173,-5.401319027,-7.716512203,2.092532396,-80.12380952380953,-62.82857142857143,42.95238095238095,-7647.619047619048,2633.333333333333,398.87619047619046,2
2024-06-13 20:09:04,-0.3445279896,-0.2101376504,-0.06230825558,-5.360617638,-8.039729118,1.726219416,-280.4,-102.4,93.6,-7600.6,2639.8,443.4,2
2024-06-13 20:09:04,-0.3445279896,-0.2101376504,-0.06230825558,-5.360617638,-8.039729118,1.726219416,-139.8450704225352,294.14084507042253,79.26760563380282,-7633.30985915493,2612.5915492957747,616.8732394366198,2
2024-06-13 20:09:04,-0.08796459436,-0.6633996367,0.0415388383,-5.954379559,-8.054094315,2.030282974,-146.88732394366198,278.6478873239437,89.83098591549296,-7669.225352112676,2617.521126760563,440.8169014084507,2
2024-06-13 20:09:04,0.625526011,-0.5082398653,0.3909537494,-6.449979305,-7.036558628,5.154716492,63.69902912621359,-97.46601941747574,88.3883495145631,-7627.097087378641,2655.52427184466,616.6019417475728,2
2024-06-13 20:09:04,-0.37751472,0.967610538,-0.1832595766,-6.263231754,-5.61679697,6.31829834,-306.6666666666667,-23.666666666666664,38.0,-7750.0,2627.333333333333,616.0,2
2024-06-13 20:09:04,0.01221730467,1.320690632,-0.4398229718,-5.547365189,-8.544905663,2.334346771,-102.01941747572816,-251.05825242718447,-22.388349514563103,-7613.281553398058,2454.1747572815534,480.62135922330094,2
2024-06-13 20:09:04,0.01221730467,1.320690632,-0.4398229718,-5.547365189,-8.544905663,2.334346771,-114.68932038834951,53.80582524271845,-360.252427184466,-7604.864077669903,2649.223300970874,471.2621359223301,2
2024-06-13 20:09:04,0.4825835526,0.06597344577,-0.1319468915,-4.881777287,-7.953537941,0.4094084799,-232.64077669902912,-61.22330097087379,69.2233009708738,-7627.533980582524,2674.553398058252,460.5145631067961,2
2024-06-13 20:09:04,0.4825835526,0.06597344577,-0.1319468915,-4.881777287,-7.953537941,0.4094084799,-287.38235294117646,-90.73529411764706,22.294117647058822,-7648.941176470588,2637.823529411765,474.38235294117646,2
2024-06-13 20:09:05,0.1490511149,-0.1356120855,-0.1038470939,-5.731719017,-7.630321026,1.754949808,-318.4622641509434,-29.72641509433961,69.78301886792453,-7623.283018867924,2616.4528301886794,504.622641509434,2
2024-06-13 20:09:05,0.3689626157,0.1343903542,0.00244346098,-5.609614372,-8.559270859,1.731007814,-261.80582524271847,168.29126213592232,82.83495145631068,-7633.796116504855,2609.5631067961167,490.8446601941748,2
2024-06-13 20:09:05,0.3689626157,0.1343903542,0.00244346098,-5.609614372,-8.559270859,1.731007814,-48.31683168316832,83.42574257425741,-81.52475247524752,-7644.227722772277,2620.5346534653463,422.1287128712871,2
2024-06-13 20:09:05,0.01221730467,0.09162978828,0.08307767659,-5.300762653,-7.491456985,2.169146776,-10.80952380952381,88.00952380952381,-29.266666666666666,-7630.761904761905,2554.0,422.752380952381,2
2024-06-13 20:09:05,0.5717698932,-0.2443460971,0.2712241709,-5.38934803,-8.990227699,2.33913517,39.92233009708738,-47.42718446601942,22.689320388349515,-7585.621359223301,2493.378640776699,432.3689320388349,2
2024-06-13 20:09:05,0.5717698932,-0.2443460971,0.2712241709,-5.38934803,-8.990227699,2.33913517,44.45098039215687,-84.01960784313725,119.54901960784314,-7597.431372549019,2475.960784313725,404.4313725490196,2
2024-06-13 20:09:05,0.2406809032,-0.03420845419,0.1551597714,-5.679046631,-7.776367188,2.710236311,-203.3495145631068,-17.66990291262136,58.16504854368932,-7610.961165048544,2470.980582524272,418.873786407767,2
2024-06-13 20:09:05,0.2406809032,-0.03420845419,0.1551597714,-5.679046631,-7.776367188,2.710236311,-70.72413793103448,17.0,56.396551724137936,-7597.431034482759,2440.189655172414,448.0517241379311,2
2024-06-13 20:09:05,-0.06597344577,-0.109955743,0.05009094998,-6.387730122,-6.299144745,2.482787132,-370.6808510638298,32.734042553191486,57.712765957446805,-7611.946808510638,2551.9148936170213,464.40425531914894,2
2024-06-13 20:09:05,0.3750712574,-0.1392772794,0.1282816976,-5.875370979,-7.278373241,4.331110954,-320.43939393939394,-47.13636363636364,60.10606060606061,-7621.621212121212,2444.1666666666665,462.3181818181818,2
2024-06-13 20:09:06,0.3750712574,-0.1392772794,0.1282816976,-5.875370979,-7.278373241,4.331110954,-330.0379746835443,-76.18987341772151,94.79746835443038,-7609.379746835443,2436.4050632911394,467.126582278481,2
2024-06-13 20:09:06,-0.02809980139,-0.009773843922,0.0,-5.078101635,-7.089231014,3.993528366,49.693069306930695,-75.06930693069307,-90.4059405940594,-7607.633663366337,2670.970297029703,461.5940594059406,2
2024-06-13 20:09:06,0.1246165112,-0.06963863969,-0.02076941915,-4.647145271,-8.197746277,4.331110954,-293.1089108910891,-76.03960396039604,89.65346534653466,-7626.306930693069,2779.207920792079,390.1782178217822,2
2024-06-13 20:09:06,0.1246165112,-0.06963863969,-0.02076941915,-4.647145271,-8.197746277,4.331110954,-356.7058823529412,-14.980392156862743,72.25490196078431,-7590.78431372549,2452.0392156862745,420.1960784313725,2
2024-06-13 20:09:06,0.1038470939,-0.06475171447,-0.05986479297,-5.46596241,-7.414842606,3.648763418,-140.46601941747574,-83.71844660194175,85.25242718446601,-7616.417475728155,2498.7087378640776,412.8155339805825,2
2024-06-13 20:09:06,0.1038470939,-0.06475171447,-0.05986479297,-5.46596241,-7.414842606,3.648763418,118.20192307692308,-116.14423076923076,47.38461538461539,-7631.884615384615,2478.6346153846152,411.8942307692308,2
2024-06-13 20:09:06,-0.822224617,0.232128799,-0.1197295859,-6.121973515,-7.740454197,3.97916317,24.932692307692307,79.04807692307693,93.53846153846156,-7628.038461538462,2499.788461538461,441.7019230769231,2
2024-06-13 20:09:06,0.1954768747,0.03298672289,0.01343903504,-6.368576527,-6.710947514,2.78924489,-244.3653846153846,-31.17307692307692,-60.38461538461539,-7601.038461538462,2492.346153846154,424.6730769230769,2
2024-06-13 20:09:06,0.1954768747,0.03298672289,0.01343903504,-6.368576527,-6.710947514,2.78924489,43.53398058252429,220.97087378640776,-102.71844660194176,-7791.970873786407,2474.0,450.621359223301,2
2024-06-13 20:09:06,-0.1087340117,0.06719517708,0.125838235,-6.426037312,-6.495469093,3.327940464,-264.7291666666667,-54.385416666666686,118.13541666666669,-7636.4375,2898.5729166666665,452.9479166666666,2
2024-06-13 20:09:07,0.3188716471,-0.06597344577,-0.0293215327,-5.595249176,-8.104372978,2.85867691,-327.2818181818181,63.09090909090909,84.78181818181818,-7768.454545454545,2613.6454545454544,460.0090909090909,2
2024-06-13 20:09:07,0.3188716471,-0.06597344577,-0.0293215327,-5.595249176,-8.104372978,2.85867691,-302.0833333333333,10.166666666666655,16.75,-7663.916666666667,2604.8229166666665,490.65625,2
2024-06-13 20:09:07,0.2028072625,0.00122173049,-0.01954768784,-6.153098583,-6.631938934,2.722207308,-291.0467289719626,-77.6355140186916,10.64485981308411,-7641.448598130841,2695.280373831776,537.4953271028037,2
2024-06-13 20:09:07,0.2028072625,0.00122173049,-0.01954768784,-6.153098583,-6.631938934,2.722207308,-130.61386138613864,7.900990099009903,43.366336633663366,-7637.20792079208,2701.6435643564355,474.3960396039604,2
2024-06-13 20:09:07,0.2553416789,-0.06230825558,0.02565634064,-5.049371243,-6.186617374,4.168305397,292.70873786407765,-161.15533980582524,354.6116504854369,-7564.932038834951,2763.6893203883496,479.7087378640777,2
2024-06-13 20:09:07,0.1380555481,-0.07819075137,-0.01588249579,-6.105214119,-6.983886242,3.181894064,-33.24752475247525,-158.86138613861385,-34.22772277227722,-7763.188118811881,2971.079207920792,654.1485148514852,2
2024-06-13 20:09:07,0.1380555481,-0.07819075137,-0.01588249579,-6.105214119,-6.983886242,3.181894064,-183.495145631068,-11.58252427184466,-266.4368932038835,-7761.57281553398,2892.339805825243,633.8932038834952,2
2024-06-13 20:09:07,-0.2455678284,0.03787364438,0.0720821023,-5.612008572,-7.580042362,3.093308687,-560.1603773584906,270.0188679245283,-193.03773584905665,-7608.11320754717,2539.132075471698,465.9905660377359,2
2024-06-13 20:09:07,0.1087340117,0.01832595654,-0.003665191587,-5.576095581,-7.333439827,3.361459255,-357.6842105263158,-51.68421052631579,41.26315789473684,-7610.421052631579,2634.157894736842,460.10526315789474,2
2024-06-13 20:09:07,0.1087340117,0.01832595654,-0.003665191587,-5.576095581,-7.333439827,3.361459255,-304.39473684210526,-73.39473684210526,66.92105263157895,-7606.473684210527,2629.5526315789475,452.8684210526316,2
2024-06-13 20:09:08,-0.141720742,0.05009094998,-0.04520402849,-5.633556366,-7.477091789,2.693476915,-64.84684684684684,77.22522522522523,-107.73873873873872,-7613.234234234234,2484.126126126126,486.97297297297297,2
2024-06-13 20:09:08,-0.141720742,0.05009094998,-0.04520402849,-5.633556366,-7.477091789,2.693476915,-306.52525252525254,-48.505050505050505,44.57575757575758,-7617.434343434344,2507.0,456.969696969697,2
2024-06-13 20:09:08,-0.9126327038,0.1685988009,-0.00244346098,-4.881777287,-8.434772491,3.584120035,-284.5904761904762,-122.27619047619048,-287.0952380952381,-7579.847619047619,2623.552380952381,789.8095238095239,2
2024-06-13 20:09:08,0.01588249579,-0.03665191308,0.2101376504,-5.106832027,-9.366117477,2.355894566,-132.5,-63.75,94.4,-7648.25,2473.8,498.3,2
2024-06-13 20:09:08,0.01588249579,-0.03665191308,0.2101376504,-5.106832027,-9.366117477,2.355894566,-322.75471698113205,-76.91509433962264,8.10377358490566,-7574.801886792453,2658.301886792453,481.9245283018868,2
2024-06-13 20:09:08,0.2504547536,-0.5864306092,0.8564330935,-6.404489517,-5.693411827,4.05338335,52.65384615384615,101.23076923076924,97.84615384615384,-7650.346153846154,2473.6153846153848,510.84615384615387,2
2024-06-13 20:09:08,0.2846632004,0.06475171447,0.07330382615,-6.184223175,-5.075707436,4.865017891,48.61764705882353,-108.58823529411764,-332.11764705882354,-7623.205882352941,2680.3529411764707,837.6176470588235,2
2024-06-13 20:09:08,0.2590068579,-0.08796459436,0.3946189582,-6.924031258,-6.933608055,2.992752075,101.84,53.46,-178.5,-7621.43,2435.36,832.88,2
2024-06-13 20:09:08,0.2590068579,-0.08796459436,0.3946189582,-6.924031258,-6.933608055,2.992752075,30.0,-84.0,-340.0,-7619.545454545455,2288.454545454545,851.1818181818181,2
2024-06-13 20:09:09,0.02199114859,0.09529497474,-0.04520402849,-6.301538944,-4.996698856,3.945644379,52.44660194174757,325.05825242718447,-78.67961165048544,-7638.825242718447,2298.553398058252,792.1165048543689,2
2024-06-13 20:09:09,-0.1221730486,0.02809980139,-0.04520402849,-6.708553314,-6.239289761,4.352658749,33.76237623762376,351.2970297029703,-94.45544554455444,-7642.247524752475,2301.8118811881186,535.1287128712871,2
2024-06-13 20:09:09,-0.1221730486,0.02809980139,-0.04520402849,-6.708553314,-6.239289761,4.352658749,-50.81372549019608,-19.058823529411764,300.19607843137254,-7633.637254901961,2478.460784313725,447.7745098039216,2
2024-06-13 20:09:09,-0.283441484,0.287106663,-0.7428121567,-6.414066315,-2.916137695,3.251325846,91.23300970873788,-70.02912621359224,-71.26213592233009,-7604.252427184466,2468.3203883495144,428.252427184466,2
2024-06-13 20:09:09,-0.8784242272,0.6988298297,-0.7977899909,-6.907271862,-6.39491272,2.894589901,25.807692307692307,85.25961538461539,178.67307692307693,-7609.240384615385,2514.201923076923,407.13461538461536,2
2024-06-13 20:09:09,-0.8784242272,0.6988298297,-0.7977899909,-6.907271862,-6.39491272,2.894589901,-174.02547770700636,64.10828025477707,-58.1656050955414,-7654.197452229299,2540.605095541401,405.7070063694268,2
2024-06-13 20:09:09,0.2846632004,-0.05009094998,-0.1832595766,-5.23851347,-9.038111687,1.656787634,-356.2040816326531,-83.81632653061224,99.91836734693878,-7609.693877551021,2867.326530612245,392.6530612244898,2
2024-06-13 20:09:09,0.2846632004,-0.05009094998,-0.1832595766,-5.23851347,-9.038111687,1.656787634,-172.2075471698113,120.64150943396226,-122.64150943396226,-7606.207547169812,2492.301886792453,613.433962264151,2
2024-06-13 20:09:09,0.4483750761,-0.1087340117,0.1576032341,-5.463568211,-7.477091789,2.765302896,52.24752475247524,-85.70297029702971,-96.14851485148516,-7597.980198019802,2635.019801980198,629.7227722772277,2
2024-06-13 20:09:09,-0.290771842,0.1356120855,-0.05864306539,-5.070919037,-9.550470352,1.556231141,-88.24528301886792,24.47169811320755,102.79245283018868,-7658.132075471698,2723.301886792453,628.9811320754717,2
2024-06-13 20:09:10,-0.290771842,0.1356120855,-0.05864306539,-5.070919037,-9.550470352,1.556231141,-164.3960396039604,-3.9702970297029694,32.93069306930693,-7586.702970297029,2506.732673267327,625.4653465346535,2
2024-06-13 20:09:10,-0.6609562039,-0.2968805134,0.5131267905,-6.473921299,-7.982268333,2.995146275,92.02941176470588,108.52941176470588,-47.76470588235294,-7646.264705882353,2863.6176470588234,425.55882352941177,2
2024-06-13 20:09:10,0.1734857261,-0.1942551434,0.9651671052,-8.111555099,-6.744466305,3.921702385,-282.7692307692308,121.6153846153846,25.846153846153847,-7575.307692307692,2775.538461538461,464.7307692307692,2
2024-06-13 20:09:10,0.1734857261,-0.1942551434,0.9651671052,-8.111555099,-6.744466305,3.921702385,93.73949579831933,-18.050420168067227,-95.66386554621847,-7591.890756302521,2833.310924369748,450.5378151260504,2
2024-06-13 20:09:10,-0.07086037099,0.2419026345,0.8833111525,-7.517793179,-4.90811348,3.045424461,97.10084033613444,-131.91596638655463,-3.226890756302524,-7686.848739495798,2843.81512605042,448.436974789916,2
2024-06-13 20:09:10,-0.07086037099,0.2419026345,0.8833111525,-7.517793179,-4.90811348,3.045424461,100.46218487394958,-245.781512605042,89.21008403361344,-7781.806722689075,2854.3193277310925,446.3361344537816,2
2024-06-13 20:09:10,0.2761110961,-0.1185078546,0.2565633953,-6.998251438,-3.648763418,2.463633537,-268.2307692307692,-54.46153846153846,-169.15384615384616,-7727.461538461538,2734.769230769231,409.9230769230769,2
2024-06-13 20:09:10,-0.07941248268,0.07819075137,-0.1233947799,-7.668628216,-4.8291049,3.502717018,-332.1454545454545,49.47272727272727,94.27272727272728,-7569.490909090909,2849.7818181818184,442.03636363636366,2
2024-06-13 20:09:10,-0.07941248268,0.07819075137,-0.1233947799,-7.668628216,-4.8291049,3.502717018,-1.2363636363636488,74.01818181818182,48.81818181818182,-7777.672727272728,2496.1454545454544,459.3090909090909,2
2024-06-13 20:09:10,0.03909537569,-0.2040289938,0.04276056588,-6.4715271,-4.989516258,4.039018154,60.81720430107527,44.31182795698925,-99.32258064516128,-7559.0,2755.8279569892475,424.1612903225806,2
2024-06-13 20:09:11,-0.5204572082,0.2736676335,-0.3103195429,-7.491456985,-4.979939461,3.220201254,-6.685714285714312,-99.93333333333334,5.466666666666667,-7755.952380952381,2913.6857142857143,491.2,2
2024-06-13 20:09:11,-0.5204572082,0.2736676335,-0.3103195429,-7.491456985,-4.979939461,3.220201254,-304.03921568627453,74.66666666666666,-315.1764705882353,-7561.039215686274,2832.627450980392,464.80392156862746,2
2024-06-13 20:09:11,0.216246292,-0.09529497474,-0.01954768784,-8.006210327,-4.355052948,3.349488258,-223.2924528301887,99.40566037735849,-300.3490566037736,-7620.641509433963,2835.877358490566,715.7641509433962,2
2024-06-13 20:09:11,0.216246292,-0.09529497474,-0.01954768784,-8.006210327,-4.355052948,3.349488258,-82.19417475728156,13.106796116504851,-266.0,-7719.330097087379,2594.78640776699,780.7669902912621,2
2024-06-13 20:09:11,0.07086037099,-0.02076941915,-0.07941248268,-7.491456985,-4.611232281,3.23456645,33.0,40.0,-36.076923076923066,-7613.0,2520.4615384615386,448.2307692307692,2
2024-06-13 20:09:11,-0.1392772794,-0.04520402849,-0.1185078546,-7.888894558,-4.505887508,3.107673883,-198.73469387755105,-125.44897959183676,-66.87755102040816,-7682.0204081632655,2865.775510204081,489.9795918367347,2
2024-06-13 20:09:11,-0.1392772794,-0.04520402849,-0.1185078546,-7.888894558,-4.505887508,3.107673883,-273.07936507936506,-243.8253968253968,-185.22222222222223,-7731.206349206349,2754.8888888888887,589.3650793650794,2
2024-06-13 20:09:11,0.01466076635,0.1172861308,-0.05253441259,-7.829039574,-5.075707436,3.505111217,-251.51612903225805,-88.50537634408602,-8.27956989247312,-7570.10752688172,2698.1720430107525,788.3118279569892,2
2024-06-13 20:09:11,-0.248011291,0.2394591719,-0.09529497474,-7.951143742,-4.623203278,3.936067581,52.98039215686274,119.07843137254902,-80.15686274509804,-7799.411764705882,2780.6470588235293,811.1176470588235,2
2024-06-13 20:09:11,-0.248011291,0.2394591719,-0.09529497474,-7.951143742,-4.623203278,3.936067581,-310.2307692307692,19.769230769230774,-321.61538461538464,-7787.076923076923,2882.076923076923,813.4615384615385,2
2024-06-13 20:09:12,0.008552113548,-0.1197295859,0.1001819,-7.390900612,-5.482721806,3.600879431,-287.3235294117647,149.48039215686276,76.66666666666667,-7583.637254901961,2484.4411764705883,779.5784313725491,2
2024-06-13 20:09:12,0.008552113548,-0.1197295859,0.1001819,-7.390900612,-5.482721806,3.600879431,42.0,-114.2079207920792,87.01980198019803,-7645.59405940594,2842.4752475247524,674.2871287128713,2
2024-06-13 20:09:12,-0.2797762752,0.1563815027,-0.2064724565,-7.568071365,-4.781220913,3.303998232,83.43809523809524,-71.41904761904762,107.94285714285714,-7588.914285714286,2849.4190476190474,464.0571428571429,2
2024-06-13 20:09:12,0.2761110961,-0.1270599663,-0.00244346098,-7.673416615,-4.862623692,3.361459255,-292.6,79.66666666666667,-21.8,-7659.666666666667,2888.5333333333333,574.5333333333333,2
2024-06-13 20:09:12,0.2761110961,-0.1270599663,-0.00244346098,-7.673416615,-4.862623692,3.361459255,-183.42194092827003,-116.57383966244726,-261.5527426160337,-7786.641350210971,2489.700421940928,789.2573839662447,2
2024-06-13 20:09:12,-0.03909537569,0.007330383174,0.02076941915,-8.049305916,-5.104437828,2.604891539,-176.24894514767934,-82.81856540084388,-123.1561181434599,-7707.738396624472,2483.793248945148,785.8818565400844,2
2024-06-13 20:09:12,-0.4117231667,0.1319468915,-0.02199114859,-7.192182064,-5.262455463,4.443638325,-169.0759493670886,-49.063291139240505,15.24050632911394,-7628.835443037975,2477.886075949368,782.506329113924,2
2024-06-13 20:09:12,-0.4117231667,0.1319468915,-0.02199114859,-7.192182064,-5.262455463,4.443638325,-290.1,36.45,-311.85,-7564.25,2480.6,818.65,2
2024-06-13 20:09:12,0.4789183438,-0.2431243658,0.0415388383,-8.281543732,-3.876212597,2.657563925,-118.12380952380953,-325.1047619047619,-334.9238095238095,-7774.961904761904,2860.733333333333,722.047619047619,2
2024-06-13 20:09:12,0.4789183438,-0.2431243658,0.0415388383,-8.281543732,-3.876212597,2.657563925,103.7809523809524,47.27619047619049,-533.0190476190476,-7574.009523809524,2554.0666666666666,698.2380952380952,2
2024-06-13 20:09:13,0.1392772794,-0.09040805697,0.1148426682,-7.92001915,-5.583278179,3.483563423,-151.40384615384616,-71.94230769230768,-182.16346153846155,-7579.807692307692,2639.894230769231,714.4711538461538,2
2024-06-13 20:09:13,-0.1918116808,0.2797762752,-0.1111774743,-7.65426302,-5.317522049,2.439691544,-341.2352941176471,-54.0,-160.47058823529412,-7909.058823529412,2595.3823529411766,676.6176470588235,2
2024-06-13 20:09:13,-0.1918116808,0.2797762752,-0.1111774743,-7.65426302,-5.317522049,2.439691544,-23.411764705882376,51.76470588235294,70.02941176470588,-7719.117647058823,2240.205882352941,763.9117647058823,2
2024-06-13 20:09:13,0.05986479297,0.2040289938,-0.1368338168,-7.599195957,-5.008669853,3.016694069,-91.7972027972028,62.11188811188811,-18.300699300699307,-7625.167832167832,2645.664335664336,757.0979020979021,2
2024-06-13 20:09:13,0.3958406746,-0.02809980139,-0.008552113548,-8.130708694,-5.638344765,2.248155355,-236.27380952380952,276.73809523809524,98.1904761904762,-7588.071428571428,2462.440476190476,690.25,2
2024-06-13 20:09:13,0.3958406746,-0.02809980139,-0.008552113548,-8.130708694,-5.638344765,2.248155355,-439.96261682242994,203.7663551401869,92.8411214953271,-7598.915887850468,2443.92523364486,676.5233644859813,2
2024-06-13 20:09:13,-0.0171042271,-0.05742133409,0.009773843922,-7.254431248,-5.791574001,3.359065056,-528.6666666666666,174.33333333333334,98.0,-7615.333333333333,2590.6666666666665,812.0,2
2024-06-13 20:09:13,-0.0171042271,-0.05742133409,0.009773843922,-7.254431248,-5.791574001,3.359065056,-268.6699029126213,57.660194174757294,82.01941747572815,-7646.543689320389,2655.252427184466,730.1650485436893,2
2024-06-13 20:09:13,0.0720821023,0.0109955743,-0.01343903504,-7.821856976,-4.496310711,2.731784105,-99.2871287128713,-24.029702970297024,69.96039603960396,-7635.108910891089,2585.138613861386,749.3663366336634,2
2024-06-13 20:09:13,0.1209513173,-0.04764748737,-0.003665191587,-6.749254704,-5.803544998,3.804386616,-106.4,61.68571428571428,52.74285714285714,-7631.657142857143,2654.542857142857,651.8857142857142,2
2024-06-13 20:09:14,0.1209513173,-0.04764748737,-0.003665191587,-6.749254704,-5.803544998,3.804386616,-82.94174757281553,60.85436893203884,90.89320388349516,-7591.815533980583,2665.0485436893205,714.5728155339806,2
2024-06-13 20:09:14,0.02443460934,-0.007330383174,-0.08063421398,-7.405265808,-5.707777023,3.256114244,59.72300469483568,-87.03755868544602,61.8075117370892,-7646.957746478874,2485.2347417840374,684.6150234741784,2
2024-06-13 20:09:14,-0.07330382615,0.1942551434,-0.1869247705,-7.95832634,-5.461174011,3.330334663,39.53521126760563,-84.69014084507042,-38.66197183098592,-7637.098591549296,2495.56338028169,683.6760563380282,2
2024-06-13 20:09:14,-0.07330382615,0.1942551434,-0.1869247705,-7.95832634,-5.461174011,3.330334663,-189.08163265306123,238.1020408163265,60.38775510204081,-7633.918367346939,2622.3469387755104,828.1428571428571,2
2024-06-13 20:09:14,0.07330382615,0.09773843735,0.01832595654,-8.025363922,-5.106832027,2.887407303,232.23711340206185,-296.87628865979383,36.43298969072165,-7603.773195876289,2743.494845360825,830.2164948453608,2
2024-06-13 20:09:14,0.07330382615,0.09773843735,0.01832595654,-8.025363922,-5.106832027,2.887407303,57.54205607476635,-229.3364485981309,-157.34579439252337,-7609.028037383177,2388.2897196261683,708.4766355140187,2
2024-06-13 20:09:14,-0.07574728876,0.02076941915,0.09040805697,-7.376535416,-5.114014626,3.327940464,-16.977272727272727,-98.07954545454544,-267.60227272727275,-7648.988636363636,2507.2727272727275,828.2045454545455,2
2024-06-13 20:09:14,0.2223549485,0.05864306539,-0.145385921,-7.55131197,-5.248090267,3.16034627,-244.58490566037736,-28.22641509433962,-257.8679245283019,-7618.264150943396,2625.0188679245284,837.8301886792453,2
2024-06-13 20:09:14,0.2223549485,0.05864306539,-0.145385921,-7.55131197,-5.248090267,3.16034627,94.81132075471696,-57.66037735849056,95.22641509433964,-7666.226415094339,2612.754716981132,816.5471698113207,2
2024-06-13 20:09:14,-0.01466076635,-0.106290549,-0.04398229718,-7.141903877,-5.547365189,2.631227732,-79.41584158415841,121.21782178217822,-15.94059405940594,-7674.970297029703,2625.0,828.4257425742575,2
2024-06-13 20:09:15,-0.3359758854,0.1539380401,-0.06597344577,-8.046912193,-5.286397457,3.040636063,110.4,-93.55,7.100000000000023,-7923.35,2458.1,851.1,2
2024-06-13 20:09:15,0.3481931984,-0.1905899495,0.009773843922,-7.232883453,-5.374982834,2.700659513,-279.61486486486484,95.67567567567568,-267.3783783783784,-7609.682432432432,2606.1554054054054,893.0743243243244,2
2024-06-13 20:09:15,0.3481931984,-0.1905899495,0.009773843922,-7.232883453,-5.374982834,2.700659513,-370.5438596491228,113.80701754385964,60.368421052631575,-7634.017543859649,2638.4561403508774,674.1578947368421,2
2024-06-13 20:09:15,-0.03420845419,0.09407325089,-0.05864306539,-8.319850922,-5.358223438,2.063801765,-285.0,319.0,83.2,-7642.2,2612.0,865.6,2
2024-06-13 20:09:15,0.4422664344,-0.1246165112,-0.003665191587,-7.156269073,-3.775655985,2.466027737,-324.09090909090907,41.15151515151516,32.70707070707071,-7686.949494949495,2646.353535353536,725.0,2
2024-06-13 20:09:15,0.4422664344,-0.1246165112,-0.003665191587,-7.156269073,-3.775655985,2.466027737,-196.66346153846155,-47.00961538461539,43.66346153846154,-7637.75,2522.144230769231,820.6153846153846,2
2024-06-13 20:09:15,0.1368338168,-0.003665191587,0.009773843922,-7.915230751,-5.334281445,3.021482468,-143.37254901960785,168.63725490196077,9.627450980392156,-7623.421568627451,2605.401960784314,872.0588235294117,2
2024-06-13 20:09:15,0.1954768747,0.1172861308,-0.007330383174,-7.577648163,-4.843470097,2.583343744,-252.4,-69.6,-41.400000000000006,-7760.6,2623.0,731.6,2
2024-06-13 20:09:15,0.1954768747,0.1172861308,-0.007330383174,-7.577648163,-4.843470097,2.583343744,34.450980392156865,101.66666666666669,100.74509803921568,-7648.607843137255,2546.43137254902,776.6666666666666,2
2024-06-13 20:09:16,0.05253441259,-0.03176499158,0.01466076635,-7.429207802,-5.57848978,3.373430252,-124.97142857142856,-57.8,67.83809523809524,-7619.190476190476,2562.695238095238,648.4761904761905,2
2024-06-13 20:09:16,0.05253441259,-0.03176499158,0.01466076635,-7.429207802,-5.57848978,3.373430252,-363.9117647058824,-68.47058823529412,-300.69607843137254,-7596.245098039216,2628.333333333333,647.3039215686274,2
2024-06-13 20:09:16,-0.0415388383,-0.02687807009,-0.06475171447,-7.350199223,-5.458779812,3.088520288,-335.8053097345133,101.80530973451329,-132.38938053097343,-7616.522123893806,2454.805309734513,882.1061946902655,2
2024-06-13 20:09:16,-0.381179899,0.1404990107,-0.06719517708,-7.596801758,-6.114790916,3.598485231,67.43478260869566,-85.78260869565217,-62.45652173913044,-7619.902173913043,2484.0978260869565,841.6304347826087,2
2024-06-13 20:09:16,-0.381179899,0.1404990107,-0.06719517708,-7.596801758,-6.114790916,3.598485231,-332.5,-111.98076923076924,40.32692307692308,-7629.307692307692,2472.2115384615386,876.5384615384615,2
2024-06-13 20:09:16,0.4190535545,-0.1001819,0.03420845419,-7.06768322,-5.303156853,2.908955097,-367.0776699029127,-9.233009708737868,-211.93203883495147,-7611.233009708738,2638.52427184466,888.8543689320388,2
2024-06-13 20:09:16,-1.423316002,0.08674286306,0.9114109278,-6.296750546,-6.907271862,2.387019157,-345.20754716981133,69.99056603773585,8.613207547169814,-7610.933962264151,2646.896226415094,880.6415094339623,2
2024-06-13 20:09:16,-1.423316002,0.08674286306,0.9114109278,-6.296750546,-6.907271862,2.387019157,-45.64705882352941,-43.19607843137255,38.50980392156863,-7638.35294117647,2466.0392156862745,808.3529411764706,2
2024-06-13 20:09:16,-0.6988298297,-0.1148426682,0.7586946487,-8.097189903,-3.608062029,1.414973259,6.018867924528301,225.0,81.76415094339623,-7619.292452830188,2486.3396226415093,791.5471698113207,2
2024-06-13 20:09:16,-0.6988298297,-0.1148426682,0.7586946487,-8.097189903,-3.608062029,1.414973259,-301.45714285714286,-2.5428571428571427,-80.31428571428572,-7593.257142857143,2652.8,815.3428571428572,2
2024-06-13 20:09:17,-0.9663888216,-0.9346238375,-0.2309070677,-7.074865818,-4.443638325,1.424550056,-125.74285714285712,138.40952380952382,-52.219047619047615,-7597.542857142857,2566.133333333333,804.3904761904762,2
2024-06-13 20:09:17,-0.5949827433,-1.139874578,-1.877799749,-5.054159641,-5.501875401,4.007893562,49.97142857142859,279.3619047619048,-24.123809523809527,-7601.828571428571,2479.4666666666667,793.4380952380952,2
2024-06-13 20:09:17,-0.5949827433,-1.139874578,-1.877799749,-5.054159641,-5.501875401,4.007893562,-351.91011235955057,-34.32584269662921,-248.0224719101124,-7613.29213483146,2452.6516853932585,520.8876404494382,2
2024-06-13 20:09:17,-1.353677392,-0.2345722616,-2.533869028,-4.01507616,-10.68292809,3.464409828,-338.1818181818182,-41.32057416267943,120.33492822966508,-7601.995215311004,2574.8851674641146,797.444976076555,2
2024-06-13 20:09:17,0.432492584,-0.1795943826,-1.406211853,-2.849100113,-10.723629,3.143586874,-301.8181818181818,-29.83732057416268,121.77033492822966,-7597.688995215311,2471.535885167464,797.9234449760766,2
2024-06-13 20:09:17,0.432492584,-0.1795943826,-1.406211853,-2.849100113,-10.723629,3.143586874,-291.07070707070704,241.5757575757576,-73.82828282828282,-7588.79797979798,2458.4141414141413,770.010101010101,2
2024-06-13 20:09:17,0.1404990107,0.5290092826,-0.2651155293,-2.274491549,-10.73560047,1.855506301,85.5,190.6530612244898,-49.20408163265307,-7656.693877551021,2503.265306122449,432.8469387755102,2
2024-06-13 20:09:17,0.1404990107,0.5290092826,-0.2651155293,-2.274491549,-10.73560047,1.855506301,-12.692307692307692,-24.230769230769223,-108.3846153846154,-7815.0,3075.4615384615386,846.3846153846154,2
2024-06-13 20:09:17,0.5192354321,0.1624901593,0.6194173694,-1.426944256,-9.96466732,2.906560898,72.8,127.8,-562.1,-7607.9,2871.4,833.7,2
2024-06-13 20:09:17,0.2956587672,-0.5180137157,0.4434881806,-0.6344634295,-8.219294548,3.993528366,234.3942307692308,-58.94230769230769,-427.5576923076923,-7718.5,3140.038461538461,669.5769230769231,2
2024-06-13 20:09:18,0.2956587672,-0.5180137157,0.4434881806,-0.6344634295,-8.219294548,3.993528366,459.0980392156863,767.9803921568628,-764.1372549019608,-7388.549019607844,3262.450980392157,795.7058823529412,2
2024-06-13 20:09:18,-0.3139847219,-1.009149432,-0.3481931984,-0.5746083856,-8.28633213,4.989516258,453.1228070175439,766.5087719298245,-977.9122807017544,-7578.561403508772,3361.561403508772,686.0526315789474,2
2024-06-13 20:09:18,0.2064724565,-1.065348983,-0.6487388611,0.03112462163,-9.627084732,5.331887245,156.5531914893617,526.1702127659574,-1734.340425531915,-7721.425531914893,2078.489361702128,451.4468085106383,2
2024-06-13 20:09:18,0.2064724565,-1.065348983,-0.6487388611,0.03112462163,-9.627084732,5.331887245,-90.5049504950495,841.4950495049504,-1860.3465346534647,-7882.871287128712,1037.2574257425742,9.67326732673267,2
2024-06-13 20:09:18,-0.02076941915,0.04520402849,-0.2968805134,0.3615244627,-9.222464561,4.8291049,-428.5625,1583.25,-857.3125,-7649.0,431.8125,-518.25,2
2024-06-13 20:09:18,-0.02076941915,0.04520402849,-0.2968805134,0.3615244627,-9.222464561,4.8291049,39.72,1753.96,32.97,-7848.7,552.53,-1134.56,2
2024-06-13 20:09:18,0.0171042271,0.2895501256,0.334754169,0.1340752989,-9.260771751,5.446808815,160.97196261682242,1724.588785046729,719.5981308411215,-7871.401869158878,712.803738317757,-1339.4018691588783,2
2024-06-13 20:09:18,0.299323976,0.4214970171,0.712268889,-0.1460463107,-8.686163902,4.307168961,328.5922330097088,2647.6116504854367,-56.69902912621359,-7940.601941747573,486.5242718446602,-1763.1553398058252,2
2024-06-13 20:09:18,0.299323976,0.4214970171,0.712268889,-0.1460463107,-8.686163902,4.307168961,519.7087378640776,1919.8155339805824,231.4077669902913,-8162.009708737864,257.3009708737864,-2105.650485436893,2
2024-06-13 20:09:18,0.06230825558,0.3958406746,0.4007275999,0.3854664862,-8.774748802,3.912125587,-63.83443708609271,700.0198675496689,405.9933774834437,-7383.569536423841,453.3245033112583,-3095.1059602649007,2
2024-06-13 20:09:19,-0.04764748737,-0.3836233616,-0.5448917747,-0.5267243981,-9.095572472,3.988739967,-12.17880794701987,670.2185430463576,315.9271523178808,-7529.264900662251,466.569536423841,-3036.165562913908,2
2024-06-13 20:09:19,-0.04764748737,-0.3836233616,-0.5448917747,-0.5267243981,-9.095572472,3.988739967,1191.8529411764705,-511.02941176470586,-349.7352941176471,-7047.4607843137255,746.0196078431372,-2558.2156862745096,2
2024-06-13 20:09:19,-0.004886921961,0.2455678284,-0.1307251602,-0.720654726,-9.172186852,3.904942989,1077.1470588235295,-513.9705882352941,-123.26470588235291,-7493.539215686274,1047.9803921568628,-2279.7843137254904,2
2024-06-13 20:09:19,-0.004886921961,0.2455678284,-0.1307251602,-0.720654726,-9.172186852,3.904942989,-168.13461538461536,-334.4423076923077,-393.3269230769231,-7109.807692307692,1311.1538461538462,-2150.403846153846,2
2024-06-13 20:09:19,0.007330383174,1.111774802,-0.009773843922,-1.56101954,-10.0364933,3.373430252,-1871.7596153846152,1044.8942307692307,253.48076923076928,-7886.211538461538,1019.8942307692308,-2340.788461538461,2
2024-06-13 20:09:19,-0.2113593817,0.5644394755,0.5546656251,-2.245761156,-10.18014526,2.166752577,-2347.323529411765,-99.23529411764709,437.55882352941177,-7673.5,1562.2941176470588,-2286.294117647059,2
2024-06-13 20:09:19,-0.2113593817,0.5644394755,0.5546656251,-2.245761156,-10.18014526,2.166752577,-1539.057142857143,-1440.7809523809524,-404.3809523809524,-7468.371428571429,1795.2571428571428,-1637.7428571428572,2
2024-06-13 20:09:19,-0.2712241709,0.6304129362,0.9126327038,-2.485181332,-9.069235802,1.74776721,-1760.1881188118812,-977.5049504950496,451.78217821782175,-7592.613861386138,2026.683168316832,-1135.3861386138617,2
2024-06-13 20:09:19,0.2431243658,-0.4129449129,0.531452775,-2.810792685,-8.013393402,2.724601507,-2143.529411764706,-676.8333333333334,872.2647058823529,-7275.872549019607,1870.549019607843,-876.656862745098,2
2024-06-13 20:09:19,0.2431243658,-0.4129449129,0.531452775,-2.810792685,-8.013393402,2.724601507,-1815.0,550.6153846153846,1140.076923076923,-7424.0,2753.0,-1115.5384615384614,2
2024-06-13 20:09:20,0.8515461683,-0.4813618064,-0.0720821023,-3.193865061,-7.486668587,5.260061264,-949.039603960396,-683.7524752475248,285.41584158415844,-7393.683168316832,2928.742574257425,-1170.6633663366338,2
2024-06-13 20:09:20,0.8515461683,-0.4813618064,-0.0720821023,-3.193865061,-7.486668587,5.260061264,-539.0290456431535,-1073.7676348547718,257.0954356846473,-7349.431535269709,2609.6141078838173,-719.655601659751,2
2024-06-13 20:09:20,0.8552113175,0.106290549,-0.2700024247,-4.769249916,-6.615179062,6.02620554,-426.5809128630706,-973.3526970954356,201.90871369294604,-7421.630705394191,2789.282157676349,-710.1120331950208,2
2024-06-13 20:09:20,-2.235766888,0.8417723179,0.08429940045,-4.283226967,-8.475474358,3.088520288,-729.9090909090909,-466.0,661.9090909090909,-7394.636363636364,2758.090909090909,-600.0,2
2024-06-13 20:09:20,-2.235766888,0.8417723179,0.08429940045,-4.283226967,-8.475474358,3.088520288,-537.9714285714285,-22.714285714285715,454.1333333333333,-7434.752380952381,3240.3809523809523,-798.6285714285714,2
2024-06-13 20:09:20,-1.26815629,-0.5351179838,0.7428121567,-3.509899616,-10.24718285,-0.2681505978,-81.44,-149.66,111.34,-7519.08,3032.34,-474.7,2
2024-06-13 20:09:20,2.806314945,-1.762957096,1.00670588,-3.945644379,-7.884106159,3.60566783,-168.16504854368932,-84.26213592233009,335.22330097087377,-7466.485436893204,3241.0388349514565,-572.4466019417475,2
2024-06-13 20:09:20,2.806314945,-1.762957096,1.00670588,-3.945644379,-7.884106159,3.60566783,-286.07766990291265,-27.58252427184466,-97.39805825242718,-7514.47572815534,2985.233009708738,-451.97087378640776,2
2024-06-13 20:09:20,-1.259604096,0.5082398653,-0.1563815027,-5.784391403,-5.489904404,5.753266811,-357.2134146341463,-108.73780487804878,-119.76219512195122,-7469.256097560976,3065.8658536585367,-526.609756097561,2
2024-06-13 20:09:20,-1.259604096,0.5082398653,-0.1563815027,-5.784391403,-5.489904404,5.753266811,-298.0670731707317,-255.6890243902439,-322.8109756097561,-7358.280487804878,3257.329268292683,-729.0487804878048,2
2024-06-13 20:09:21,0.8515461683,-0.4764748812,0.3970624208,-5.171475887,-6.088454723,4.627991676,258.96153846153845,-767.7692307692307,-982.2692307692308,-7559.153846153846,2495.923076923077,277.34615384615387,2
2024-06-13 20:09:21,-0.009773843922,0.1123992056,-0.04031710699,-5.920860767,-5.899312973,6.045359135,-299.99029126213594,-183.7961165048544,-591.1941747572815,-7739.21359223301,2522.6990291262136,343.6019417475728,2
2024-06-13 20:09:21,-0.4141666293,0.1722639948,-0.08185594529,-5.595249176,-5.066130638,5.367800236,-393.5769230769231,442.0384615384616,-368.9230769230769,-7797.115384615385,2917.846153846154,9.269230769230774,2
2024-06-13 20:09:21,0.5668829679,-0.05009094998,0.01588249579,-4.61362648,-4.977545261,5.91128397,-173.35353535353534,345.41414141414145,-251.54545454545453,-7598.242424242424,2456.343434343434,-9.838383838383834,2
2024-06-13 20:09:21,0.5668829679,-0.05009094998,0.01588249579,-4.61362648,-4.977545261,5.91128397,-55.21568627450981,282.27450980392155,-621.2352941176471,-7779.294117647059,2223.450980392157,-373.5490196078432,2
2024-06-13 20:09:21,0.02565634064,-0.04398229718,0.01588249579,-5.667075634,-5.044582844,5.928043365,-467.7714285714285,153.72380952380954,172.02857142857144,-7749.761904761905,2542.980952380952,-518.2666666666667,2
2024-06-13 20:09:21,0.02565634064,-0.04398229718,0.01588249579,-5.667075634,-5.044582844,5.928043365,-589.84,206.57,-15.239999999999997,-7705.66,2928.96,-335.83000000000004,2
2024-06-13 20:09:21,-0.0354301855,0.05375614017,-0.1783726513,-5.669469833,-5.334281445,5.61919117,-832.1290322580645,234.83870967741936,-192.4193548387097,-7613.870967741936,2544.870967741936,-129.0,2
2024-06-13 20:09:21,-0.2614503205,0.25167647,-0.3152064681,-5.966350555,-6.500257492,5.513846397,-404.4807692307692,561.75,-263.63461538461536,-7584.076923076923,2240.8846153846152,-199.6153846153846,2
2024-06-13 20:09:22,-0.2614503205,0.25167647,-0.3152064681,-5.966350555,-6.500257492,5.513846397,165.2,78.15,-81.46000000000001,-7604.11,2215.26,-574.26,2
2024-06-13 20:09:22,-0.08918632567,0.1673770845,0.00244346098,-5.772420406,-6.612784863,4.510675907,236.8,-343.8,211.4,-7679.2,2281.6,-555.4,2
2024-06-13 20:09:22,0.5595525503,-0.2309070677,0.3103195429,-5.700594425,-5.193023682,5.473145008,131.40740740740742,32.0,329.53703703703707,-7728.425925925926,2899.425925925926,-559.3333333333334,2
2024-06-13 20:09:22,0.5595525503,-0.2309070677,0.3103195429,-5.700594425,-5.193023682,5.473145008,-225.3368421052632,35.51578947368421,-25.07368421052631,-7711.557894736842,2666.157894736842,-408.0947368421053,2
2024-06-13 20:09:22,0.3237585723,-0.03420845419,0.05619960278,-5.588066578,-5.990292549,5.535394192,92.5940594059406,-284.94059405940595,-77.18811881188118,-7750.029702970297,2828.128712871287,-199.82178217821783,2
2024-06-13 20:09:22,0.3237585723,-0.03420845419,0.05619960278,-5.588066578,-5.990292549,5.535394192,-221.11214953271028,-318.8411214953271,63.34579439252336,-7757.056074766355,2706.5140186915887,-241.4392523364486,2
2024-06-13 20:09:22,-0.1197295859,-0.01221730467,-0.01466076635,-6.095637321,-5.228936672,5.442020416,-6.317241379310346,-313.9793103448276,11.289655172413788,-7747.813793103448,2611.8275862068967,-293.8551724137931,2
2024-06-13 20:09:22,0.6401867867,-0.04886921868,0.02443460934,-5.408501625,-5.001487255,5.614402771,-115.28275862068966,-311.2206896551724,-250.0896551724138,-7722.986206896552,2822.172413793104,-274.5448275862069,2
2024-06-13 20:09:22,0.6401867867,-0.04886921868,0.02443460934,-5.408501625,-5.001487255,5.614402771,58.33980582524272,-20.57281553398058,81.3495145631068,-7738.796116504855,2485.3009708737864,-332.0970873786408,2
2024-06-13 20:09:22,0.01954768784,-0.006108652335,0.0293215327,-5.906495571,-5.408501625,5.975927353,-86.77,-36.83,-38.11,-7714.34,2571.31,-293.68,2
2024-06-13 20:09:23,-0.1795943826,0.007330383174,0.03665191308,-5.741295815,-4.762067318,5.724536419,-336.5049504950495,288.2178217821782,11.623762376237623,-7758.455445544554,2481.0495049504952,-337.94059405940595,2
2024-06-13 20:09:23,-0.1795943826,0.007330383174,0.03665191308,-5.741295815,-4.762067318,5.724536419,68.6923076923077,223.69230769230768,17.0,-7791.538461538462,2503.076923076923,-136.69230769230768,2
2024-06-13 20:09:23,0.4043927789,-0.02199114859,-0.0232128799,-5.966350555,-5.535394192,5.54257679,-291.7920792079208,90.47524752475248,90.96039603960396,-7732.960396039604,2905.70297029703,-359.05940594059405,2
2024-06-13 20:09:23,-0.58276546,0.1673770845,-0.17715092,-5.561730385,-5.566518784,6.43321991,-326.6355140186916,-53.467289719626166,-375.66355140186914,-7728.523364485981,2517.214953271028,-359.2616822429907,2
2024-06-13 20:09:23,-0.58276546,0.1673770845,-0.17715092,-5.561730385,-5.566518784,6.43321991,-142.52336448598132,-15.149532710280376,-367.25233644859816,-7741.607476635514,2497.588785046729,-365.803738317757,2
2024-06-13 20:09:23,-0.2736676335,0.1111774743,-0.2247984111,-6.143521786,-5.492298603,5.207388878,-0.940594059405953,268.2970297029703,114.3960396039604,-7769.237623762377,2476.2772277227723,-149.37623762376236,2
2024-06-13 20:09:23,-0.2736676335,0.1111774743,-0.2247984111,-6.143521786,-5.492298603,5.207388878,-271.05882352941177,80.35294117647058,-232.8235294117647,-7755.64705882353,2503.0,-354.4117647058823,2
2024-06-13 20:09:23,-0.9053022861,0.3310889602,-0.1527163088,-5.513846397,-5.564124584,5.966350555,-53.54455445544557,228.3267326732673,281.84158415841586,-7777.207920792079,2510.920792079208,-180.11881188118812,2
2024-06-13 20:09:23,0.06230825558,-0.03420845419,-0.09651670605,-5.882553577,-6.157886982,5.188235283,37.0,81.11538461538461,-79.03846153846153,-7724.576923076923,2553.653846153846,-161.53846153846155,2
2024-06-13 20:09:23,0.06230825558,-0.03420845419,-0.09651670605,-5.882553577,-6.157886982,5.188235283,-349.3921568627451,67.54901960784314,-197.05882352941177,-7736.64705882353,2864.6470588235293,-141.9607843137255,2
2024-06-13 20:09:24,0.4520402849,-0.1160643995,0.04886921868,-5.451597214,-5.779603004,5.959167957,-296.125,-57.77884615384616,-83.0,-7737.951923076923,2533.451923076923,-377.7019230769231,2
2024-06-13 20:09:24,0.4520402849,-0.1160643995,0.04886921868,-5.451597214,-5.779603004,5.959167957,-70.57692307692308,83.26923076923077,65.46153846153847,-7753.576923076923,2530.653846153846,-311.5,2
2024-06-13 20:09:24,-0.003665191587,0.03665191308,0.03054326214,-5.932831764,-6.782773495,5.209783077,96.40384615384616,-109.90384615384616,-321.78846153846155,-7767.692307692308,2530.8076923076924,-247.05769230769232,2
2024-06-13 20:09:24,0.05742133409,-0.08185594529,-0.09529497474,-6.229712963,-5.142745018,4.958391666,90.8252427184466,-72.2233009708738,-55.38834951456311,-7743.388349514563,2689.640776699029,-361.9126213592233,2
2024-06-13 20:09:24,0.05742133409,-0.08185594529,-0.09529497474,-6.229712963,-5.142745018,4.958391666,-277.1,-91.05,-291.225,-7746.725,2727.7,-177.5,2
2024-06-13 20:09:24,0.3176499307,-0.02565634064,-0.07941248268,-5.240907669,-4.5370121,5.183446884,-144.6,-87.3,-274.35,-7767.35,2550.2,-165.0,2
2024-06-13 20:09:24,0.1979203373,0.03298672289,0.1123992056,-5.992686749,-6.612784863,5.731719017,-44.95348837209303,66.16279069767442,68.62790697674419,-7688.325581395349,2851.3255813953488,-323.3255813953488,2
2024-06-13 20:09:24,0.1979203373,0.03298672289,0.1123992056,-5.992686749,-6.612784863,5.731719017,-182.62790697674416,84.30232558139535,50.02325581395348,-7684.604651162791,2847.6046511627906,-319.6046511627907,2
