Timestamp,Gyro_x_x,Gyro_y_x,Gyro_z_x,Acc_x_x,Acc_y_x,Acc_z_x,Gyro_x_y,Gyro_y_y,Gyro_z_y,Acc_x_y,Acc_y_y,Acc_z_y,combined_action_num
2024-06-13 20:28:09,0.04031710699,0.02076941915,-0.07086037099,-4.441244125,7.630321026,3.725377798,-777.9708737864078,-824.2427184466019,2113.893203883495,-8082.019417475728,843.0291262135922,192.2135922330097,9
2024-06-13 20:28:09,-0.02076941915,-0.0415388383,-0.1026253626,-4.38378334,7.522581577,3.699041605,-210.52941176470588,-1469.1176470588234,967.0588235294116,-7912.176470588235,1348.1176470588234,428.88235294117646,9
2024-06-13 20:28:09,-0.3054326177,0.03665191308,-0.1930334121,-4.525041103,7.161057472,3.593696833,309.0,-1454.642857142857,751.2142857142857,-7879.571428571428,1571.7142857142858,916.2142857142856,9
2024-06-13 20:28:09,-0.3054326177,0.03665191308,-0.1930334121,-4.525041103,7.161057472,3.593696833,370.0864197530864,-1194.6296296296296,869.7530864197531,-8043.20987654321,2047.074074074074,1106.0246913580247,9
2024-06-13 20:28:09,-0.6890559793,0.0293215327,-0.428827405,-4.398148537,6.483498096,4.42448473,170.47058823529412,-1003.1960784313726,4.764705882352942,-7958.941176470588,2116.8823529411766,1591.2156862745098,9
2024-06-13 20:28:09,-0.6890559793,0.0293215327,-0.428827405,-4.398148537,6.483498096,4.42448473,-214.10909090909087,-302.27272727272725,-548.3818181818182,-7981.127272727273,2042.1181818181817,1433.2727272727273,9
2024-06-13 20:28:09,-0.7562511563,0.07941248268,-3.0335567,-4.520252705,0.6631938815,4.855441093,-401.4476190476191,-602.5904761904762,-521.6095238095238,-8192.761904761905,1428.295238095238,1476.428571428571,9
2024-06-13 20:28:09,-0.7562511563,0.07941248268,-3.0335567,-4.520252705,0.6631938815,4.855441093,-173.82857142857142,-832.1142857142858,-152.0857142857143,-7930.857142857143,1593.057142857143,1847.857142857143,9
2024-06-13 20:28:10,-0.006108652335,-0.2467895597,-4.607145786,-5.068524837,-7.809885979,5.42765522,300.18446601941747,-521.4174757281553,-47.35922330097087,-7998.631067961165,1790.0194174757282,1759.4466019417475,9
2024-06-13 20:28:10,-0.006108652335,-0.2467895597,-4.607145786,-5.068524837,-7.809885979,5.42765522,111.55238095238096,-55.50476190476195,-109.24761904761904,-7975.8761904761905,1711.752380952381,2022.942857142857,9
2024-06-13 20:28:10,0.4569272101,-0.9346238375,-4.335921288,-3.7181952,-8.039729118,8.7843256,-250.02912621359224,-301.3398058252427,-319.2135922330097,-7864.718446601942,1541.271844660194,1919.757281553398,9
2024-06-13 20:28:10,0.1038470939,-1.462411404,-1.644449234,0.9481038451,-9.344569206,7.910442352,-331.4901960784314,-252.92156862745097,-1026.4313725490197,-7824.117647058823,1353.313725490196,2222.823529411765,9
2024-06-13 20:28:10,0.1038470939,-1.462411404,-1.644449234,0.9481038451,-9.344569206,7.910442352,-476.0384615384616,-117.26923076923076,-1045.0,-8021.461538461538,1572.0384615384614,2214.692307692308,9
2024-06-13 20:28:10,-0.1148426682,-0.5155702829,0.07574728876,2.432508945,-7.046135426,7.022193432,-825.48,876.56,-286.0,-8044.6,1338.4,2396.36,9
2024-06-13 20:28:10,-0.1649336219,0.06230825558,0.4056145251,3.181894064,-7.668628216,6.943184853,-734.8461538461538,1028.576923076923,-392.2692307692308,-7957.653846153846,1331.1923076923076,2088.730769230769,9
2024-06-13 20:28:10,-0.1649336219,0.06230825558,0.4056145251,3.181894064,-7.668628216,6.943184853,-1348.1089108910892,1357.8712871287128,-200.5049504950495,-8273.267326732674,1165.059405940594,1873.1881188118807,9
2024-06-13 20:28:10,-0.07819075137,-0.3555235863,0.6890559793,2.631227732,-7.508216381,6.205770969,-995.8461538461538,1229.8461538461538,187.90384615384616,-8225.826923076924,1210.4807692307693,1479.423076923077,9
2024-06-13 20:28:10,-0.07819075137,-0.3555235863,0.6890559793,2.463633537,-8.015787125,6.193799973,-1328.51,1583.38,-120.52,-8220.53,1285.48,1383.78,9
2024-06-13 20:28:11,0.3408628106,-0.822224617,0.5962044597,2.463633537,-8.015787125,6.193799973,-2065.862385321101,1478.908256880734,-1074.440366972477,-8206.440366972478,889.8440366972477,1339.633027522936,9
2024-06-13 20:28:11,0.3127630055,-0.5485569835,0.3909537494,2.30801034,-7.539340973,5.717353821,-2051.692307692308,1030.5384615384614,-2281.153846153846,-8026.153846153846,283.0,1222.923076923077,9
2024-06-13 20:28:11,0.3127630055,-0.5485569835,0.3909537494,2.30801034,-7.539340973,5.717353821,-1986.7777777777776,1183.5925925925926,-1958.1851851851848,-8061.296296296296,493.2592592592592,737.074074074074,9
2024-06-13 20:28:11,0.3469714522,-0.8124507666,0.7379252315,2.612074137,-8.312667847,6.107608318,-915.311320754717,1755.9811320754718,-1179.5943396226414,-8125.877358490566,6.113207547169807,-74.08490566037736,9
2024-06-13 20:28:11,0.3469714522,-0.8124507666,0.7379252315,2.612074137,-8.312667847,6.107608318,-252.74257425742576,997.6930693069309,-1320.851485148515,-8146.346534653465,-395.0396039603961,-308.5049504950495,9
2024-06-13 20:28:11,0.3152064681,-0.4105014503,0.5766568184,2.82276392,-7.718906403,6.047753334,-195.68867924528303,1306.839622641509,-739.2735849056604,-7819.556603773585,-506.122641509434,-1081.311320754717,9
2024-06-13 20:28:11,0.3152064681,-0.4105014503,0.5766568184,2.82276392,-7.718906403,6.047753334,-576.6116504854369,1037.73786407767,-403.19417475728153,-7846.601941747573,-1083.0873786407767,-1185.5825242718447,9
2024-06-13 20:28:11,0.03298672289,-0.03665191308,0.290771842,2.837129116,-7.228095055,5.774814606,-548.5142857142857,417.1142857142857,-859.0,-7983.285714285715,-1346.4857142857145,-1197.6285714285714,9
2024-06-13 20:28:12,-0.003665191587,-0.07330382615,-0.1844813079,2.908955097,-7.857769966,6.385335922,-148.52941176470588,428.5882352941177,-753.5098039215686,-7621.843137254902,-1424.8039215686274,-1233.0,9
2024-06-13 20:28:12,0.01221730467,0.07574728876,-0.48014009,2.557007313,-7.675810814,6.239289761,-403.0673076923077,634.4519230769231,-625.5480769230769,-7789.278846153846,-1630.875,-1446.3076923076924,9
2024-06-13 20:28:12,-0.03665191308,0.2052507252,-0.3115412891,2.032677174,-7.455543995,6.323086739,-459.8571428571429,753.8,39.57142857142856,-7638.314285714286,-1590.142857142857,-1772.2857142857142,9
2024-06-13 20:28:12,-0.03665191308,0.2052507252,-0.3115412891,2.032677174,-7.455543995,6.323086739,693.3592233009708,188.0,230.3009708737864,-7473.864077669903,-1510.8640776699028,-1544.8252427184466,9
2024-06-13 20:28:12,0.08063421398,0.3652974069,0.1026253626,2.85867691,-7.113173485,6.270414352,2869.9142857142856,2632.6,-356.65714285714284,-7148.285714285715,-1254.4571428571428,-1936.428571428572,9
2024-06-13 20:28:12,-0.2394591719,0.4337143302,0.1820378453,3.409343243,-6.99106884,7.077260017,1043.06,3066.15,-853.5799999999999,-7702.82,-1276.04,-3116.32,9
2024-06-13 20:28:12,-0.2394591719,0.4337143302,0.1820378453,3.409343243,-6.99106884,7.077260017,-1439.4368932038835,507.9514563106796,390.9514563106796,-7692.436893203883,-1574.1941747572816,-3622.6796116504856,9
2024-06-13 20:28:12,0.006108652335,-0.1392772794,0.1148426682,2.626439333,-6.708553314,6.610390663,-1796.190476190476,-1550.790476190476,1020.1428571428572,-7595.7904761904765,-1618.4476190476191,-3325.1047619047617,9
2024-06-13 20:28:12,0.006108652335,-0.1392772794,0.1148426682,2.626439333,-6.708553314,6.610390663,-571.1683168316831,-4111.990099009901,1679.059405940594,-7665.336633663366,-1301.7128712871288,-2642.2178217821784,9
2024-06-13 20:28:12,0.3396410644,-0.4031710625,0.004886921961,2.911349297,-7.041347027,6.885724068,-895.4077669902913,-5004.446601941748,1743.1456310679612,-7638.135922330097,-771.8252427184466,-2072.1553398058254,9
2024-06-13 20:28:13,-0.1441642046,0.2675589919,-0.1637118906,2.403778553,-7.484274387,6.689399719,1231.3650793650793,-5562.952380952381,1338.3333333333333,-7833.761904761905,-1187.2063492063492,-244.06349206349205,9
2024-06-13 20:28:13,-0.1441642046,0.2675589919,-0.1637118906,2.403778553,-7.484274387,6.689399719,2155.5949367088606,-4896.202531645569,1467.632911392405,-7627.911392405063,-715.8987341772151,324.0253164556962,9
2024-06-13 20:28:13,-0.2394591719,0.3445279896,-0.09529497474,2.322375536,-6.335057735,7.153874874,3949.25,-3406.25,1740.75,-7742.083333333333,113.08333333333334,1472.8333333333333,9
2024-06-13 20:28:13,-0.03420845419,0.2944370508,-0.06719517708,2.786850691,-7.340622425,7.457938194,3288.919191919192,22.02020202020202,265.86868686868684,-7745.939393939394,820.2929292929293,2001.707070707071,9
2024-06-13 20:28:13,-0.03420845419,0.2944370508,-0.06719517708,2.786850691,-7.340622425,7.457938194,1746.859813084112,471.4392523364486,-264.89719626168227,-8256.682242990653,1072.2056074766356,1793.0934579439252,9
2024-06-13 20:28:13,0.05619960278,0.5009095073,-0.1404990107,1.991975784,-6.672640324,6.335057735,-472.7647058823529,396.4705882352941,145.88235294117646,-7986.882352941177,1053.235294117647,1625.8235294117646,9
2024-06-13 20:28:13,0.05619960278,0.5009095073,-0.1404990107,1.991975784,-6.672640324,6.335057735,-2749.990291262136,574.9611650485436,-155.09708737864077,-8135.52427184466,1202.9029126213593,1538.2815533980583,9
2024-06-13 20:28:13,-0.1808161139,0.2076941878,-0.2565633953,1.580173135,-7.201758862,6.521805286,-2977.881188118812,1055.980198019802,-765.1584158415842,-7964.435643564357,476.13861386138615,1712.3762376237623,9
2024-06-13 20:28:13,-0.1698205322,0.03054326214,-0.07941248268,1.37666595,-7.704541206,6.083666325,-2080.2571428571428,695.0857142857143,-738.6571428571428,-8300.228571428572,176.4857142857143,1818.6857142857143,9
2024-06-13 20:28:13,-0.1698205322,0.03054326214,-0.07941248268,1.37666595,-7.704541206,6.083666325,-938.3846153846154,940.8461538461538,-812.7692307692307,-7920.596153846154,-66.9423076923077,1659.1923076923076,9
2024-06-13 20:28:14,0.03176499158,0.04031710699,-0.1649336219,1.877054095,-7.297526836,6.227318764,-184.32692307692307,1194.701923076923,-840.8076923076923,-7925.432692307692,-93.4903846153846,1385.7115384615386,9
2024-06-13 20:28:14,-0.2138028294,0.5693264008,-0.3995058835,1.81959331,-9.069235802,5.544970989,-317.0192307692308,1264.8942307692307,-821.5769230769231,-8268.701923076924,57.47115384615384,956.8653846153846,9
2024-06-13 20:28:14,-0.2138028294,0.5693264008,-0.3995058835,1.81959331,-9.069235802,5.544970989,-574.5,931.2450980392156,-843.6862745098039,-8550.14705882353,13.235294117647058,859.4411764705883,9
2024-06-13 20:28:14,-0.2394591719,0.2712241709,-0.1270599663,0.8619126081,-7.017405033,6.416460514,-1092.0943396226414,425.2830188679245,-626.2641509433962,-8484.415094339623,-196.1132075471698,801.7547169811321,9
2024-06-13 20:28:14,-0.2394591719,0.2712241709,-0.1270599663,0.8619126081,-7.017405033,6.416460514,-1257.7692307692307,-13.31730769230768,-604.875,-8474.89423076923,-301.96153846153845,403.0288461538461,9
2024-06-13 20:28:14,0.106290549,-0.04398229718,0.03909537569,2.181117773,-8.609549522,5.72214222,-2949.639175257732,-1345.3505154639174,-844.3298969072165,-8378.721649484536,-372.9381443298969,615.319587628866,9
2024-06-13 20:28:14,0.01466076635,-0.2333505303,0.09040805697,1.335964561,-6.864176273,5.83466959,-4090.7333333333336,-3787.2666666666655,436.8,-8909.933333333332,-914.2,1197.9333333333334,9
2024-06-13 20:28:14,0.01466076635,-0.2333505303,0.09040805697,1.335964561,-6.864176273,5.83466959,-1660.9716981132076,-5977.924528301886,1590.1132075471698,-8070.349056603773,-908.6037735849056,2302.981132075472,9
2024-06-13 20:28:14,0.006108652335,-0.9737191796,0.5302310586,2.296039343,-8.497021675,6.10042572,1292.029702970297,-1540.673267326733,1195.5346534653463,-6964.970297029703,392.25742574257424,4299.178217821782,9
2024-06-13 20:28:14,0.125838235,-0.145385921,0.2199114859,1.841141105,-8.55448246,5.094861031,1819.544,2334.592,-210.576,-7187.736,588.608,3827.616,9
2024-06-13 20:28:15,0.125838235,-0.145385921,0.2199114859,1.841141105,-8.55448246,5.094861031,1851.6666666666667,4687.833333333333,-996.0833333333334,-7882.0,518.75,2459.333333333333,9
2024-06-13 20:28:15,0.05253441259,-0.2309070677,0.03909537569,1.470039845,-8.358158112,5.904101372,651.231884057971,3938.710144927536,-968.0144927536232,-8470.695652173914,441.81159420289856,1155.8840579710145,9
2024-06-13 20:28:15,0.05253441259,-0.2309070677,0.03909537569,1.470039845,-8.358158112,5.904101372,551.7149758454107,3846.43961352657,-974.2946859903382,-8505.478260869566,293.5024154589372,1072.3091787439614,9
2024-06-13 20:28:15,0.3799581826,-0.6462954283,0.3543018401,1.606509328,-8.954314232,5.621585369,-113.57142857142856,2481.904761904762,-1203.952380952381,-8436.380952380952,-389.04761904761904,590.952380952381,9
2024-06-13 20:28:15,0.5204572082,-0.5290092826,0.4654793143,1.680729628,-7.620744228,5.58088398,164.89795918367346,712.204081632653,-1198.8979591836735,-7899.857142857143,-1088.1836734693877,-32.69387755102041,9
2024-06-13 20:28:15,0.5204572082,-0.5290092826,0.4654793143,1.680729628,-7.620744228,5.58088398,-127.92156862745098,1060.735294117647,-701.4705882352941,-8239.921568627451,-1044.9901960784314,-266.2647058823529,9
2024-06-13 20:28:15,0.6536257863,-0.7403686643,0.538783133,3.033453465,-6.691793919,6.011840343,-583.0612244897959,1105.1632653061224,-783.2448979591836,-7906.673469387755,-1323.9183673469388,-783.2244897959183,9
2024-06-13 20:28:15,0.1148426682,-0.2419026345,0.1246165112,4.01507616,-8.547300339,6.983886242,-423.5233644859813,709.3084112149533,-503.1869158878505,-7672.065420560748,-1350.1121495327102,-796.7383177570093,9
2024-06-13 20:28:15,0.1148426682,-0.2419026345,0.1246165112,4.01507616,-8.547300339,6.983886242,-438.4040404040404,752.5050505050505,-790.5454545454545,-8004.79797979798,-1258.050505050505,-1018.080808080808,9
2024-06-13 20:28:15,-0.3665191531,-0.1832595766,0.06352998316,2.746149302,-5.789179802,7.541735172,-480.3611111111111,518.3888888888889,-878.3611111111111,-7784.722222222223,-1375.638888888889,-1276.8055555555557,9
2024-06-13 20:28:16,-0.3665191531,-0.1832595766,0.06352998316,2.746149302,-5.789179802,7.541735172,-857.009900990099,1177.752475247525,-398.1881188118812,-7742.574257425743,-1431.09900990099,-1695.247524752475,9
2024-06-13 20:28:16,0.03665191308,-0.2541199327,-0.05009094998,3.253720045,-7.117961884,6.856993675,-594.8737864077669,529.504854368932,-235.54368932038835,-7887.805825242718,-1857.873786407767,-2124.543689320388,9
2024-06-13 20:28:16,0.0109955743,0.05986479297,0.03787364438,2.679111719,-6.660669327,6.79953289,-538.5631067961165,-445.252427184466,37.271844660194176,-7678.097087378641,-1801.5631067961165,-1951.7281553398057,9
2024-06-13 20:28:16,0.0109955743,0.05986479297,0.03787364438,2.679111719,-6.660669327,6.79953289,120.33009708737865,-1113.1747572815534,366.6116504854369,-7807.932038834951,-1796.9708737864078,-1435.6699029126214,9
2024-06-13 20:28:16,-0.3567453027,0.5595525503,-0.2211332172,3.203441858,-7.496245384,6.751648903,243.98130841121497,-695.2523364485982,210.9158878504673,-7651.551401869159,-1425.728971962617,-1282.6635514018692,9
2024-06-13 20:28:16,-0.0171042271,0.338419348,-0.2235766798,3.849876404,-7.24485445,6.447585106,162.7070707070707,-1010.040404040404,457.6969696969697,-7993.79797979798,-1597.6060606060605,-1053.020202020202,9
2024-06-13 20:28:16,-0.0171042271,0.338419348,-0.2235766798,3.849876404,-7.24485445,6.447585106,579.4571428571428,-1121.838095238095,473.5142857142857,-7896.809523809524,-1276.5142857142855,-1106.5047619047618,9
2024-06-13 20:28:16,-0.04764748737,0.5546656251,-0.4764748812,3.572149038,-7.888894558,6.428431511,736.7731092436975,-1428.7058823529412,906.3697478991596,-7958.0252100840335,-1341.571428571429,-627.0756302521008,9
2024-06-13 20:28:16,-0.04764748737,0.5546656251,-0.4764748812,3.572149038,-7.888894558,6.428431511,1295.1379310344828,-240.3793103448276,683.1724137931035,-7908.275862068966,-863.0,-541.6896551724138,9
2024-06-13 20:28:16,-0.3604104817,0.9199630618,-0.68539083,2.849100113,-7.060500622,5.669469833,760.252427184466,25.398058252427177,581.4077669902913,-8197.271844660194,-852.1650485436893,-236.9514563106796,9
2024-06-13 20:28:17,-0.1869247705,0.8772025108,-0.7611380816,2.250549555,-7.829039574,6.387730122,586.4803921568628,60.74509803921568,472.05882352941177,-8213.20588235294,-595.2254901960785,-189.2156862745098,9
2024-06-13 20:28:17,-0.1869247705,0.8772025108,-0.7611380816,2.250549555,-7.829039574,6.387730122,499.88235294117646,-472.11764705882354,854.2352941176471,-8236.117647058823,-578.7450980392157,-146.52941176470588,9
2024-06-13 20:28:17,-0.7525860071,1.152091861,-0.6511823535,1.752555609,-7.417236805,6.174646378,439.214953271028,-506.8317757009346,822.1401869158879,-8245.158878504673,-370.98130841121497,-35.58878504672897,9
2024-06-13 20:28:17,-0.1588249654,1.004262447,-0.4153883755,1.089361787,-8.142680168,5.858611584,997.2058823529412,-718.0882352941177,646.3235294117646,-8154.35294117647,-226.08823529411765,296.88235294117646,9
2024-06-13 20:28:17,-0.1588249654,1.004262447,-0.4153883755,1.089361787,-8.142680168,5.858611584,1307.0776699029127,-857.7572815533981,694.0388349514564,-8241.766990291262,80.1747572815534,700.4563106796116,9
2024-06-13 20:28:17,-0.1979203373,1.009149432,-0.5461135507,1.889025092,-7.448361397,5.686229229,1294.529411764706,-386.2941176470588,263.47058823529414,-8227.35294117647,180.58823529411765,1103.5882352941176,9
2024-06-13 20:28:17,-0.1979203373,1.009149432,-0.5461135507,1.889025092,-7.448361397,5.686229229,977.9711538461538,-350.9230769230769,-32.47115384615385,-8096.807692307692,202.8942307692308,1033.5,9
2024-06-13 20:28:17,-0.1197295859,1.149648428,-0.7257078886,1.355118155,-7.592013359,5.765237808,776.1747572815534,-322.80582524271847,-289.40776699029124,-8114.26213592233,-18.796116504854368,1345.5242718446602,9
2024-06-13 20:28:17,-0.2138028294,0.8063421249,-0.6560692787,-0.0191536136,-8.176198959,6.193799973,1091.0384615384614,22.317307692307693,75.97115384615384,-8122.961538461538,-218.77884615384616,1214.4038461538462,9
2024-06-13 20:28:17,-0.2138028294,0.8063421249,-0.6560692787,-0.0191536136,-8.176198959,6.193799973,506.7524752475247,568.5148514851485,330.7524752475247,-8106.782178217822,308.66336633663366,936.7821782178218,9
2024-06-13 20:28:18,-1.214400053,0.4520402849,-0.1539380401,0.4453215301,-8.353369713,5.87297678,-249.44339622641508,601.2735849056604,223.5566037735849,-8130.018867924528,285.1509433962264,757.377358490566,9
2024-06-13 20:28:18,-0.8857545853,-0.2015855312,0.2076941878,1.00317049,-13.22078133,7.536946774,-1104.470588235294,393.11764705882354,507.2352941176471,-8251.35294117647,631.4117647058823,691.9411764705883,9
2024-06-13 20:28:18,-0.8857545853,-0.2015855312,0.2076941878,1.00317049,-13.22078133,7.536946774,-1244.3584905660375,811.6603773584906,-185.3584905660377,-8103.264150943396,462.1320754716981,600.0943396226415,9
2024-06-13 20:28:18,-0.1172861308,0.2663372457,-0.2504547536,1.984793186,-8.540117264,4.769249916,-1412.2830188679245,494.6792452830189,-153.2830188679245,-8066.471698113208,418.7358490566038,554.811320754717,9
2024-06-13 20:28:18,-0.1172861308,0.2663372457,-0.2504547536,1.984793186,-8.540117264,4.769249916,-1488.3861386138617,630.2772277227723,-471.36633663366337,-8243.69306930693,150.86138613861385,203.2178217821782,9
2024-06-13 20:28:18,0.0171042271,0.5693264008,-0.2504547536,0.8906430602,-8.561665535,3.275267839,-1257.909090909091,811.3636363636364,-756.4545454545455,-8205.0,-35.81818181818182,323.90909090909093,9
2024-06-13 20:28:18,0.4691445231,0.109955743,-0.216246292,1.680729628,-8.904036522,4.57531929,-1174.8512396694214,857.2314049586777,-758.1074380165289,-8214.09090909091,25.75206611570248,295.39669421487605,9
2024-06-13 20:28:18,0.4691445231,0.109955743,-0.216246292,1.680729628,-8.904036522,4.57531929,-476.4032258064516,1129.354838709677,-779.5806451612904,-8263.854838709678,-231.2741935483871,-208.06451612903223,9
2024-06-13 20:28:18,-0.3567453027,0.5534439087,-0.3188716471,0.6129156351,-8.200140953,4.228160381,-352.74418604651163,235.2558139534884,15.372093023255816,-8301.046511627907,-407.3255813953489,-451.1860465116279,9
2024-06-13 20:28:18,0.4007275999,0.334754169,-0.232128799,0.8379706144,-9.50976944,5.221754074,-212.42857142857144,-19.42857142857143,-199.42857142857144,-8215.142857142857,-541.0,-531.8571428571429,9
2024-06-13 20:28:19,0.4007275999,0.334754169,-0.232128799,0.8379706144,-9.50976944,5.221754074,-325.4757281553398,-34.79611650485438,-711.2038834951456,-8118.669902912621,-448.3980582524272,-593.0776699029126,9
2024-06-13 20:28:19,0.6401867867,0.2199114859,-0.05009094998,1.728613615,-9.272743225,5.992686749,-278.0576923076923,-68.75,-572.9230769230769,-8227.403846153846,-728.9807692307693,-583.8653846153846,9
2024-06-13 20:28:19,0.6401867867,0.2199114859,-0.05009094998,1.728613615,-9.272743225,5.992686749,-35.46153846153847,-119.07692307692308,-260.6923076923077,-8220.846153846154,-717.6923076923077,-541.1538461538462,9
2024-06-13 20:28:19,0.3762930036,-0.05131268129,0.3176499307,0.7158663273,-7.948749542,5.473145008,265.2718446601942,243.45631067961165,115.39805825242718,-7913.883495145631,-774.9223300970874,-486.97087378640776,9
2024-06-13 20:28:19,-0.03054326214,0.1869247705,0.4239404798,0.4620809257,-7.924807549,5.19781208,351.5098039215686,204.86274509803923,96.90196078431372,-8202.607843137255,-847.7843137254902,-631.5686274509803,9
2024-06-13 20:28:19,-0.03054326214,0.1869247705,0.4239404798,0.4620809257,-7.924807549,5.19781208,555.8952380952381,224.37142857142857,415.6476190476191,-8217.047619047618,-705.047619047619,-854.2285714285714,9
2024-06-13 20:28:19,-0.3188716471,-0.9456194043,0.5363397002,0.6033388376,-7.55131197,6.593631268,798.5294117647059,82.23529411764706,488.7058823529412,-8211.470588235294,-531.0588235294117,-862.2941176470588,9
2024-06-13 20:28:19,0.06597344577,-1.857030392,0.7134906054,0.5075707436,-7.951143742,6.112396717,784.5588235294117,57.97058823529412,490.9117647058824,-8200.441176470587,-515.6176470588235,-847.5882352941177,9
2024-06-13 20:28:19,0.06597344577,-1.857030392,0.7134906054,0.5075707436,-7.951143742,6.112396717,187.9433962264151,-547.811320754717,447.0754716981132,-8285.433962264151,-358.0377358490566,-593.6792452830189,9
2024-06-13 20:28:19,0.4300491214,-1.248608589,0.9737191796,1.946485996,-9.497797966,5.72214222,188.08653846153845,-498.1634615384616,584.8942307692307,-8236.432692307691,-279.5961538461538,-499.38461538461536,9
2024-06-13 20:28:20,0.4300491214,-1.248608589,0.9737191796,1.946485996,-9.497797966,5.72214222,117.74257425742574,-1082.1782178217825,754.2574257425742,-8101.6732673267325,337.25742574257424,76.08910891089108,9
2024-06-13 20:28:20,0.3078760803,-1.010371089,0.9358455539,1.218648672,-7.455543995,4.599261284,-7.307692307692307,-670.7692307692307,516.1538461538462,-7881.192307692308,150.96153846153845,146.03846153846155,9
2024-06-13 20:28:20,-0.2003637999,-1.141096234,0.5119050741,1.37666595,-7.905653954,4.888959885,-714.688679245283,-571.2264150943396,-116.05660377358492,-8272.952830188678,220.46226415094333,600.9905660377359,9
2024-06-13 20:28:20,-0.2003637999,-1.141096234,0.5119050741,1.37666595,-7.905653954,4.888959885,-968.4622641509434,-595.7547169811321,102.81132075471696,-8072.009433962264,149.7075471698113,420.8018867924528,9
2024-06-13 20:28:20,0.06841690838,-0.9883799553,0.17715092,2.238578558,-9.114726067,4.960785866,-1282.5588235294117,-514.4705882352941,67.14705882352942,-8071.941176470588,323.7058823529412,650.9705882352941,9
2024-06-13 20:28:20,-0.6145304441,-0.5277875662,0.1343903542,1.240196466,-8.494627953,4.441244125,-712.6470588235294,-836.9411764705883,-141.05882352941177,-8267.235294117647,-8.176470588235304,972.5882352941176,9
2024-06-13 20:28:20,-0.6145304441,-0.5277875662,0.1343903542,1.240196466,-8.494627953,4.441244125,-726.8151658767772,-271.6824644549763,-196.1516587677725,-8063.142180094786,-59.72037914691944,1142.260663507109,9
2024-06-13 20:28:20,-0.6206390858,-0.299323976,0.2247984111,1.900996208,-10.96783829,4.05577755,-636.2938388625593,-98.22274881516586,-190.9383886255924,-7902.004739336493,-109.95734597156398,1280.175355450237,9
2024-06-13 20:28:20,-0.6206390858,-0.299323976,0.2247984111,1.900996208,-10.96783829,4.05577755,-437.6930693069307,578.6039603960396,-309.6831683168317,-8035.3267326732675,-72.03960396039605,1037.4356435643565,9
2024-06-13 20:28:20,-0.290771842,-0.6719517708,0.4056145251,1.082179189,-8.228871346,3.394978046,-745.7010309278351,352.4536082474227,-33.649484536082475,-8156.59793814433,187.64948453608247,798.639175257732,9
2024-06-13 20:28:21,0.228463605,-0.2773328125,0.2736676335,2.777273893,-10.95107841,3.189076662,-1108.24,-7.969999999999999,248.09,-8139.02,413.38,825.9,9
2024-06-13 20:28:21,0.228463605,-0.2773328125,0.2736676335,2.777273893,-10.95107841,3.189076662,-528.2380952380952,86.65714285714286,319.1333333333333,-8245.923809523809,556.0571428571428,754.7619047619048,9
2024-06-13 20:28:21,-0.1197295859,0.7415903807,-0.2394591719,1.132457376,-8.583212852,2.279279947,-391.8484848484849,-37.09090909090909,-77.06060606060606,-8307.151515151516,326.06060606060606,669.939393939394,9
2024-06-13 20:28:21,-0.2626720667,0.6658431292,-0.7147123218,0.6775590777,-10.80982113,3.078943491,-7.990291262135919,91.81553398058252,-208.3980582524272,-8122.330097087379,239.6019417475728,847.8543689320388,9
2024-06-13 20:28:21,-0.2626720667,0.6658431292,-0.7147123218,0.6775590777,-10.80982113,3.078943491,259.90291262135923,-124.16504854368932,-350.0,-8130.563106796117,-4.533980582524272,868.5825242718447,9
2024-06-13 20:28:21,0.338419348,-0.1979203373,0.1942551434,0.7445967197,-9.591172218,3.90254879,220.02912621359224,-482.13592233009706,-155.11650485436894,-8106.368932038835,117.68932038834951,863.3009708737864,9
2024-06-13 20:28:21,0.338419348,-0.1979203373,0.1942551434,0.7445967197,-9.591172218,3.90254879,-16.692307692307693,-503.9807692307692,-335.28846153846155,-8161.923076923077,269.36538461538464,1094.5576923076924,9
2024-06-13 20:28:21,0.5448917747,-0.2235766798,0.4312708676,1.549048543,-8.66940403,4.01747036,-17.65686274509804,-175.0392156862745,-298.22549019607845,-8225.35294117647,-78.50980392156863,1313.950980392157,9
2024-06-13 20:28:21,0.07086037099,-0.04398229718,0.389732033,2.245761156,-8.482656479,5.173870087,5.436893203883493,291.3009708737864,-581.1456310679612,-8239.466019417476,64.64077669902913,1194.5436893203882,9
2024-06-13 20:28:21,0.07086037099,-0.04398229718,0.389732033,2.245761156,-8.482656479,5.173870087,-235.7692307692308,820.8076923076923,-708.4230769230769,-8277.307692307691,-280.6923076923077,970.6538461538462,9
2024-06-13 20:28:22,-0.1087340117,-0.5216789246,0.05497787148,2.262520552,-9.414001465,5.705382824,-577.2038834951456,1069.4563106796118,-466.7378640776699,-8317.14563106796,-192.9902912621359,423.2621359223301,9
2024-06-13 20:28:22,0.3371976018,0.008552113548,-0.287106663,1.721431017,-8.027758598,4.529829502,-779.4716981132076,726.2075471698113,-589.5471698113207,-8077.830188679245,-269.7735849056604,161.43396226415095,9
2024-06-13 20:28:22,0.3371976018,0.008552113548,-0.287106663,1.721431017,-8.027758598,4.529829502,-779.049504950495,497.25742574257424,-238.4851485148515,-8300.524752475247,-528.8613861386139,-27.534653465346537,9
2024-06-13 20:28:22,0.1368338168,0.5668829679,-0.2528982162,2.042253971,-8.159439087,5.284003258,-1051.925925925926,238.88888888888889,-187.40740740740745,-8285.037037037036,-594.5185185185185,69.66666666666667,9
2024-06-13 20:28:22,0.1368338168,0.5668829679,-0.2528982162,2.042253971,-8.159439087,5.284003258,-746.5,314.0,-203.5,-8196.0,-407.5,53.0,9
2024-06-13 20:28:22,-0.08063421398,0.1942551434,-0.2614503205,1.44849205,-8.386888504,5.750872612,-149.72222222222223,110.5925925925926,-181.63888888888889,-8271.287037037036,-467.2314814814815,31.75925925925926,9
2024-06-13 20:28:22,0.1551597714,0.3188716471,-0.1441642046,1.644816518,-8.078036308,5.19781208,107.93103448275863,54.27586206896552,-323.3103448275862,-8303.448275862069,-503.2413793103448,18.82758620689655,9
2024-06-13 20:28:22,0.1551597714,0.3188716471,-0.1441642046,1.644816518,-8.078036308,5.19781208,-72.11428571428571,-349.3333333333333,-27.685714285714283,-8102.333333333333,-756.2190476190476,66.43809523809523,9
2024-06-13 20:28:22,0.05986479297,0.5241223574,-0.125838235,1.403002143,-8.271966934,4.999093056,294.38461538461536,-253.5192307692308,-318.25,-8271.25,-811.8076923076923,-26.09615384615384,9
2024-06-13 20:28:22,0.06963863969,0.07941248268,-0.1038470939,1.405396342,-8.497021675,5.114014626,82.02941176470588,-188.1176470588236,-360.2941176470589,-8267.529411764706,-860.0,203.9705882352941,9
2024-06-13 20:28:23,0.06963863969,0.07941248268,-0.1038470939,1.405396342,-8.497021675,5.114014626,-338.0792079207921,31.99009900990099,-373.34653465346537,-8273.287128712871,-684.6831683168317,244.9702970297029,9
2024-06-13 20:28:23,-0.5338962078,0.01343903504,-0.1563815027,1.280897856,-8.010998726,4.580107689,-209.2368421052632,29.39473684210526,-341.92105263157896,-8243.719298245614,-713.2894736842105,229.4298245614035,9
2024-06-13 20:28:23,-0.5338962078,0.01343903504,-0.1563815027,1.280897856,-8.010998726,4.580107689,-466.8191489361702,82.62765957446808,-148.11702127659575,-8282.787234042553,-743.4787234042553,154.64893617021278,9
2024-06-13 20:28:23,0.1905899495,-0.4642575979,-0.1832595766,1.70946002,-9.133879662,4.616020679,-451.9611650485437,-42.43689320388349,8.71844660194175,-8266.349514563106,-670.0485436893204,280.3592233009709,9
2024-06-13 20:28:23,0.1197295859,0.2296853364,0.03298672289,1.460463047,-9.452308655,3.842693806,-670.5849056603773,135.4056603773585,-25.89622641509434,-8282.905660377359,-818.8962264150944,344.7169811320755,9
2024-06-13 20:28:23,0.1197295859,0.2296853364,0.03298672289,1.460463047,-9.452308655,3.842693806,-649.8932038834952,-10.077669902912625,-46.52427184466019,-8179.941747572815,-741.1262135922331,161.58252427184465,9
2024-06-13 20:28:23,0.2419026345,0.7757988572,-0.09896016866,1.728613615,-8.525752068,5.176264286,36.17647058823529,-251.1960784313725,-290.9803921568628,-8292.470588235294,-690.4313725490196,530.9411764705883,9
2024-06-13 20:28:23,0.2186897546,0.25167647,-0.09529497474,0.8906430602,-8.418013573,5.671864033,354.77777777777777,-154.11111111111111,-146.77777777777777,-8300.333333333334,-676.3333333333334,581.2962962962963,9
2024-06-13 20:28:23,0.2186897546,0.25167647,-0.09529497474,0.8906430602,-8.418013573,5.671864033,513.4950495049505,-179.68316831683168,-42.3960396039604,-8289.079207920791,-827.6831683168317,611.1881188118812,9
2024-06-13 20:28:23,0.1563815027,0.01343903504,0.1844813079,0.6943184733,-8.858546257,5.544970989,-9.813725490196076,-213.7843137254902,-64.8529411764706,-8270.843137254902,-684.2549019607843,797.0882352941177,9
2024-06-13 20:28:24,0.1563815027,0.01343903504,0.1844813079,0.6943184733,-8.858546257,5.544970989,-837.8076923076923,530.4230769230769,-295.84615384615387,-8280.76923076923,-480.5769230769231,840.4230769230769,9
2024-06-13 20:28:24,-0.7342600226,0.01954768784,0.8246681094,0.5123591423,-8.959102631,5.57848978,-1117.0384615384614,528.1153846153846,-151.23076923076923,-8283.846153846154,-482.88461538461536,838.1153846153846,9
2024-06-13 20:28:24,-0.8051204085,-0.09773843735,0.4349360466,1.034295082,-9.423578262,4.393360138,-481.969696969697,-277.6666666666667,54.333333333333336,-8119.151515151515,-689.7575757575758,1088.878787878788,9
2024-06-13 20:28:24,-0.8051204085,-0.09773843735,0.4349360466,1.034295082,-9.423578262,4.393360138,-454.7714285714286,-301.8285714285714,-6.104761904761908,-8108.542857142857,-886.047619047619,1086.8857142857144,9
2024-06-13 20:28:24,1.295034289,-0.5913175344,0.1148426682,0.7972691655,-8.904036522,3.598485231,-600.6,-363.0,-172.4,-8265.8,-716.6,942.4,9
2024-06-13 20:28:24,0.5424483418,0.1588249654,-0.4679227769,0.9648633003,-6.833051682,7.611167431,348.7142857142857,474.0,-860.4285714285714,-8278.714285714286,-930.2857142857144,939.4285714285714,9
2024-06-13 20:28:24,0.5424483418,0.1588249654,-0.4679227769,0.9648633003,-6.833051682,7.611167431,302.125,460.8076923076923,-419.7884615384616,-8157.490384615385,-719.8173076923076,677.0769230769231,9
2024-06-13 20:28:24,-0.4593706727,0.779464066,-0.4984660447,2.037465572,-7.666234016,6.986280441,-599.0101010101009,828.1010101010102,-319.5151515151515,-7883.121212121212,-977.2929292929292,802.4646464646464,9
2024-06-13 20:28:24,-0.4593706727,0.779464066,-0.4984660447,2.037465572,-7.666234016,6.986280441,-0.5283018867924625,1511.8490566037735,-617.4150943396227,-7877.471698113208,-1363.698113207547,212.09433962264148,9
2024-06-13 20:28:24,0.4581489265,-0.05131268129,-0.3127630055,0.9097966552,-8.305485725,4.903325081,376.3366336633664,1892.1287128712872,-213.3465346534653,-7848.495049504951,-1308.673267326733,-362.35643564356434,9
2024-06-13 20:28:25,-0.2150245607,-0.05253441259,-0.4618141353,0.9145850539,-7.668628216,5.928043365,357.0194174757282,1373.3689320388348,-256.3203883495146,-8279.077669902912,-1387.271844660194,-489.05825242718447,9
2024-06-13 20:28:25,-0.2150245607,-0.05253441259,-0.4618141353,0.9145850539,-7.668628216,5.928043365,738.13,295.05,-443.52,-8001.11,-1630.2,-714.96,9
2024-06-13 20:28:25,0.1637118906,-0.04764748737,-0.2150245607,1.26413846,-8.130708694,6.303933144,851.9417475728155,443.3398058252427,35.76699029126215,-8049.932038834951,-1608.9514563106795,-765.5728155339806,9
2024-06-13 20:28:25,0.4752531648,-0.04031710699,0.2260201424,1.18752408,-7.788338184,6.655880928,722.3394495412845,184.14678899082568,312.8348623853211,-8045.477064220184,-1597.7706422018348,-721.1100917431193,9
2024-06-13 20:28:25,0.4752531648,-0.04031710699,0.2260201424,1.18752408,-7.788338184,6.655880928,95.34343434343435,389.2525252525253,199.2828282828283,-7997.606060606061,-1540.4646464646464,-1072.767676767677,9
2024-06-13 20:28:25,0.2040289938,-0.05864306539,0.07941248268,1.537077546,-6.521805286,6.528987885,69.2,302.56,1201.54,-7880.39,-1389.71,-1142.17,9
2024-06-13 20:28:25,0.2040289938,-0.05864306539,0.07941248268,1.537077546,-6.521805286,6.528987885,-73.38862559241706,63.25118483412322,1893.104265402844,-8101.829383886255,-1187.5308056872038,-1096.7677725118483,9
2024-06-13 20:28:25,-0.235793978,-0.1881465018,-0.03909537569,1.912967205,-7.687781811,7.271190643,-54.90521327014218,196.4265402843602,2212.5355450236966,-7924.578199052133,-1250.090047393365,-994.3981042654028,9
2024-06-13 20:28:25,-0.6707300544,0.1319468915,-0.03665191308,1.489193439,-8.489839554,5.432443619,-329.79,421.46,3417.4,-7909.15,-231.4,-965.01,9
2024-06-13 20:28:25,-0.6707300544,0.1319468915,-0.03665191308,1.489193439,-8.489839554,5.432443619,316.8888888888889,-160.77777777777777,1564.888888888889,-7590.777777777777,1192.7037037037037,-1192.2222222222222,9
2024-06-13 20:28:26,-1.833817482,0.06230825558,0.96028018,-0.6799532771,-10.39562416,2.987963676,281.9117647058824,-265.72549019607845,-32.549019607843135,-7892.568627450981,981.1372549019608,-1028.049019607843,9
2024-06-13 20:28:26,-1.833817482,0.06230825558,0.96028018,-0.6799532771,-10.39562416,2.987963676,228.2079207920792,-511.86138613861385,32.62376237623762,-8029.752475247525,954.6138613861386,-1093.2970297029703,9
2024-06-13 20:28:26,0.3469714522,-0.9004153609,0.9737191796,1.853112102,-13.21599293,7.223306656,-717.9902912621359,-1344.0776699029127,-837.7281553398059,-7905.145631067961,1174.5728155339805,-1099.3980582524273,9
2024-06-13 20:28:26,0.3469714522,-0.9004153609,0.9737191796,1.853112102,-13.21599293,7.223306656,-1197.0384615384614,-1181.2211538461538,-1039.0,-7854.788461538462,995.0769230769232,-739.4423076923077,9
2024-06-13 20:28:26,1.298699498,1.571145415,1.259604096,-3.569754839,-13.52005672,2.260126352,-654.4117647058823,-1240.1764705882354,-1073.235294117647,-7850.882352941177,840.1764705882352,25.176470588235293,9
2024-06-13 20:28:26,3.131295204,-1.634675384,1.501506805,-1.951274395,0.2250549644,4.661510944,38.50485436893204,-61.16504854368932,-473.3398058252427,-8052.563106796117,657.8349514563107,-14.009708737864075,9
2024-06-13 20:28:26,3.131295204,-1.634675384,1.501506805,-1.951274395,0.2250549644,4.661510944,-311.00970873786406,222.33009708737865,-607.3203883495146,-7908.873786407767,641.3300970873786,-14.980582524271846,9
2024-06-13 20:28:26,-3.133738756,0.7293730974,-0.2724458873,-2.901772499,-6.105214119,7.163451672,-972.8461538461538,398.61538461538464,-477.46153846153845,-8210.076923076924,806.6923076923076,-325.61538461538464,9
2024-06-13 20:28:26,1.885130167,0.06719517708,-0.1233947799,-4.764461517,-6.284779549,5.913678169,-1365.9411764705883,506.6470588235294,-604.3529411764706,-8293.235294117647,652.2352941176471,-300.6470588235294,9
2024-06-13 20:28:27,1.885130167,0.06719517708,-0.1233947799,-4.764461517,-6.284779549,5.913678169,-1122.3738317757009,-34.887850467289724,-693.1028037383178,-7960.598130841121,535.7196261682243,84.90654205607477,9
2024-06-13 20:28:27,-0.2272418737,-0.2883284092,0.2113593817,-2.128445387,-1.991975784,10.51533413,-1358.0,831.3960396039604,-770.3663366336634,-7827.554455445545,626.1188118811881,110.50495049504951,9
2024-06-13 20:28:27,-0.2272418737,-0.2883284092,0.2113593817,-2.128445387,-1.991975784,10.51533413,-1710.8666666666666,1448.3333333333333,-1003.1333333333332,-8140.066666666667,277.26666666666665,-440.06666666666666,9
2024-06-13 20:28:27,-0.6133087277,0.5461135507,0.02076941915,-3.538630009,-6.744466305,8.820239067,-1595.0882352941176,1308.735294117647,-1045.0882352941176,-8309.029411764706,59.88235294117647,-885.0882352941177,9
2024-06-13 20:28:27,-0.5546656251,1.033583999,-0.125838235,-3.246537447,-4.280832767,5.71974802,-671.0588235294117,296.94117647058823,-879.8235294117648,-8019.882352941177,-323.7058823529412,-736.3529411764706,9
2024-06-13 20:28:27,-0.5546656251,1.033583999,-0.125838235,-3.246537447,-4.280832767,5.71974802,-815.622641509434,358.0377358490566,-521.7358490566038,-8230.877358490567,-159.9811320754717,-690.2169811320755,9
2024-06-13 20:28:27,-2.007303238,0.4178318381,-1.740965962,-3.988739967,-5.439626217,1.956062794,-690.2376237623762,-60.81188118811881,-393.7227722772277,-8222.821782178218,-266.8910891089109,-795.8811881188119,9
2024-06-13 20:28:27,-0.4263839424,-1.045801282,-0.976162672,-3.45722723,-10.48899746,6.378153324,-783.3125,-95.4375,-419.84722222222223,-8080.756944444444,-212.36111111111111,-806.6666666666666,9
2024-06-13 20:28:27,-0.4263839424,-1.045801282,-0.976162672,-3.45722723,-10.48899746,6.378153324,-411.1538461538461,312.32307692307694,-264.15384615384613,-8236.353846153846,-201.4923076923077,-676.8461538461538,9
2024-06-13 20:28:27,0.5424483418,-0.9016370773,0.2565633953,-0.2082955539,-7.764396191,6.780379295,-246.6039603960396,67.42574257425743,43.05940594059406,-7839.950495049505,-163.8910891089109,-700.2574257425742,9
2024-06-13 20:28:28,0.5424483418,-0.9016370773,0.2565633953,-0.2082955539,-7.764396191,6.780379295,33.70873786407767,194.05825242718447,48.43689320388349,-8274.40776699029,-238.96116504854368,-660.5533980582525,9
2024-06-13 20:28:28,0.3982841372,-0.6487388611,0.1001819,-0.2537853718,-7.793126583,7.311892033,303.15384615384613,-84.38461538461539,275.84615384615387,-8029.076923076923,-357.0769230769231,-701.3076923076923,9
2024-06-13 20:28:28,-3.532022953,0.2858849466,0.290771842,-0.5363011956,-10.78348446,5.908889771,72.377990430622,550.6937799043062,-24.38755980861244,-8011.00956937799,-331.5980861244019,-1131.3397129186603,9
2024-06-13 20:28:28,-3.532022953,0.2858849466,0.290771842,-0.5363011956,-10.78348446,5.908889771,-75.6036036036036,418.3063063063063,-288.68468468468467,-7967.387387387387,-318.22522522522524,-1049.7927927927929,9
2024-06-13 20:28:28,1.693318486,1.215621829,0.6072000265,-1.280897856,-8.51617527,1.881842494,-246.97872340425533,357.1276595744681,-344.1063829787234,-7869.106382978724,-528.8936170212766,-1363.4893617021276,9
2024-06-13 20:28:28,0.2382374406,-0.8234463334,0.8393288255,-3.653551817,-7.903259754,-0.1053448766,522.9904761904762,44.67619047619048,-110.83809523809524,-7838.371428571429,-247.7523809523809,-1261.095238095238,9
2024-06-13 20:28:28,0.2382374406,-0.8234463334,0.8393288255,-3.653551817,-7.903259754,-0.1053448766,439.7884615384616,-63.84615384615385,-82.0673076923077,-7980.625,-198.08653846153845,-1315.326923076923,9
2024-06-13 20:28:28,0.3115412891,-0.4300491214,-0.5290092826,-1.56101954,-7.082048416,6.780379295,80.03921568627452,536.4117647058823,-275.5882352941176,-8005.843137254902,-223.15686274509804,-1261.313725490196,9
2024-06-13 20:28:28,-0.03420845419,0.4581489265,-0.2089159191,-2.621650934,-12.10987186,3.442862034,-117.83809523809524,176.73333333333335,-152.77142857142857,-8009.152380952381,-540.7904761904762,-1572.4666666666667,9
2024-06-13 20:28:29,1.279151797,0.6230825782,1.051909924,-3.948038578,-10.60152531,3.019088268,42.08823529411765,339.8235294117647,-514.1764705882354,-7972.823529411765,-605.2941176470588,-1608.9117647058824,9
2024-06-13 20:28:29,1.279151797,0.6230825782,1.051909924,-3.948038578,-10.60152531,3.019088268,-158.0891089108911,328.1980198019802,-441.3564356435644,-7981.6435643564355,-459.1881188118812,-1654.1782178217825,9
2024-06-13 20:28:29,1.323134065,0.4251621962,1.626123309,-5.214571476,-8.250418663,3.296815634,-261.95238095238096,41.68571428571428,-451.03809523809525,-7733.714285714285,-685.3142857142857,-1495.2190476190476,9
2024-06-13 20:28:29,1.220508814,-0.1331686229,1.793500304,-6.974309444,-4.984727859,4.738125324,174.05825242718447,-96.49514563106796,-504.5242718446602,-7981.52427184466,-726.7378640776699,-1449.6990291262136,9
2024-06-13 20:28:29,1.220508814,-0.1331686229,1.793500304,-6.974309444,-4.984727859,4.738125324,492.7714285714286,-216.94285714285715,-229.82857142857145,-7757.942857142857,-750.7142857142857,-1625.2,9
2024-06-13 20:28:29,0.7134906054,-0.3848451078,1.678657651,-6.902483463,-1.972822189,5.130774021,545.4174757281553,14.941747572815531,-684.1456310679612,-7630.038834951456,-938.5242718446602,-1574.8640776699028,9
2024-06-13 20:28:29,0.7134906054,-0.3848451078,1.678657651,-6.902483463,-1.972822189,5.130774021,239.945945945946,-20.729729729729726,-985.6756756756756,-7983.810810810811,-1343.972972972973,-1216.3243243243244,9
2024-06-13 20:28:29,0.3738495409,-0.3359758854,1.213178396,-6.79953289,0.1939303428,6.040570736,206.2388059701493,84.97014925373134,-800.179104477612,-7967.835820895522,-1327.179104477612,-1270.686567164179,9
2024-06-13 20:28:29,0.2956587672,-0.235793978,1.051909924,-6.050147533,1.836352706,6.169857979,-369.57142857142856,70.14285714285714,-437.2040816326531,-7611.571428571428,-1414.428571428571,-1428.1836734693877,9
2024-06-13 20:28:29,0.2956587672,-0.235793978,1.051909924,-6.050147533,1.836352706,6.169857979,-315.65346534653463,-49.306930693069305,-806.8811881188119,-7646.534653465346,-1487.148514851485,-1573.7722772277227,9
2024-06-13 20:28:30,0.2443460971,-0.1893682331,0.7171558142,-5.552153587,3.217807055,6.517016888,39.0,-51.0,-814.2,-7653.0,-1808.8,-1419.6,9
2024-06-13 20:28:30,0.1136209369,-0.1123992056,0.4007275999,-5.207388878,3.694253206,6.732495308,737.2164948453608,-216.75257731958763,-431.10309278350513,-7713.484536082474,-1888.4123711340203,-1377.0618556701031,9
2024-06-13 20:28:30,0.1136209369,-0.1123992056,0.4007275999,-5.207388878,3.694253206,6.732495308,946.4660194174758,-379.3786407766991,-584.7961165048544,-7662.349514563107,-2077.097087378641,-903.6407766990292,9
2024-06-13 20:28:30,0.145385921,-0.1734857261,0.2919935882,-4.778826714,4.304774761,6.900089264,1375.6448598130842,-469.7570093457944,-906.2242990654206,-7684.934579439252,-2258.308411214953,-736.4018691588785,9
2024-06-13 20:28:30,0.145385921,-0.1734857261,0.2919935882,-4.778826714,4.304774761,6.900089264,1761.6601941747572,-201.5145631067961,-1068.8155339805826,-7719.252427184466,-2850.990291262136,-711.8737864077669,9
2024-06-13 20:28:30,0.228463605,-0.1221730486,0.1795943826,-4.697423935,4.747702122,6.68461132,2074.456310679612,-216.89320388349515,-1393.3592233009708,-7738.669902912621,-2888.9514563106795,-879.9902912621359,9
2024-06-13 20:28:30,0.1649336219,-0.0415388383,0.03420845419,-4.355052948,5.087678432,6.715735912,1158.3663366336634,51.26732673267327,-515.4158415841584,-7743.168316831683,-2888.4455445544554,-526.009900990099,9
2024-06-13 20:28:30,0.1649336219,-0.0415388383,0.03420845419,-4.355052948,5.087678432,6.715735912,577.4215686274509,-104.42156862745098,-105.37254901960785,-7767.64705882353,-2699.774509803922,-563.1274509803922,9
2024-06-13 20:28:30,0.1429424733,0.02687807009,0.0109955743,-4.625597477,5.348646641,6.600813866,361.6666666666667,89.23809523809524,189.9047619047619,-7599.428571428572,-2767.0,-591.6190476190476,9
2024-06-13 20:28:31,0.1783726513,-0.1038470939,-0.00122173049,-4.592078686,5.489904404,6.43321991,-222.31914893617025,-503.8085106382979,-597.0,-7648.95744680851,-2520.8936170212764,-16.404255319148945,9
2024-06-13 20:28:31,0.1331686229,-0.06352998316,-0.03909537569,-4.477157116,5.714959621,6.335057735,-746.7156862745098,-448.30392156862746,-887.7549019607843,-7726.382352941177,-2845.558823529412,-17.67647058823529,9
2024-06-13 20:28:31,0.1331686229,-0.06352998316,-0.03909537569,-4.477157116,5.714959621,6.335057735,-755.7925925925927,-247.3851851851852,-411.7185185185185,-7767.059259259259,-2930.051851851852,-18.74074074074074,9
2024-06-13 20:28:31,0.09529497474,-0.05986479297,-0.00122173049,-4.357447147,5.870582581,6.212953568,82.85714285714289,259.7142857142857,-500.1428571428571,-7394.0,-3218.5714285714284,346.0,9
2024-06-13 20:28:31,0.03176499158,-0.04031710699,0.03176499158,-4.395754337,5.734113216,6.222530365,1232.622641509434,375.622641509434,-1953.5471698113208,-7408.169811320755,-3328.575471698113,-42.443396226415096,9
2024-06-13 20:28:31,0.03176499158,-0.04031710699,0.03176499158,-4.395754337,5.734113216,6.222530365,954.1616161616162,-743.8686868686868,-2706.2626262626263,-7460.646464646465,-3531.79797979798,369.47474747474746,9
2024-06-13 20:28:31,0.01343903504,0.008552113548,0.02809980139,-4.285621166,5.772420406,6.20337677,596.6504854368932,-707.9514563106796,-2490.0582524271845,-6998.184466019417,-4355.388349514563,524.2330097087379,9
2024-06-13 20:28:31,0.01221730467,-0.01343903504,0.0109955743,-4.220977783,5.798756599,6.251260757,454.4705882352941,-793.0,-1836.3529411764705,-6780.588235294118,-4820.176470588235,783.6470588235294,9
2024-06-13 20:28:31,0.01221730467,-0.01343903504,0.0109955743,-4.220977783,5.798756599,6.251260757,365.4313725490196,-490.78431372549016,-2072.4117647058824,-6416.254901960784,-5151.862745098039,958.4901960784314,9
2024-06-13 20:28:31,0.04886921868,0.02687807009,0.0171042271,-4.314351559,5.908889771,6.205770969,532.0,-254.0,-2307.0,-6280.0,-5420.5,1154.5,9
2024-06-13 20:28:32,0.04886921868,0.02687807009,0.0171042271,-4.314351559,5.908889771,6.205770969,-39.78431372549019,-346.01960784313724,-1712.3333333333333,-5889.35294117647,-5954.78431372549,1162.6666666666667,9
2024-06-13 20:28:32,0.0232128799,-0.006108652335,-0.03298672289,-4.297592163,5.889736176,6.054935932,-67.06572769953053,-297.8356807511737,-1621.7136150234742,-5862.779342723004,-5842.469483568075,1232.469483568075,9
2024-06-13 20:28:32,-0.09407325089,0.03054326214,-0.04642575979,-4.410119534,5.861005783,6.030993938,16.50234741784037,-206.75586854460093,-1600.1173708920187,-5657.615023474178,-5859.840375586855,1249.8403755868544,9
2024-06-13 20:28:32,-0.09407325089,0.03054326214,-0.04642575979,-4.410119534,5.861005783,6.030993938,-270.1818181818182,-211.0,-1342.0,-5252.0,-6241.727272727273,1504.1818181818182,9
2024-06-13 20:28:32,-0.07086037099,0.01954768784,-0.009773843922,-4.402936935,5.770026207,6.20337677,-574.8155339805825,-304.4757281553398,-604.8446601941747,-5189.922330097087,-6739.990291262136,1547.73786407767,9
2024-06-13 20:28:32,0.03909537569,0.008552113548,-0.006108652335,-4.419696331,5.746084213,6.263231754,-491.6,-287.6,-322.2,-5166.0,-6779.8,1545.4,9
2024-06-13 20:28:32,0.03909537569,0.008552113548,-0.006108652335,-4.419696331,5.746084213,6.263231754,-299.38613861386136,-306.83168316831683,-281.05940594059405,-5133.049504950495,-6758.247524752475,1504.3861386138617,9
2024-06-13 20:28:32,-0.00122173049,0.01343903504,-0.0293215327,-4.434061527,5.652710438,6.275202751,-490.22330097087377,-269.6601941747573,79.6116504854369,-4843.407766990291,-6755.097087378641,1236.4077669902913,9
2024-06-13 20:28:32,-0.00122173049,0.01343903504,-0.0293215327,-4.434061527,5.652710438,6.275202751,-251.2038834951456,246.38834951456312,-90.70873786407768,-4864.932038834952,-6609.961165048544,1184.6990291262136,9
2024-06-13 20:28:32,0.05009094998,0.008552113548,-0.03787364438,-4.515464306,5.705382824,6.239289761,-348.0,162.0,306.5,-4853.5,-6752.0,1177.5,9
2024-06-13 20:28:33,0.1380555481,0.006108652335,-0.03054326214,-4.546588898,5.772420406,6.133944988,-360.4705882352941,163.88235294117646,203.55882352941177,-5139.529411764706,-6562.088235294118,1398.0588235294117,9
2024-06-13 20:28:33,0.1380555481,0.006108652335,-0.03054326214,-4.546588898,5.772420406,6.133944988,-266.811320754717,560.2075471698113,804.0754716981132,-5217.830188679245,-6748.264150943396,1346.8490566037735,9
2024-06-13 20:28:33,-0.0109955743,-0.02565634064,-0.05375614017,-4.623203278,5.691017628,6.069301128,77.92,899.04,1431.9733333333334,-5486.053333333333,-6365.586666666667,1298.4666666666667,9
2024-06-13 20:28:33,0.02199114859,-0.06108652428,-0.1038470939,-4.572925091,5.801150799,6.157886982,-1644.6538461538462,1448.6153846153848,3644.826923076923,-5930.615384615385,-5369.115384615385,863.4423076923077,9
2024-06-13 20:28:33,0.02199114859,-0.06108652428,-0.1038470939,-4.572925091,5.801150799,6.157886982,-4183.333333333333,1258.7777777777778,5519.666666666667,-6800.777777777777,-4646.777777777777,142.33333333333334,9
2024-06-13 20:28:33,0.08552113175,-0.04886921868,-0.05986479297,-4.702212334,5.798756599,6.090848923,-4273.21359223301,275.4368932038835,4076.456310679612,-7145.417475728155,-4218.174757281553,-756.126213592233,9
2024-06-13 20:28:33,0.08552113175,-0.04886921868,-0.05986479297,-4.702212334,5.798756599,6.090848923,-2113.223300970874,95.85436893203882,2438.1553398058254,-7506.631067961165,-3437.6893203883496,-1236.5436893203882,9
2024-06-13 20:28:33,0.05619960278,-0.05619960278,-0.05619960278,-4.67827034,5.925649166,5.844246387,-1366.4528301886794,21.02830188679245,1835.0754716981128,-7664.433962264151,-3016.22641509434,-1294.7735849056603,9
2024-06-13 20:28:33,0.04764748737,-0.04642575979,-0.06230825558,-4.65193367,5.815515995,5.94959116,-122.67961165048544,-610.2815533980582,1285.6699029126214,-7610.854368932039,-2393.2912621359224,-1264.242718446602,9
2024-06-13 20:28:33,0.04764748737,-0.04642575979,-0.06230825558,-4.65193367,5.815515995,5.94959116,520.6078431372549,-968.5882352941176,918.4117647058824,-7620.058823529412,-1920.058823529412,-882.3725490196078,9
2024-06-13 20:28:34,0.02809980139,-0.01343903504,-0.008552113548,-4.671087742,5.789179802,5.901707172,95.77142857142856,-1056.9714285714283,849.2857142857143,-8029.228571428572,-1853.8857142857144,-300.51428571428573,9
2024-06-13 20:28:34,0.00244346098,-0.01466076635,0.03665191308,-4.594472885,5.940014362,6.047753334,337.05882352941177,-940.3235294117648,841.8823529411765,-7846.294117647059,-1730.2941176470588,67.79411764705883,9
2024-06-13 20:28:34,0.00244346098,-0.01466076635,0.03665191308,-4.594472885,5.940014362,6.047753334,503.3853211009175,-1000.3211009174312,841.4862385321101,-7828.018348623853,-1511.7614678899083,48.559633027522935,9
2024-06-13 20:28:34,-0.02076941915,0.01954768784,-0.006108652335,-4.584896088,5.846640587,5.908889771,269.33333333333337,-736.3333333333334,238.0,-7975.0,-1401.0,164.33333333333334,9
2024-06-13 20:28:34,-0.02076941915,0.01954768784,-0.006108652335,-4.584896088,5.846640587,5.908889771,-321.4,-177.22857142857143,97.42857142857144,-7840.657142857143,-1335.3714285714286,591.4285714285714,9
2024-06-13 20:28:34,0.01343903504,0.03909537569,0.0293215327,-4.656722069,5.688623428,6.126761913,-492.2857142857143,61.54285714285714,-521.9714285714285,-7989.542857142857,-1655.5428571428572,222.3142857142857,9
2024-06-13 20:28:34,0.06719517708,0.05497787148,0.06597344577,-4.601655483,5.923254967,5.851428986,-660.2943548387096,344.4193548387097,25.36290322580645,-8250.487903225807,-1639.0,140.94758064516128,9
2024-06-13 20:28:34,0.06719517708,0.05497787148,0.06597344577,-4.601655483,5.923254967,5.851428986,-723.6008064516129,170.2258064516129,84.23387096774194,-8271.858870967742,-1639.0,150.22177419354838,9
2024-06-13 20:28:34,0.006108652335,0.04276056588,0.02199114859,-4.565742493,5.849034786,5.880159378,-786.9072580645161,-3.967741935483844,143.1048387096774,-8293.229838709678,-1639.0,159.4959677419355,9
2024-06-13 20:28:35,0.00244346098,-0.003665191587,0.003665191587,-4.46039772,6.004657745,5.892130375,18.369565217391305,59.0,1294.891304347826,-8473.58695652174,-1083.7826086956522,431.7826086956522,9
2024-06-13 20:28:35,0.106290549,0.07452555746,0.0,-4.745307922,6.042964935,5.784391403,630.6884057971015,59.0,2024.6014492753625,-8226.485507246376,-976.536231884058,424.536231884058,9
2024-06-13 20:28:35,0.106290549,0.07452555746,0.0,-4.745307922,6.042964935,5.784391403,3275.529411764706,272.19117647058823,4359.25,-7843.808823529412,81.17647058823525,549.1323529411765,9
2024-06-13 20:28:35,-0.007330383174,0.02443460934,0.01221730467,-4.649539471,6.071695328,5.793968201,2152.5607476635514,-18.495327102803746,2166.3177570093458,-7913.4953271028035,1555.6635514018692,149.37383177570092,9
2024-06-13 20:28:35,-0.003665191587,0.0,-0.02199114859,-4.589684486,6.124367714,5.635950565,7.399999999999977,-312.0,-34.80000000000001,-7918.0,1594.8,197.8,9
2024-06-13 20:28:35,-0.003665191587,0.0,-0.02199114859,-4.589684486,6.124367714,5.635950565,-749.0612244897959,-43.38775510204084,-337.53061224489795,-8149.897959183673,1343.7142857142858,211.55102040816325,9
2024-06-13 20:28:35,-0.1246165112,0.0232128799,-0.05009094998,-4.455609322,6.038176537,5.822698593,-1027.3761467889908,-186.8440366972477,-243.8440366972477,-8202.522935779816,1348.9174311926606,450.7889908256881,9
2024-06-13 20:28:35,-0.3176499307,0.08552113175,-0.3017674387,-4.003105164,5.841852188,5.743690014,-1524.6666666666667,-156.66666666666666,-1543.3333333333333,-8195.333333333334,845.3333333333334,807.0,9
2024-06-13 20:28:35,-0.3176499307,0.08552113175,-0.3017674387,-4.003105164,5.841852188,5.743690014,-892.5882352941177,458.2352941176471,-1388.8235294117646,-8271.70588235294,155.41176470588235,456.52941176470586,9
2024-06-13 20:28:35,-0.8491026759,0.290771842,-1.027475357,-3.610456228,3.914519787,5.209783077,-290.9326923076923,825.7596153846154,-1342.5192307692307,-8300.971153846154,-38.00961538461539,243.20192307692307,9
2024-06-13 20:28:36,-0.8491026759,0.290771842,-1.027475357,-3.610456228,3.914519787,5.209783077,-379.3398058252427,455.4757281553398,-945.8737864077668,-8095.766990291262,89.2135922330097,244.10679611650485,9
2024-06-13 20:28:36,-1.248608589,0.6133087277,-2.282192469,-4.776432514,1.233013868,5.420472622,-622.9245283018868,575.3207547169811,-938.566037735849,-8046.905660377359,75.45283018867924,90.73584905660375,9
2024-06-13 20:28:36,-0.9065240026,0.283441484,-3.459940672,-5.571307182,-6.110002518,4.252102375,-805.4716981132076,793.2452830188679,-1006.9622641509434,-7906.33962264151,30.16981132075472,17.15094339622641,9
2024-06-13 20:28:36,-0.9065240026,0.283441484,-3.459940672,-5.571307182,-6.110002518,4.252102375,-995.5,1230.72,-1496.36,-8297.36,-617.06,-222.82,9
2024-06-13 20:28:36,-0.7501425147,-0.4056145251,-3.451388597,-3.687070608,-11.19528675,6.296750546,-621.6091954022988,807.1149425287356,-925.9080459770116,-7880.091954022989,-1091.344827586207,-583.6781609195402,9
2024-06-13 20:28:36,-0.05864306539,-0.4141666293,-1.257160664,-2.741360903,-10.47702694,5.662287235,-202.7523809523809,1051.7809523809524,-978.847619047619,-7904.019047619047,-1311.6190476190477,-1026.0285714285717,9
2024-06-13 20:28:36,-0.05864306539,-0.4141666293,-1.257160664,-2.741360903,-10.47702694,5.662287235,30.29807692307692,584.4038461538462,-654.9807692307693,-7923.0192307692305,-1285.2884615384614,-928.2596153846154,9
2024-06-13 20:28:36,-0.09162978828,-0.06597344577,0.2492330223,-1.678335428,-9.485827446,4.5370121,326.90384615384613,-275.65384615384613,-526.4807692307693,-7891.884615384615,-1572.0961538461538,-1060.4038461538462,9
2024-06-13 20:28:36,-0.09162978828,-0.06597344577,0.2492330223,-1.678335428,-9.485827446,4.5370121,156.41346153846155,-123.0096153846154,-94.60576923076924,-7993.788461538462,-1444.0192307692307,-982.25,9
2024-06-13 20:28:36,0.2309070677,-0.1527163088,0.6511823535,-0.7613561153,-9.421183586,4.491522312,261.77241379310345,-189.12413793103448,104.69655172413792,-7828.834482758621,-1460.1655172413791,-872.0,9
2024-06-13 20:28:37,-0.1905899495,-0.4312708676,0.338419348,-0.7182605267,-8.793902397,4.438849926,459.70344827586206,-208.43448275862067,101.93793103448276,-7836.420689655172,-1452.5793103448275,-872.0,9
2024-06-13 20:28:37,-0.1905899495,-0.4312708676,0.338419348,-0.7182605267,-8.793902397,4.438849926,-332.4684684684685,-1078.081081081081,-179.78378378378378,-7934.774774774774,-1420.063063063063,-553.5225225225225,9
2024-06-13 20:28:37,-0.06841690838,-0.3689626157,0.2748893499,-1.130063176,-9.193734169,4.321534157,-355.8918918918919,-1032.1351351351352,-368.97297297297297,-7973.513513513513,-1873.2162162162165,-179.64864864864865,9
2024-06-13 20:28:37,-0.1563815027,-0.5302310586,0.2296853364,-1.613691926,-8.786720276,4.283226967,-70.14285714285717,-439.28571428571433,-855.8571428571429,-7976.071428571428,-1723.642857142857,-279.7142857142857,9
2024-06-13 20:28:37,-0.1563815027,-0.5302310586,0.2296853364,-1.613691926,-8.786720276,4.283226967,156.23762376237624,139.40594059405942,-558.1881188118812,-8179.544554455446,-1776.009900990099,-341.1980198019802,9
2024-06-13 20:28:37,-0.3237585723,-0.2687807083,0.1075122803,-1.019929886,-9.129091263,3.797203779,147.72815533980582,-432.5825242718447,0.165048543689295,-7894.47572815534,-1919.3009708737864,-31.019417475728147,9
2024-06-13 20:28:37,-0.3237585723,-0.2687807083,0.1075122803,-1.019929886,-9.129091263,3.797203779,-726.0560747663551,-706.785046728972,180.57943925233644,-7997.542056074766,-1715.3644859813085,293.25233644859816,9
2024-06-13 20:28:37,0.0232128799,-0.2003637999,0.1514945775,-0.605733037,-8.983044624,4.139574528,-110.6237623762376,-499.6732673267327,-113.94059405940595,-7935.445544554455,-1757.4257425742574,326.45544554455444,9
2024-06-13 20:28:37,-0.1734857261,-0.02809980139,0.07452555746,-1.386242747,-9.797073364,4.209006786,-34.96226415094338,-286.64150943396226,-282.9245283018868,-7875.415094339623,-1713.4150943396226,247.9056603773585,9
2024-06-13 20:28:37,-0.1734857261,-0.02809980139,0.07452555746,-1.386242747,-9.797073364,4.209006786,178.22772277227722,-77.8019801980198,-86.48514851485149,-7971.663366336634,-1704.7623762376238,600.0693069306931,9
2024-06-13 20:28:38,-0.3750712574,0.2565633953,0.2541199327,-2.114080191,-9.528923035,3.280056238,-151.11650485436894,211.0,-407.41747572815535,-7869.291262135922,-1774.1747572815534,183.8446601941748,9
2024-06-13 20:28:38,0.07941248268,-0.3677408695,0.4862487316,-2.370259762,-8.896853447,2.609679937,-309.0,153.22772277227722,-230.1980198019802,-7863.306930693069,-2009.90099009901,209.65346534653463,9
2024-06-13 20:28:38,0.07941248268,-0.3677408695,0.4862487316,-2.370259762,-8.896853447,2.609679937,-28.96,24.64,-604.28,-7912.04,-1984.44,394.6,9
2024-06-13 20:28:38,0.6499606371,-0.1539380401,-0.1661553532,-0.7637503147,-10.58476543,6.296750546,261.7547169811321,100.11320754716982,-275.9811320754717,-7817.924528301887,-2099.0283018867926,529.311320754717,9
2024-06-13 20:28:38,0.6499606371,-0.1539380401,-0.1661553532,-0.7637503147,-10.58476543,6.296750546,-9.6,262.8,-260.0,-8039.8,-2052.4,553.8,9
2024-06-13 20:28:38,-0.8478809595,1.6224581,0.5094616413,-3.531447411,-10.15620327,3.593696833,64.33333333333333,194.66666666666663,-786.0,-7976.333333333333,-2382.6666666666665,535.0,9
2024-06-13 20:28:38,3.171612263,-1.737300754,1.571145415,-4.328716755,-5.798756599,2.710236311,110.47368421052632,491.1578947368421,-766.4736842105264,-7986.631578947368,-2211.2631578947367,559.6315789473684,9
2024-06-13 20:28:38,3.171612263,-1.737300754,1.571145415,-4.328716755,-5.798756599,2.710236311,101.11695906432747,325.0760233918129,-546.0058479532163,-7733.415204678363,-2249.2748538011697,550.859649122807,9
2024-06-13 20:28:38,1.249830246,-1.058018565,0.5546656251,-1.764526606,-2.056619167,8.588001251,-694.7058823529412,521.5294117647059,-261.7058823529412,-7861.019607843137,-2537.098039215686,76.35294117647058,9
2024-06-13 20:28:38,-0.1563815027,-0.3677408695,0.2260201424,-1.453280449,-2.212242365,9.861717224,-818.7452830188679,547.1981132075472,39.79245283018868,-7668.037735849057,-2572.5943396226417,92.64150943396226,9
2024-06-13 20:28:39,-0.1563815027,-0.3677408695,0.2260201424,-1.453280449,-2.212242365,9.861717224,-762.6767676767677,599.030303030303,356.92929292929296,-7605.111111111111,-2226.868686868687,-357.25252525252523,9
2024-06-13 20:28:39,0.5363397002,-0.4276056588,0.1270599663,-2.480392933,-0.9385270476,9.06205368,-1046.6666666666667,403.53333333333336,-2.466666666666665,-7650.0,-2604.733333333333,-187.13333333333333,9
2024-06-13 20:28:39,0.5363397002,-0.4276056588,0.1270599663,-1.149216771,-0.4094084799,8.018181801,-823.5436893203884,394.13592233009706,29.81553398058253,-7609.854368932039,-2596.7087378640776,-554.9417475728155,9
2024-06-13 20:28:39,-0.03909537569,-0.3567453027,-0.4642575979,-1.149216771,-0.4094084799,8.018181801,-477.9126213592233,407.7281553398058,111.36893203883496,-7595.291262135922,-2267.5825242718447,-449.11650485436894,9
2024-06-13 20:28:39,0.538783133,-0.09162978828,-0.3494149148,1.043871999,0.1891419291,11.14022064,-761.2666666666667,457.4666666666667,-87.66666666666666,-7564.2,-2203.133333333333,-804.4666666666667,9
2024-06-13 20:28:39,0.538783133,-0.09162978828,-0.3494149148,1.043871999,0.1891419291,11.14022064,-1283.8041237113405,379.6701030927835,190.2886597938144,-7979.59793814433,-2394.422680412371,-987.6494845360824,9
2024-06-13 20:28:39,-0.4386012554,1.639562368,-0.4434881806,-0.720654726,1.738190413,11.40837097,-752.152380952381,-174.11428571428573,428.0190476190476,-7719.761904761905,-2386.9238095238097,-916.047619047619,9
2024-06-13 20:28:39,-0.4031710625,-0.4972442985,0.08429940045,-2.396595955,-5.377377033,7.709329605,373.5643564356436,-612.1881188118812,583.2772277227723,-7957.227722772277,-2100.4554455445545,-730.6435643564357,9
2024-06-13 20:28:39,-0.4031710625,-0.4972442985,0.08429940045,-2.396595955,-5.377377033,7.709329605,753.58,-338.06,734.1800000000001,-7977.32,-1798.92,-815.84,9
2024-06-13 20:28:39,0.4471533597,-1.060462117,-0.7819074988,-0.05027823523,0.9816226959,12.44027233,529.7333333333333,-94.33333333333334,1243.2761904761903,-8000.057142857143,-1557.2380952380952,-886.7619047619048,9
2024-06-13 20:28:40,-3.640756845,1.759291887,-0.4618141353,-2.736572504,-2.372653961,5.523423195,165.66990291262135,141.76699029126215,1266.0,-8030.621359223301,-1322.4757281553398,-724.7669902912621,9
2024-06-13 20:28:40,-3.640756845,1.759291887,-0.4618141353,-2.736572504,-2.372653961,5.523423195,16.582524271844648,371.6019417475728,1163.106796116505,-8017.73786407767,-1299.766990291262,-994.9514563106796,9
2024-06-13 20:28:40,2.138028383,-1.164309144,0.05009094998,-1.146822572,-0.3974374831,9.220070839,-91.98039215686272,-85.82352941176471,932.2352941176472,-7858.35294117647,-974.1372549019608,-1060.5098039215686,9
2024-06-13 20:28:40,2.138028383,-1.164309144,0.05009094998,-1.146822572,-0.3974374831,9.220070839,-20.221153846153847,396.36538461538464,606.1346153846154,-7910.278846153846,-986.1634615384615,-1179.7692307692307,9
2024-06-13 20:28:40,0.1172861308,0.616973877,-0.6218608022,1.067813993,-1.426944256,11.37485218,-23.933333333333337,-153.8190476190476,796.1333333333333,-8214.095238095239,-317.6952380952381,-1341.0190476190476,9
2024-06-13 20:28:40,-0.6304129362,-0.6047565937,0.4996877611,-4.333505154,-7.501033783,6.117185116,955.4752475247524,-1335.960396039604,1672.3366336633662,-7953.821782178218,70.74257425742573,-757.8613861386139,9
2024-06-13 20:28:40,-0.6304129362,-0.6047565937,0.4996877611,-4.333505154,-7.501033783,6.117185116,1571.571428571429,-1540.0,1164.0,-7876.428571428572,527.7142857142857,-457.8571428571429,9
2024-06-13 20:28:40,1.791056871,-0.9712757468,-0.9395107627,3.016694069,5.365406036,12.97657299,935.8979591836736,-1121.265306122449,605.8775510204082,-7901.102040816327,454.3673469387755,24.79591836734693,9
2024-06-13 20:28:40,-2.999348402,0.4263839424,-0.07086037099,-4.268861771,-6.624756336,5.013458252,310.86138613861385,-1049.2277227722773,441.2970297029703,-8244.801980198019,769.4653465346535,284.2079207920792,9
2024-06-13 20:28:40,-2.999348402,0.4263839424,-0.07086037099,-4.268861771,-6.624756336,5.013458252,-283.47058823529414,-906.6470588235294,239.1960784313725,-8255.411764705883,783.843137254902,530.3725490196078,9
2024-06-13 20:28:41,4.010941029,-1.182635069,-0.4557054639,-3.560178041,3.296815634,3.100491285,-544.5769230769231,-1119.673076923077,269.22115384615387,-8251.211538461539,442.6538461538461,777.2788461538462,9
2024-06-13 20:28:41,4.010941029,-1.182635069,-0.4557054639,-3.560178041,3.296815634,3.100491285,-1262.6538461538462,-457.9230769230769,-607.7307692307693,-7917.942307692308,416.7884615384616,1381.8076923076924,9
2024-06-13 20:28:41,-2.428800106,1.241278172,-0.4129449129,-4.141968727,-4.352658749,5.202600479,-2146.495145631068,-173.96116504854368,-434.4854368932039,-7925.825242718447,504.9611650485437,1262.883495145631,9
2024-06-13 20:28:41,0.2602286041,-0.4422664344,0.228463605,-1.455674648,-5.13556242,9.962273598,-2189.7619047619046,628.3047619047619,-585.2,-8223.219047619048,-33.095238095238095,1459.2571428571428,9
2024-06-13 20:28:41,0.2602286041,-0.4422664344,0.228463605,-1.455674648,-5.13556242,9.962273598,-2227.8571428571427,743.5428571428572,-245.2,-8184.171428571429,262.1428571428572,1422.1142857142856,9
2024-06-13 20:28:41,1.879021525,-0.09529497474,-0.2797762752,-1.790862918,-1.630451322,10.18732834,-1898.9411764705883,647.7647058823529,-287.94117647058823,-8191.411764705882,113.41176470588236,1204.1176470588234,9
2024-06-13 20:28:41,-0.1356120855,-1.266934514,0.4618141353,0.004788403399,-0.9792284966,8.700529099,-1122.4095238095238,889.3428571428572,-528.7714285714285,-8241.257142857143,211.1238095238096,726.8285714285714,9
2024-06-13 20:28:41,-0.1356120855,-1.266934514,0.4618141353,0.004788403399,-0.9792284966,8.700529099,-1310.68,936.96,-487.48,-7970.56,335.72,515.0,9
2024-06-13 20:28:41,-1.769065738,0.9053022861,-1.379333735,1.520318031,-5.386953831,9.124302864,-1037.9903846153843,1286.0192307692307,-839.7980769230769,-8155.817307692308,-8.596153846153847,232.81730769230768,9
2024-06-13 20:28:41,-1.769065738,0.9053022861,-1.379333735,1.520318031,-5.386953831,9.124302864,-1214.5185185185185,819.7777777777778,-800.0370370370371,-8261.185185185184,306.8888888888889,80.2962962962963,9
2024-06-13 20:28:42,-0.287106663,-0.2101376504,0.2186897546,-0.9265560508,-4.381389141,10.99178028,-1594.91,517.21,-870.14,-8233.66,-213.27,75.1,9
2024-06-13 20:28:42,-0.09529497474,0.2406809032,0.3799581826,-1.776497602,-5.324704647,9.531316757,-1067.1869158878503,432.7289719626168,-651.7009345794393,-8281.280373831776,-501.3271028037384,45.953271028037385,9
2024-06-13 20:28:42,-0.09529497474,0.2406809032,0.3799581826,-1.776497602,-5.324704647,9.531316757,22.478991596638657,259.3109243697479,-316.69747899159665,-8306.134453781513,-673.5966386554621,-279.0,9
2024-06-13 20:28:42,-6.290690422,0.719599247,0.6047565937,-2.487575531,-8.183381081,2.353500366,403.4189189189189,265.97297297297297,27.08108108108109,-8259.135135135135,-707.6891891891892,-153.48648648648648,9
2024-06-13 20:28:42,0.7342600226,-0.3714060783,-0.3738495409,-0.4477157295,-9.478644371,10.0556469,1974.509433962264,-324.3962264150944,1108.245283018868,-8170.830188679245,-536.8867924528302,70.22641509433963,9
2024-06-13 20:28:42,0.7342600226,-0.3714060783,-0.3738495409,-0.4477157295,-9.478644371,10.0556469,1927.514563106796,147.3398058252427,853.0776699029126,-7892.757281553398,-247.45631067961165,74.29126213592232,9
2024-06-13 20:28:42,1.249830246,-0.4740314186,-2.630385637,0.6823474765,-4.23294878,1.290474772,601.3529411764706,778.4509803921569,229.01960784313724,-8036.637254901961,288.6372549019608,-289.97058823529414,9
2024-06-13 20:28:42,1.249830246,-0.4740314186,-2.630385637,0.6823474765,-4.23294878,1.290474772,-810.125,476.9807692307692,-793.6730769230769,-7873.0192307692305,108.83653846153848,-586.5384615384615,9
2024-06-13 20:28:42,1.148426652,-1.679879427,-6.382319927,17.80807304,-3.931279182,2.516305923,-710.1428571428571,492.2857142857143,-701.3142857142857,-7878.457142857143,-44.17142857142858,-564.6,9
2024-06-13 20:28:42,-0.05864306539,-0.866206944,-2.922379255,14.08748245,-2.918531895,1.398213744,84.05825242718447,427.0388349514563,-769.1359223300971,-8129.52427184466,-155.24271844660194,-861.0873786407767,9
2024-06-13 20:28:43,-0.05864306539,-0.866206944,-2.922379255,14.08748245,-2.918531895,1.398213744,197.1214953271028,210.26168224299064,-681.4485981308411,-7908.130841121495,-538.0093457943925,-844.0654205607476,9
2024-06-13 20:28:43,-0.2064724565,-0.3543018401,-1.551597714,9.045293808,-2.762908697,3.359065056,244.5841584158416,532.7722772277227,-633.3663366336634,-7965.782178217822,-439.960396039604,-684.2772277227723,9
2024-06-13 20:28:43,-1.633453608,0.1918116808,0.7403686643,8.595184326,-1.161187768,3.356670856,-315.97115384615387,1035.1442307692307,-188.93269230769232,-8001.778846153846,-780.4038461538462,-1103.5673076923076,9
2024-06-13 20:28:43,-1.633453608,0.1918116808,0.7403686643,8.595184326,-1.161187768,3.356670856,-248.66990291262127,1074.1553398058252,-231.64077669902912,-8044.097087378641,-773.0097087378641,-1293.8252427184466,9
2024-06-13 20:28:43,-0.471587956,0.1661553532,1.962099195,9.96466732,-2.025494576,4.814739704,193.9345794392524,466.7476635514018,-239.82242990654208,-7978.065420560748,-1355.252336448598,-1633.252336448598,9
2024-06-13 20:28:43,-0.471587956,0.1661553532,1.962099195,9.96466732,-2.025494576,4.814739704,187.392523364486,441.5140186915888,-222.06542056074767,-7984.607476635514,-1380.4859813084113,-1458.4859813084113,9
2024-06-13 20:28:43,1.766622305,-0.2809980214,1.479515672,8.628703117,-1.972822189,3.883395195,351.1818181818182,6.181818181818187,-32.60606060606062,-7975.424242424242,-1533.6060606060605,-1515.2424242424242,9
2024-06-13 20:28:43,0.85765481,-0.3396410644,0.08796459436,9.583989143,-1.944091797,2.925714493,773.0769230769231,-396.9230769230769,240.84615384615384,-8023.846153846154,-1300.6923076923076,-1464.3076923076924,9
2024-06-13 20:28:43,0.85765481,-0.3396410644,0.08796459436,9.583989143,-1.944091797,2.925714493,854.552380952381,-60.53333333333333,756.6761904761905,-7622.457142857143,-1012.8761904761903,-1522.752380952381,9
2024-06-13 20:28:43,-0.4874704778,-0.3200933933,-0.3494149148,10.11310768,-1.795651317,2.825158119,443.2621359223301,435.2038834951457,284.378640776699,-7687.106796116504,-919.6213592233008,-1333.883495145631,9
2024-06-13 20:28:44,0.2626720667,-0.1905899495,-0.05986479297,9.119514465,-2.080561161,2.025494576,8.417475728155352,498.4854368932039,294.36893203883494,-7688.57281553398,-792.7281553398059,-1445.9805825242718,9
2024-06-13 20:28:44,0.2626720667,-0.1905899495,-0.05986479297,9.119514465,-2.080561161,2.025494576,-76.55862068965517,266.9310344827586,331.7310344827586,-7917.579310344828,-649.2620689655173,-1458.4758620689656,9
2024-06-13 20:28:44,0.06108652428,0.2028072625,0.5009095073,10.23760605,-1.429338455,2.020706177,49.0,159.4,164.6,-7813.4,-474.6,-1618.6,9
2024-06-13 20:28:44,0.06108652428,0.2028072625,0.5009095073,10.23760605,-1.429338455,2.020706177,70.76923076923077,867.3846153846154,-613.4230769230769,-7663.7692307692305,-421.5,-1995.4615384615383,9
2024-06-13 20:28:44,0.2138028294,-0.1111774743,0.3848451078,9.267954826,-2.801215887,1.608903527,-802.1603773584906,847.188679245283,-398.5943396226415,-7577.103773584906,-777.7452830188679,-2411.198113207547,9
2024-06-13 20:28:44,-0.290771842,-0.574213326,-0.7098253965,9.634267807,-2.511517525,1.910573006,-916.7920792079208,669.1188118811881,-425.1782178217822,-8001.059405940594,-1015.90099009901,-2401.128712871287,9
2024-06-13 20:28:44,-0.290771842,-0.574213326,-0.7098253965,9.634267807,-2.511517525,1.910573006,-517.5769230769231,-244.53846153846155,-451.2307692307692,-7642.7307692307695,-1279.423076923077,-2209.8846153846152,9
2024-06-13 20:28:44,0.7208209634,-0.2382374406,-0.1331686229,10.55124664,-2.281674147,1.551442742,-84.28282828282828,-1182.3030303030305,-202.62626262626264,-7711.292929292929,-1195.6363636363635,-1843.7272727272727,9
2024-06-13 20:28:44,-0.06963863969,0.3469714522,0.3677408695,10.06522369,-2.157175779,1.929726601,-126.03846153846156,-785.25,-312.6730769230769,-7609.836538461538,-1243.3076923076924,-1478.6346153846157,9
2024-06-13 20:28:44,-0.06963863969,0.3469714522,0.3677408695,10.06522369,-2.157175779,1.929726601,-1225.9514563106795,-485.75728155339806,-192.10679611650485,-7858.533980582524,-1257.2912621359224,-1395.4660194174758,9
2024-06-13 20:28:45,-1.009149432,0.5180137157,-0.1759291887,9.782708168,-2.233790159,1.515529633,-1003.6930693069309,-402.980198019802,-534.7227722772277,-7733.138613861386,-1227.3465346534654,-1257.9108910891089,9
2024-06-13 20:28:45,-1.009149432,0.5180137157,-0.1759291887,9.782708168,-2.233790159,1.515529633,-867.3333333333334,-749.5882352941177,-7.980392156862749,-7985.411764705882,-1242.5098039215686,-956.0392156862744,9
2024-06-13 20:28:45,-0.763581574,0.3017674387,-0.522900641,10.38125896,-2.841917515,1.352723956,-699.7,-806.95,48.1,-7849.8,-1001.45,-695.15,9
2024-06-13 20:28:45,-0.5510004759,0.106290549,-0.2956587672,9.603142738,-2.45405674,2.123656988,-785.65,-1035.42,196.24,-7886.67,-928.55,-414.82,9
2024-06-13 20:28:45,-0.5510004759,0.106290549,-0.2956587672,9.603142738,-2.45405674,2.123656988,14.42056074766355,-645.4392523364486,290.785046728972,-7841.8317757009345,-706.3831775700935,-366.4672897196262,9
2024-06-13 20:28:45,-0.763581574,0.2638937831,0.08185594529,9.62469101,-1.733402014,3.256114244,-19.40384615384616,-178.77884615384616,-325.0576923076923,-7864.115384615385,-652.1057692307693,-259.38461538461536,9
2024-06-13 20:28:45,-0.3958406746,0.3237585723,-0.2101376504,9.567230225,-2.327163935,3.579331636,-59.95145631067961,40.65048543689318,-227.88349514563103,-7876.582524271845,-662.7669902912621,-298.33009708737865,9
2024-06-13 20:28:45,-0.3958406746,0.3237585723,-0.2101376504,9.567230225,-2.327163935,3.579331636,-226.10576923076923,-37.18269230769231,104.42307692307692,-8093.086538461538,-1012.8557692307692,-318.03846153846155,9
2024-06-13 20:28:45,-0.04642575979,0.1930334121,-0.5412266254,8.846575737,-1.867477298,3.294421434,-732.8118811881188,-312.9504950495049,240.6435643564357,-8084.811881188119,-1089.8118811881188,-305.3762376237624,9
2024-06-13 20:28:45,-0.04642575979,0.1930334121,-0.5412266254,8.846575737,-1.867477298,3.294421434,-290.8157894736842,-430.6842105263158,16.328947368421055,-8239.453947368422,-1016.1776315789474,22.723684210526315,9
2024-06-13 20:28:46,-0.3225368559,0.09896016866,-0.3298672438,9.165003777,-1.649604917,3.588908434,-233.4,-672.4200000000001,-77.94,-8159.62,-918.88,5.16,9
2024-06-13 20:28:46,-0.5009095073,0.1954768747,0.5338962078,9.399636269,-1.319205165,3.232172251,-1003.1333333333332,-862.5333333333333,-65.66666666666667,-8255.533333333333,-1319.4,215.2,9
2024-06-13 20:28:46,-0.5009095073,0.1954768747,0.5338962078,9.399636269,-1.319205165,3.232172251,-844.5428571428572,-841.6571428571428,112.42857142857142,-8241.628571428571,-1097.1142857142856,487.7714285714286,9
2024-06-13 20:28:46,-0.1221730486,-0.01343903504,0.4337143302,9.10036087,-1.795651317,3.897760391,-731.4,-748.3142857142857,731.0285714285715,-8276.771428571428,-895.0285714285715,706.0285714285715,9
2024-06-13 20:28:46,-0.1832595766,-0.05742133409,0.03909537569,9.124302864,-1.879448295,3.313575268,-315.41509433962267,-942.2641509433962,433.8679245283019,-8270.66037735849,-549.2452830188679,935.3018867924528,9
2024-06-13 20:28:46,-0.1832595766,-0.05742133409,0.03909537569,9.124302864,-1.879448295,3.313575268,49.49484536082474,-542.4845360824743,614.9587628865979,-8221.432989690722,58.83505154639175,1541.0515463917525,9
2024-06-13 20:28:46,-0.9639453292,0.06352998316,-0.7367035151,9.078812599,-2.011129379,2.554613113,544.5924170616114,51.02843601895735,458.9526066350711,-8124.118483412322,-29.658767772511847,1497.5402843601896,9
2024-06-13 20:28:46,-0.9639453292,0.06352998316,-0.7367035151,9.078812599,-2.011129379,2.554613113,553.5971563981043,-7.739336492890999,290.2322274881517,-8145.919431279621,-34.872037914691944,1480.952606635071,9
2024-06-13 20:28:46,-1.580919266,0.09651670605,-1.126435518,10.37168217,-2.56658411,2.456450939,338.4851485148515,481.9306930693069,-312.44554455445547,-8029.306930693069,-30.801980198019805,1125.247524752475,9
2024-06-13 20:28:46,-0.7733554244,0.07941248268,-0.6902777553,9.691728592,-2.521094322,1.319205165,168.05882352941177,1339.3235294117646,-314.5,-8136.78431372549,-517.0588235294117,466.7450980392157,9
2024-06-13 20:28:47,-0.7733554244,0.07941248268,-0.6902777553,9.691728592,-2.521094322,1.319205165,228.5922330097088,1207.0679611650485,-570.5631067961165,-8195.155339805826,-812.6213592233009,151.8640776699029,9
2024-06-13 20:28:47,-0.3127630055,-0.1918116808,-0.2150245607,9.880870819,-2.525882721,1.517923832,555.64,699.64,-1047.16,-8278.68,-1313.72,57.4,9
2024-06-13 20:28:47,-0.3090978265,-0.2883284092,0.1857030392,9.995792389,-2.513911724,2.513911724,1297.7884615384614,689.6538461538462,-1389.7115384615386,-7841.596153846154,-1361.4807692307693,-266.03846153846155,9
2024-06-13 20:28:47,-0.3090978265,-0.2883284092,0.1857030392,9.995792389,-2.513911724,2.513911724,545.0,1018.495145631068,-1001.5728155339806,-7830.747572815534,-1302.0679611650485,-573.7378640776699,9
2024-06-13 20:28:47,0.4667010605,-0.1295034289,0.7330383062,9.186552048,-2.537853718,3.193865061,-120.8,968.0285714285716,-682.4571428571428,-7985.228571428572,-1287.7428571428572,-849.5142857142857,9
2024-06-13 20:28:47,0.4667010605,-0.1295034289,0.7330383062,9.186552048,-2.537853718,3.193865061,-1167.7184466019417,1089.8252427184466,-662.3980582524272,-7955.902912621359,-1799.873786407767,-773.7281553398059,9
2024-06-13 20:28:47,1.221730471,0.1368338168,1.16553092,10.23760605,-3.095702887,2.317587137,-1915.3211009174315,1398.532110091743,-78.62385321100918,-7932.5504587155965,-1487.045871559633,-1255.8990825688074,9
2024-06-13 20:28:47,1.058018565,0.2406809032,1.660331726,9.272743225,-4.580107689,2.130839586,-1681.3761467889908,1225.1376146788991,190.1834862385321,-7660.073394495413,-1639.3394495412845,-1400.8532110091744,9
2024-06-13 20:28:47,1.058018565,0.2406809032,1.660331726,9.272743225,-4.580107689,2.130839586,-1546.6161616161617,688.3030303030303,811.2323232323232,-7601.636363636364,-1288.2222222222222,-1770.7272727272727,9
2024-06-13 20:28:47,0.5693264008,-0.1576032341,2.431243658,8.42759037,-6.126761913,2.808398485,-1872.4966887417213,931.0529801324504,494.0662251655629,-7747.470198675496,-849.3046357615895,-1948.6026490066224,9
2024-06-13 20:28:48,-0.4434881806,-0.813672483,2.541199446,6.071695328,-8.643068314,2.626439333,-3563.0,1335.2857142857142,184.8571428571429,-7642.714285714285,-658.8571428571429,-2244.428571428572,9
2024-06-13 20:28:48,-0.4434881806,-0.813672483,2.541199446,6.071695328,-8.643068314,2.626439333,-3004.0679611650485,261.1747572815534,871.8640776699029,-7664.242718446602,-538.4271844660194,-2257.990291262136,9
2024-06-13 20:28:48,-0.8723155856,-1.286482215,1.771509171,2.808398485,-8.930372238,0.7110779285,-983.0,-103.0,332.5,-7375.5,-398.25,-2502.5,9
2024-06-13 20:28:48,-0.8723155856,-1.286482215,1.771509171,2.808398485,-8.930372238,0.7110779285,574.7428571428571,-638.4,123.8,-7633.371428571429,-320.48571428571427,-2445.3714285714286,9
2024-06-13 20:28:48,0.1038470939,0.06597344577,0.9773843884,-0.6943184733,-10.30464458,0.85473001,1780.930693069307,-856.1485148514852,-200.83168316831683,-7677.455445544554,-297.2772277227723,-2049.237623762376,9
2024-06-13 20:28:48,0.4495968223,0.8100073338,1.076344609,-1.833958507,-8.329427719,2.391807556,1496.7058823529412,-582.5882352941177,-457.6470588235294,-7790.411764705882,-357.3529411764706,-1777.4117647058824,9
2024-06-13 20:28:48,0.4495968223,0.8100073338,1.076344609,-1.833958507,-8.329427719,2.391807556,1432.1818181818182,-617.2929292929293,-593.3737373737374,-7836.232323232323,-713.3232323232323,-1784.8383838383838,9
2024-06-13 20:28:48,0.2919935882,0.2724458873,0.1722639948,-3.849876404,-8.573636055,0.7326257229,1839.0,-945.5,-333.0,-7991.5,-696.5,-1659.5,9
2024-06-13 20:28:48,-1.00670588,0.3701843321,0.04642575979,-3.914519787,-9.588777542,0.8451532125,1322.7326732673268,-892.8415841584158,11.960396039603964,-7978.297029702971,-506.76237623762376,-1243.6930693069307,9
2024-06-13 20:28:48,-1.00670588,0.3701843321,0.04642575979,-3.914519787,-9.588777542,0.8451532125,412.5490196078432,-652.3333333333334,258.3333333333333,-8026.696078431372,-473.8137254901961,-1005.3039215686274,9
2024-06-13 20:28:49,0.125838235,-0.444709897,0.1368338168,-3.481169224,-9.797073364,0.3782838583,-32.7914691943128,-563.5023696682465,-154.478672985782,-8038.995260663507,-661.2511848341233,-700.526066350711,9
2024-06-13 20:28:49,0.125838235,-0.444709897,0.1368338168,-3.481169224,-9.797073364,0.3782838583,-57.90995260663507,-362.0805687203791,-267.2748815165877,-8041.8388625592415,-710.5402843601896,-684.8862559241707,9
2024-06-13 20:28:49,0.1820378453,-0.2101376504,0.08185594529,-2.475604534,-10.64940929,2.564189911,302.07216494845363,-353.2371134020619,-51.78350515463917,-8161.20618556701,-1004.3711340206186,-760.8556701030927,9
2024-06-13 20:28:49,0.3518583775,0.3591887653,-0.3139847219,-2.430114746,-10.11071396,2.604891539,1016.504761904762,-436.5809523809524,-105.77142857142856,-7902.857142857143,-997.047619047619,-462.4380952380952,9
2024-06-13 20:28:49,0.3518583775,0.3591887653,-0.3139847219,-2.430114746,-10.11071396,2.604891539,1017.8235294117648,-605.843137254902,333.05882352941177,-7938.882352941177,-1052.9019607843138,-528.2941176470588,9
2024-06-13 20:28:49,0.7452555895,0.04642575979,-0.07452555746,-3.215412855,-9.821015358,2.97359848,683.4,-598.5428571428571,-43.76190476190476,-8183.847619047619,-1016.7142857142856,-171.83809523809524,9
2024-06-13 20:28:49,0.3872885704,-0.08796459436,0.0415388383,-2.602497339,-8.73404789,3.612850428,120.18627450980392,-361.4509803921569,-53.372549019607845,-7932.568627450981,-735.1960784313726,-151.26470588235293,9
2024-06-13 20:28:49,0.1661553532,-0.1759291887,-0.05375614017,-2.319981337,-8.741230011,3.114856482,80.78571428571429,-541.1948051948052,363.4025974025974,-8053.396103896104,-740.9935064935065,84.98051948051949,9
2024-06-13 20:28:49,0.1661553532,-0.1759291887,-0.05375614017,-2.319981337,-8.741230011,3.114856482,282.51020408163265,-356.8367346938776,-69.53061224489795,-8205.448979591836,-809.1020408163265,-17.877551020408163,9
2024-06-13 20:28:50,0.2761110961,-0.1563815027,0.02565634064,-2.248155355,-8.090007782,4.316745758,-29.533980582524272,20.252427184466026,-263.9611650485437,-8264.116504854368,-693.747572815534,322.5242718446602,9
2024-06-13 20:28:50,1.248608589,0.2797762752,0.1869247705,-3.241749048,-10.83615685,6.758831501,-5.8446601941747645,32.359223300970875,-177.126213592233,-8244.57281553398,-842.1359223300971,359.0873786407767,9
2024-06-13 20:28:50,1.248608589,0.2797762752,0.1869247705,-3.241749048,-10.83615685,6.758831501,-740.29,212.79,-155.79,-8216.1,-739.31,-59.64,9
2024-06-13 20:28:50,3.247359753,0.68539083,0.2748893499,-4.903325081,-6.418854713,5.130774021,-517.8118811881188,561.6138613861386,-340.66336633663366,-8145.920792079208,-1128.7920792079208,102.73267326732672,9
2024-06-13 20:28:50,-0.02565634064,-0.5510004759,0.7440338731,-4.627991676,-4.019864559,9.844957352,232.4857142857143,70.37142857142857,-317.1714285714286,-8272.971428571429,-905.2285714285714,-54.885714285714286,9
2024-06-13 20:28:50,-0.02565634064,-0.5510004759,0.7440338731,-4.627991676,-4.019864559,9.844957352,578.2830188679245,-126.56603773584904,143.0,-8436.32075471698,-1179.1132075471698,181.56603773584905,9
2024-06-13 20:28:50,0.8710938692,-0.4972442985,0.4630358517,-3.876212597,-3.663128614,8.963891029,2571.848780487805,-617.5219512195122,1687.2634146341463,-8301.736585365854,-1856.878048780488,207.32682926829267,9
2024-06-13 20:28:50,0.8710938692,-0.4972442985,0.4630358517,-3.876212597,-3.663128614,8.963891029,6062.828571428571,-961.0857142857144,3016.0857142857144,-8226.019047619047,-1892.9142857142856,311.1809523809524,9
2024-06-13 20:28:50,-2.406809092,0.7440338731,0.1295034289,-1.78368032,-0.7757213712,9.397241592,3493.66,-1267.26,1549.34,-8257.72,1356.2,193.66,9
2024-06-13 20:28:50,-1.112996459,1.010371089,-0.1844813079,-5.363011837,-6.43321991,6.461950302,422.7864077669903,-1622.252427184466,-416.2135922330097,-8299.398058252427,653.7184466019418,968.3883495145632,9
2024-06-13 20:28:51,-1.112996459,1.010371089,-0.1844813079,-5.363011837,-6.43321991,6.461950302,-154.22115384615384,-1359.625,-333.8173076923077,-8205.086538461539,289.125,1655.7692307692307,9
2024-06-13 20:28:51,0.9199630618,-0.8515461683,0.6450737119,-2.717418909,1.482010841,12.21282291,320.7058823529412,-329.11764705882354,93.6470588235294,-7907.470588235294,215.94117647058823,1724.2941176470588,9
2024-06-13 20:28:51,-2.520430088,-0.01588249579,-0.444709897,-3.986345768,-2.133233786,6.387730122,627.0,231.0,225.7692307692308,-8297.923076923076,567.5384615384615,1478.1538461538462,9
2024-06-13 20:28:51,-2.520430088,-0.01588249579,-0.444709897,-3.986345768,-2.133233786,6.387730122,613.0666666666667,248.7333333333333,180.53333333333333,-8316.4,644.8666666666667,1501.2666666666669,9
2024-06-13 20:28:51,1.567480206,-0.48014009,-0.2528982162,-2.746149302,2.286462545,9.004592896,553.9056603773585,332.6792452830189,96.7735849056604,-8299.849056603774,770.7547169811321,1592.1037735849056,9
2024-06-13 20:28:51,1.567480206,-0.48014009,-0.2528982162,-2.746149302,2.286462545,9.004592896,168.44444444444446,-30.0,261.6666666666667,-8098.111111111111,470.1111111111111,1461.4444444444443,9
2024-06-13 20:28:51,-0.6426302195,0.2748893499,-0.1930334121,-2.992752075,-2.410961151,10.00536919,145.2207792207792,36.51948051948052,246.7922077922078,-8184.2467532467535,1116.064935064935,1544.5064935064936,9
2024-06-13 20:28:51,-1.467298269,0.6609562039,-0.2932153046,-4.606443882,-7.505822182,7.316680431,-1011.2727272727273,524.1818181818181,11.727272727272748,-8094.636363636364,1358.2727272727273,1273.7272727272727,9
2024-06-13 20:28:51,-1.467298269,0.6609562039,-0.2932153046,-4.606443882,-7.505822182,7.316680431,-6509.836065573771,2060.72131147541,-412.0,-8068.540983606557,458.8196721311475,712.7704918032787,9
2024-06-13 20:28:51,-0.8796459436,-0.6035348773,0.1221730486,-2.437297344,-1.297657371,10.48181534,-5789.205882352941,2087.8529411764707,-31.30392156862746,-8488.598039215687,48.872549019607845,497.0,9
2024-06-13 20:28:52,-1.852143407,-0.3188716471,-0.6267477274,-2.97359848,-2.633621931,5.935225964,-3132.3232323232323,794.4141414141413,-39.02020202020202,-8206.525252525253,356.25252525252523,612.7676767676768,9
2024-06-13 20:28:52,-1.852143407,-0.3188716471,-0.6267477274,-2.97359848,-2.633621931,5.935225964,-1969.304761904762,458.4476190476191,96.8,-8254.32380952381,697.4380952380952,606.8761904761905,9
2024-06-13 20:28:52,2.138028383,-0.1466076523,0.1123992056,-4.860229492,-5.61919117,5.956773758,-1556.0,360.5,-679.8333333333333,-8118.166666666667,479.5,441.0,9
2024-06-13 20:28:52,2.138028383,-0.1466076523,0.1123992056,-4.860229492,-5.61919117,5.956773758,-696.8155339805826,-21.106796116504853,-540.2815533980582,-8276.368932038835,533.1941747572815,408.5339805825243,9
2024-06-13 20:28:52,-2.039068222,0.1429424733,0.2028072625,-2.477998734,-0.356736064,9.988609314,-110.0566037735849,313.9433962264151,-386.0943396226416,-8284.924528301886,531.0377358490566,577.1132075471698,9
2024-06-13 20:28:52,-0.7391469479,1.469741821,0.03298672289,-3.423708439,-4.019864559,6.136339188,-51.02040816326531,167.22448979591837,-107.21428571428572,-8298.0,406.5612244897959,318.15306122448976,9
2024-06-13 20:28:52,-0.7391469479,1.469741821,0.03298672289,-3.423708439,-4.019864559,6.136339188,19.6,228.7238095238095,3.047619047619051,-8167.533333333334,606.8666666666667,189.59047619047607,9
2024-06-13 20:28:52,-0.9871582389,1.631010175,-1.177748203,-4.307168961,-4.484339714,1.534683347,121.0,-191.1456310679612,-201.33009708737865,-8076.543689320389,533.5825242718447,244.2233009708738,9
2024-06-13 20:28:52,-1.944994926,0.04642575979,-1.620014668,-5.482721806,-10.38125896,1.441309452,224.8252427184466,-342.3592233009709,-565.3009708737864,-8176.514563106796,187.64077669902912,403.9514563106797,9
2024-06-13 20:28:52,-1.944994926,0.04642575979,-1.620014668,-5.482721806,-10.38125896,1.441309452,573.3365384615385,96.1153846153846,-204.6346153846154,-8201.23076923077,205.98076923076923,534.7692307692307,9
2024-06-13 20:28:53,-2.01341176,-0.6963863969,-0.9578366876,-2.8993783,-11.6956749,0.3591302633,426.5882352941176,-199.6764705882353,-88.41176470588235,-8163.823529411765,546.0,542.5882352941177,9
2024-06-13 20:28:53,-2.01341176,-0.6963863969,-0.9578366876,-2.8993783,-11.6956749,0.3591302633,446.6478873239437,-275.6478873239437,-176.09859154929578,-8213.802816901409,614.7887323943662,483.1830985915493,9
2024-06-13 20:28:53,-0.522900641,-0.4728097022,-0.4691445231,-1.707065821,-10.723629,-0.5051765442,579.6216216216217,-230.16216216216216,-338.5495495495495,-8101.981981981982,591.7027027027027,496.3153153153153,9
2024-06-13 20:28:53,-0.6120869517,-0.3152064681,-0.4654793143,-1.029506683,-10.17296314,-1.350329757,-320.68,-192.18,-961.07,-8166.83,91.89,440.04,9
2024-06-13 20:28:53,-0.6120869517,-0.3152064681,-0.4654793143,-1.029506683,-10.17296314,-1.350329757,-189.17567567567568,-88.18243243243244,-1079.5472972972973,-8275.966216216217,-174.4189189189189,724.418918918919,9
2024-06-13 20:28:53,2.200336695,0.4630358517,0.4190535545,-1.616086125,-12.9574194,-0.0718260482,-341.8783783783784,-92.91216216216216,-1093.7364864864865,-8115.831081081081,-200.09459459459453,550.0945945945946,9
2024-06-13 20:28:53,0.6560692787,-0.7489207983,1.197295904,-3.038241863,-7.137115479,0.5650315881,33.737864077669904,58.07766990291262,-1499.8058252427184,-8263.708737864077,-1085.3203883495146,659.9126213592233,9
2024-06-13 20:28:53,0.6560692787,-0.7489207983,1.197295904,-3.038241863,-7.137115479,0.5650315881,213.3960396039604,-43.13861386138614,-1254.2871287128712,-8243.30693069307,-1327.1782178217825,714.8019801980198,9
2024-06-13 20:28:53,0.326202035,-0.4544837475,-0.2309070677,-2.19308877,-7.218518257,4.220977783,140.1359223300971,266.86407766990294,-1105.1941747572816,-8252.203883495145,-1271.3980582524273,740.1844660194175,9
2024-06-13 20:28:53,0.326202035,-0.4544837475,-0.2309070677,-2.19308877,-7.218518257,4.220977783,-53.05769230769231,343.7307692307692,-1153.5,-7920.9807692307695,-1471.7884615384614,685.3269230769231,9
2024-06-13 20:28:54,-0.03665191308,0.625526011,-0.6206390858,-2.595314741,-13.38358784,3.466804028,-55.94230769230769,330.2692307692308,-1278.5,-7870.0192307692305,-1861.2115384615383,651.6730769230769,9
2024-06-13 20:28:54,0.8552113175,0.6890559793,0.5766568184,-3.354276657,-10.46745014,2.999934673,262.7547169811321,178.61320754716982,-1664.6792452830189,-7862.132075471698,-2003.745283018868,821.8018867924528,9
2024-06-13 20:28:54,0.8552113175,0.6890559793,0.5766568184,-3.354276657,-10.46745014,2.999934673,500.3333333333333,67.27272727272728,-2321.848484848485,-7826.0,-2523.909090909091,804.2727272727273,9
2024-06-13 20:28:54,1.13254416,0.4825835526,0.9553932548,-3.852270603,-8.121131897,2.947262287,541.4757281553398,-555.2135922330096,-2960.893203883495,-7817.009708737864,-3027.9708737864075,774.0194174757281,9
2024-06-13 20:28:54,0.6585127115,0.02443460934,0.8319984674,-5.959167957,-6.777985096,4.671087742,407.2641509433962,-718.5849056603773,-3602.0471698113206,-7342.962264150943,-3622.330188679245,981.9716981132076,9
2024-06-13 20:28:54,0.6585127115,0.02443460934,0.8319984674,-5.959167957,-6.777985096,4.671087742,-247.3106796116505,-847.6213592233009,-3852.757281553398,-6942.0679611650485,-4163.233009708738,1296.6699029126214,9
2024-06-13 20:28:54,0.4642575979,-0.1661553532,1.13254416,-5.954379559,-5.556941986,4.450820923,-580.0097087378641,-556.2912621359224,-2919.621359223301,-6443.233009708738,-5150.281553398058,1245.766990291262,9
2024-06-13 20:28:54,0.4642575979,-0.1661553532,1.13254416,-5.954379559,-5.556941986,4.450820923,-795.75,-348.875,-2121.375,-6317.875,-5517.0,1172.875,9
2024-06-13 20:28:54,0.2822197378,-0.1857030392,0.8723155856,-6.076483727,-3.691859007,5.461174011,-697.010101010101,-258.959595959596,-1811.4040404040404,-5796.595959595959,-5592.141414141414,1303.878787878788,9
2024-06-13 20:28:54,-0.07819075137,-0.2565633953,0.5448917747,-6.624756336,-3.454833031,6.390124321,-441.2307692307692,-117.53846153846156,-1400.076923076923,-5811.384615384615,-6088.076923076923,1363.5384615384614,9
2024-06-13 20:28:55,-0.07819075137,-0.2565633953,0.5448917747,-6.624756336,-3.454833031,6.390124321,-106.79245283018868,11.0188679245283,-1007.8301886792452,-5689.811320754717,-6133.679245283019,1346.4905660377358,9
2024-06-13 20:28:55,0.2247984111,-0.2553416789,0.4495968223,-6.660669327,-2.760514498,6.706159115,-12.956521739130435,228.9951690821256,-850.8937198067633,-5340.289855072464,-6156.304347826087,1338.2463768115942,9
2024-06-13 20:28:55,0.2981022298,-0.2101376504,0.4960225821,-6.751648903,-2.078166962,6.938396454,-317.3148148148148,-26.71296296296296,-865.9351851851852,-5286.194444444444,-6250.0,1335.574074074074,9
2024-06-13 20:28:55,0.2981022298,-0.2101376504,0.4960225821,-6.751648903,-2.078166962,6.938396454,-516.7142857142857,36.5,-520.7857142857143,-5064.571428571428,-6441.714285714285,1300.357142857143,9
2024-06-13 20:28:55,0.4361577928,-0.2064724565,0.4654793143,-6.270414352,-0.5698199868,6.7612257,-294.6363636363636,-86.22727272727272,-292.8636363636364,-5063.272727272727,-6637.818181818182,1298.409090909091,9
2024-06-13 20:28:55,0.4361577928,-0.2064724565,0.4654793143,-6.270414352,-0.5698199868,6.7612257,-322.0190476190476,308.95238095238096,-197.5619047619048,-5053.228571428572,-6682.457142857143,968.8,9
2024-06-13 20:28:55,0.3494149148,-0.125838235,0.4386012554,-6.030993938,0.02633621916,7.211335659,-330.1372549019608,367.15686274509807,-182.50980392156865,-5201.549019607844,-6697.490196078431,935.2156862745098,9
2024-06-13 20:28:55,0.4129449129,-0.04642575979,0.4960225821,-6.224924564,1.110909581,7.235277653,-336.72727272727275,135.72727272727272,-218.0909090909091,-5141.0,-6760.181818181818,1121.1818181818182,9
2024-06-13 20:28:55,0.4129449129,-0.04642575979,0.4960225821,-6.224924564,1.110909581,7.235277653,-300.3069306930693,335.990099009901,-189.5148514851485,-5117.623762376237,-6759.19801980198,1074.6534653465346,9
2024-06-13 20:28:55,0.3445279896,-0.04764748737,0.4825835526,-5.899312973,1.948880196,7.472303391,46.35922330097088,-6.9126213592233015,-181.3398058252427,-4841.533980582524,-6596.563106796117,1069.6019417475727,9
2024-06-13 20:28:56,0.5045747161,-0.1319468915,0.5192354321,-5.42765522,3.169923067,7.094019413,59.66666666666666,-84.0,-160.66666666666666,-4788.0,-6572.0,1098.3333333333333,9
2024-06-13 20:28:56,0.5045747161,-0.1319468915,0.5192354321,-5.42765522,3.169923067,7.094019413,4.470588235294116,-47.41176470588236,-130.5,-4758.911764705882,-6558.176470588235,1096.029411764706,9
2024-06-13 20:28:56,0.4984660447,-0.2235766798,0.3445279896,-4.90571928,4.185064793,6.770802498,-313.65346534653463,-72.4059405940594,-329.2475247524753,-4765.178217821782,-6918.0,1074.6435643564355,9
2024-06-13 20:28:56,0.4984660447,-0.2235766798,0.3445279896,-4.90571928,4.185064793,6.770802498,43.09433962264151,-107.17924528301889,-276.9811320754717,-4990.509433962264,-6619.905660377359,1111.2169811320755,9
2024-06-13 20:28:56,0.4337143302,-0.1710422635,0.2003637999,-4.594472885,4.979939461,6.634333134,-224.9636363636364,-96.7090909090909,-313.4909090909091,-4962.272727272727,-6848.636363636364,1120.8363636363636,9
2024-06-13 20:28:56,0.2113593817,-0.06963863969,0.1600466967,-4.314351559,5.286397457,6.574477673,-62.65957446808511,-108.0,-291.97872340425533,-4918.468085106383,-6979.127659574468,1123.8297872340424,9
2024-06-13 20:28:56,0.2113593817,-0.06963863969,0.1600466967,-4.314351559,5.286397457,6.574477673,36.53398058252427,-53.883495145631066,46.970873786407765,-4900.699029126214,-6945.553398058252,963.3495145631068,9
2024-06-13 20:28:56,0.2565633953,-0.03909537569,0.1368338168,-4.302380562,5.607220173,6.540958881,77.1047619047619,-17.97142857142857,55.59047619047619,-4923.495238095238,-6948.8,1147.704761904762,9
2024-06-13 20:28:56,0.2541199327,-0.05375614017,0.1307251602,-4.039018154,5.803544998,6.306327343,94.23809523809524,149.71428571428572,61.523809523809526,-4919.9047619047615,-6759.333333333333,914.095238095238,9
2024-06-13 20:28:56,0.2541199327,-0.05375614017,0.1307251602,-4.039018154,5.803544998,6.306327343,71.85436893203884,78.33009708737865,37.86407766990291,-4929.0679611650485,-6811.941747572815,919.495145631068,9
2024-06-13 20:28:57,0.1539380401,-0.03909537569,0.0720821023,-3.732560396,6.299144745,6.081272125,-67.22784810126582,-41.607594936708864,34.41772151898734,-4929.670886075949,-6620.93670886076,920.5822784810126,9
2024-06-13 20:28:57,0.1539380401,-0.03909537569,0.0720821023,-3.732560396,6.299144745,6.081272125,-264.0632911392405,-49.83544303797469,36.9493670886076,-4939.797468354431,-6619.037974683544,918.0506329113924,9
2024-06-13 20:28:57,0.02443460934,0.01221730467,0.0232128799,-3.952826977,6.215347767,6.047753334,-282.0,-79.56842105263158,21.0,-4952.547368421053,-6652.968421052631,917.9684210526316,9
2024-06-13 20:28:57,0.05009094998,0.01466076635,0.01221730467,-3.90254879,6.416460514,6.133944988,-267.765625,-109.796875,-262.28125,-4917.375,-6927.046875,923.421875,9
2024-06-13 20:28:57,0.05009094998,0.01466076635,0.01221730467,-3.90254879,6.416460514,6.133944988,-302.3225806451613,-56.322580645161295,-302.1935483870968,-4814.903225806452,-6954.967741935484,975.967741935484,9
2024-06-13 20:28:57,0.01832595654,0.03665191308,0.02565634064,-3.857059002,6.445190907,5.942408562,-319.7019230769231,-119.8076923076923,-309.1923076923077,-4601.1057692307695,-6960.9807692307695,972.2980769230768,9
2024-06-13 20:28:57,-0.02687807009,0.03176499158,-0.02443460934,-4.01747036,6.327875137,6.011840343,-284.1782178217822,-64.17821782178218,-340.1881188118812,-4559.0,-7002.683168316832,949.861386138614,9
2024-06-13 20:28:57,-0.02687807009,0.03176499158,-0.02443460934,-4.01747036,6.327875137,6.011840343,-274.63461538461536,-65.97115384615384,-359.5769230769231,-4534.567307692308,-7022.019230769231,970.2115384615385,9
2024-06-13 20:28:57,0.05742133409,0.004886921961,0.01221730467,-3.921702385,6.464344501,6.007051945,-288.6666666666667,-47.66666666666666,-354.6666666666667,-4517.166666666667,-7028.0,971.3333333333334,9
2024-06-13 20:28:57,0.05742133409,0.004886921961,0.01221730467,-3.921702385,6.464344501,6.007051945,-313.52830188679246,-36.67924528301887,-175.58490566037736,-4721.716981132076,-6830.792452830188,921.4150943396228,9
2024-06-13 20:28:58,0.02809980139,-0.0232128799,-0.01832595654,-3.971980572,6.457161903,5.863399982,-274.17543859649123,-100.43859649122808,-164.64912280701753,-4708.1578947368425,-6848.263157894737,936.561403508772,9
2024-06-13 20:28:58,0.09896016866,-0.0232128799,-0.01832595654,-3.952826977,6.440402508,5.779603004,-275.9298245614035,-104.82456140350877,-361.140350877193,-4689.736842105263,-6850.894736842105,932.1754385964912,9
2024-06-13 20:28:58,0.09896016866,-0.0232128799,-0.01832595654,-3.952826977,6.440402508,5.779603004,-301.3684210526316,-40.631578947368425,-305.1578947368421,-4669.105263157895,-6869.473684210527,930.578947368421,9
2024-06-13 20:28:58,0.04031710699,-0.00122173049,-0.006108652335,-3.878606796,6.538564682,5.863399982,-297.1980198019802,-36.06930693069307,-264.7722772277228,-4626.524752475248,-6883.029702970297,938.2079207920792,9
2024-06-13 20:28:58,0.04642575979,0.02076941915,0.00244346098,-3.818751812,6.622362137,5.746084213,-162.0,28.0,6.7333333333333325,-4620.533333333334,-6882.0,1116.0666666666666,9
2024-06-13 20:28:58,0.04642575979,0.02076941915,0.00244346098,-3.818751812,6.622362137,5.746084213,-192.78,110.87,28.51,-4398.07,-6889.53,1126.51,9
2024-06-13 20:28:58,-0.008552113548,0.01832595654,-0.009773843922,-3.883395195,6.576871872,5.820304394,-315.1121495327103,-45.6822429906542,48.96261682242991,-4342.130841121495,-6961.355140186916,1104.4392523364486,9
2024-06-13 20:28:58,-0.008552113548,0.01832595654,-0.009773843922,-3.883395195,6.576871872,5.820304394,-314.3131313131313,-45.686868686868685,31.2020202020202,-4611.737373737374,-6893.848484848485,1100.4848484848485,9
2024-06-13 20:28:58,0.0,0.02565634064,0.01954768784,-4.031835556,6.457161903,5.813121796,-340.0882352941176,-74.30392156862744,50.74509803921568,-4396.078431372549,-7096.921568627451,1087.078431372549,9
2024-06-13 20:28:58,0.01221730467,-0.0109955743,0.0109955743,-3.952826977,6.452373505,5.899312973,105.26143790849672,321.37254901960785,-281.6928104575163,-4322.941176470588,-7194.803921568628,1084.6274509803925,9
2024-06-13 20:28:59,0.01221730467,-0.0109955743,0.0109955743,-3.952826977,6.452373505,5.899312973,116.5,317.25,-291.5,-4321.0,-7112.5,1084.25,9
2024-06-13 20:28:59,0.04398229718,-0.0171042271,0.006108652335,-3.948038578,6.596025467,5.808333397,-106.9090909090909,-32.18181818181819,48.30303030303031,-4318.818181818182,-7186.333333333333,1058.939393939394,9
2024-06-13 20:28:59,0.04520402849,-0.01832595654,0.01588249579,-3.892971992,6.591237068,5.679046631,43.0,-58.0,45.0,-4307.5,-7187.5,1054.0,9
2024-06-13 20:28:59,0.04520402849,-0.01832595654,0.01588249579,-3.892971992,6.591237068,5.679046631,-377.2549019607843,-12.15686274509804,16.19607843137255,-4317.823529411765,-6887.509803921569,1086.7843137254902,9
2024-06-13 20:28:59,0.009773843922,-0.00122173049,0.009773843922,-3.883395195,6.68700552,5.765237808,-224.07476635514016,74.95327102803738,-85.06542056074767,-4316.2336448598135,-7196.794392523365,864.9345794392523,9
2024-06-13 20:28:59,0.009773843922,-0.00122173049,0.009773843922,-3.854664803,6.777985096,5.674258232,33.17171717171717,49.01010101010101,-89.45454545454545,-4616.757575757576,-6909.747474747474,1071.888888888889,9
2024-06-13 20:28:59,0.04764748737,0.008552113548,-0.00122173049,-3.854664803,6.777985096,5.674258232,326.4019607843137,320.8529411764706,-34.25490196078431,-4620.696078431372,-6877.343137254902,1125.9901960784314,9
2024-06-13 20:28:59,0.006108652335,-0.00122173049,-0.007330383174,-3.948038578,6.72291851,5.700594425,354.7826086956522,347.42687747035575,-262.8458498023716,-4619.197628458498,-6883.624505928854,1141.6561264822135,9
2024-06-13 20:28:59,0.006108652335,-0.00122173049,-0.007330383174,-3.948038578,6.72291851,5.700594425,267.8260869565217,345.4505928853755,-283.00395256916994,-4616.430830039526,-6878.881422924901,1140.4703557312253,9
2024-06-13 20:28:59,0.04276056588,0.01588249579,-0.004886921961,-3.883395195,6.72531271,5.463568211,180.8695652173913,343.47430830039525,-303.1620553359684,-4613.664031620553,-6874.138339920949,1139.2845849802372,9
2024-06-13 20:29:00,-0.1148426682,0.04398229718,-0.04764748737,-3.761290789,6.749254704,5.640739441,-158.1,92.6,89.1,-4652.4,-6895.9,1134.6,9
2024-06-13 20:29:00,-0.1148426682,0.04398229718,-0.04764748737,-3.761290789,6.749254704,5.640739441,-358.3269230769231,68.88461538461539,100.9423076923077,-4660.4807692307695,-6838.288461538462,910.8269230769232,9
2024-06-13 20:29:00,-0.3701843321,0.05497787148,-0.145385921,-3.694253206,6.325480938,5.832275391,-343.2,-74.36190476190477,50.79047619047619,-4653.638095238095,-6851.095238095239,910.952380952381,9
2024-06-13 20:29:00,-0.3701843321,0.05497787148,-0.145385921,-3.694253206,6.325480938,5.832275391,-363.2,-10.552380952380958,29.83809523809524,-4617.447619047619,-6860.619047619048,906.190476190476,9
2024-06-13 20:29:00,-0.3872885704,0.1979203373,-0.4569272101,-3.34469986,5.291185856,5.755661011,-283.5,342.448717948718,76.44871794871796,-4657.217948717948,-6863.141025641025,991.4358974358976,9
2024-06-13 20:29:00,-0.7171558142,0.4190535545,-1.354899168,-3.873818398,3.775655985,5.46596241,-266.8333333333333,334.3290598290598,101.66239316239316,-4687.559829059829,-6839.636752136752,1085.4529914529917,9
2024-06-13 20:29:00,-0.7171558142,0.4190535545,-1.354899168,-3.873818398,3.775655985,5.46596241,-295.0945945945946,196.6216216216216,35.486486486486484,-4654.081081081081,-6858.27027027027,1094.9864864864865,9
2024-06-13 20:29:00,-1.126435518,0.4105014503,-2.717128515,-4.900930882,0.1891419291,5.056553841,-333.196261682243,-0.0654205607476683,57.35514018691589,-4672.065420560748,-6881.803738317757,1085.018691588785,9
2024-06-13 20:29:00,-0.8100073338,0.1221730486,-3.745825768,-5.394136429,-5.327098846,5.322310448,-335.0204081632653,-98.57142857142856,12.826530612244907,-4681.214285714285,-6851.5204081632655,1042.265306122449,9
2024-06-13 20:29:00,-0.8100073338,0.1221730486,-3.745825768,-5.394136429,-5.327098846,5.322310448,-312.46153846153845,-94.23076923076924,28.23076923076923,-4713.384615384615,-6817.692307692308,733.8461538461538,9
2024-06-13 20:29:01,-0.7819074988,-0.2370157093,-3.237585783,-4.082113743,-10.63743782,6.574477673,-314.22727272727275,49.06818181818182,30.806818181818183,-4678.375,-6861.318181818182,922.0227272727273,9
2024-06-13 20:29:01,-0.7819074988,-0.2370157093,-3.237585783,-4.082113743,-10.63743782,6.574477673,15.461538461538462,-21.84615384615384,12.384615384615383,-4642.2307692307695,-6838.423076923077,1106.7692307692307,9
2024-06-13 20:29:01,-0.2309070677,-0.634078145,-1.051909924,-2.877830505,-10.3405571,5.403713226,-344.39864864864865,-31.78378378378379,-261.11486486486484,-4650.114864864865,-6869.743243243243,1090.2567567567569,9
2024-06-13 20:29:01,-0.3176499307,-0.299323976,0.5363397002,-1.752555609,-9.83777523,4.604049683,-333.1034482758621,-3.4137931034482776,3.344827586206897,-4610.517241379311,-6911.896551724138,1099.6896551724135,9
2024-06-13 20:29:01,-0.3176499307,-0.299323976,0.5363397002,-1.752555609,-9.83777523,4.604049683,-150.89,-144.76,108.04,-4499.33,-7055.68,901.14,9
2024-06-13 20:29:01,0.05375614017,-0.1710422635,1.016479731,-1.563413739,-9.193734169,4.472368717,-166.75728155339806,-15.21359223300971,-89.35922330097087,-4639.980582524272,-6883.854368932039,1147.3980582524273,9
2024-06-13 20:29:01,0.2382374406,-0.5876523852,0.7953465581,-1.845929503,-8.757989883,4.311957359,41.64356435643565,-35.693069306930695,120.98019801980196,-4654.069306930693,-6835.693069306931,903.0297029702972,9
2024-06-13 20:29:01,0.2382374406,-0.5876523852,0.7953465581,-1.845929503,-8.757989883,4.311957359,18.51456310679612,-41.58252427184466,38.78640776699029,-4654.456310679611,-6860.747572815534,909.1359223300972,9
2024-06-13 20:29:01,0.05009094998,-0.5583308339,0.7819074988,-1.939303398,-8.674192429,4.635174274,-270.58,-77.62,-100.06,-4716.66,-6815.34,1143.22,9
2024-06-13 20:29:01,0.05009094998,-0.5583308339,0.7819074988,-1.939303398,-8.674192429,4.635174274,-291.2475247524753,-84.57425742574257,98.2871287128713,-4695.178217821782,-6827.712871287129,911.7524752475248,9
2024-06-13 20:29:02,-0.2858849466,-0.5913175344,0.574213326,-2.130839586,-7.795520782,5.281609058,-316.01869158878503,-86.17757009345794,116.07476635514018,-4711.70093457944,-6817.654205607477,922.4205607476636,9
2024-06-13 20:29:02,-0.5131267905,0.05619960278,-0.3652974069,-1.26413846,-5.679046631,4.690241337,-328.6355140186916,-81.03738317757009,116.54205607476636,-4709.831775700935,-6809.242990654206,1031.2990654205607,9
2024-06-13 20:29:02,-0.5131267905,0.05619960278,-0.3652974069,-1.26413846,-5.679046631,4.690241337,-335.6666666666667,-70.83333333333333,91.33333333333331,-4690.0,-6802.333333333333,1134.5,9
2024-06-13 20:29:02,-3.762929916,0.05497787148,-1.490511179,-0.7278373241,-8.846575737,0.4333505034,-194.5,56.5,-93.5,-4517.0,-7018.25,1091.25,9
2024-06-13 20:29:02,-4.010941029,0.07086037099,-1.45019412,-1.252167463,-10.22084713,-7.230489254,-175.33333333333334,118.0,52.907407407407405,-4516.648148148148,-7020.62962962963,1083.351851851852,9
2024-06-13 20:29:02,-4.010941029,0.07086037099,-1.45019412,-1.252167463,-10.22084713,-7.230489254,-295.0103092783505,-46.15463917525773,93.5979381443299,-4704.639175257732,-6840.20618556701,1069.4123711340203,9
2024-06-13 20:29:02,-0.9297369123,-0.3762930036,0.1209513173,2.552218914,-10.24957752,-6.653486729,235.5058823529412,306.16470588235296,-229.9882352941177,-4719.164705882353,-6853.964705882353,1128.870588235294,9
2024-06-13 20:29:02,-0.9944885969,-0.07819075137,-0.3848451078,1.472434044,-6.265625954,-7.508216381,-46.49514563106796,64.83495145631068,-352.6601941747573,-4729.621359223301,-6812.669902912621,923.980582524272,9
2024-06-13 20:29:02,-0.9944885969,-0.07819075137,-0.3848451078,1.472434044,-6.265625954,-7.508216381,-5.394230769230774,-21.769230769230774,-220.0769230769231,-4640.096153846154,-6874.634615384615,953.9038461538462,9
2024-06-13 20:29:02,0.3017674387,-0.08429940045,-0.03909537569,1.563413739,-7.156269073,-7.711723804,-241.69230769230768,296.5,-233.96153846153845,-4664.576923076923,-6871.192307692308,960.3461538461538,9
2024-06-13 20:29:03,0.3017674387,-0.08429940045,-0.03909537569,1.563413739,-7.156269073,-7.711723804,-203.0769230769231,38.92307692307693,3.307692307692321,-4705.0,-6827.769230769231,955.5384615384615,9
2024-06-13 20:29:03,2.355496407,0.5913175344,0.09040805697,3.524264812,-7.426813602,-5.082890034,-236.8846153846154,-35.11538461538461,-84.4326923076923,-4694.6057692307695,-6826.644230769231,924.4903846153846,9
2024-06-13 20:29:03,3.120299578,1.693318486,0.3567453027,2.8969841,-11.70285797,-2.82036972,-329.31481481481484,-84.48148148148148,22.52777777777777,-4728.694444444444,-6794.388888888889,901.3888888888888,9
2024-06-13 20:29:03,3.120299578,1.693318486,0.3567453027,2.8969841,-11.70285797,-2.82036972,-309.2019230769231,120.1153846153846,90.71153846153848,-4722.471153846154,-6818.673076923077,1022.7307692307692,9
2024-06-13 20:29:03,1.701870561,0.9260717034,1.36100781,-0.7254431248,-11.33415127,-0.8834604025,-119.87234042553192,276.40425531914894,-68.38297872340425,-4714.489361702128,-6871.255319148936,1113.4255319148936,9
2024-06-13 20:29:03,1.004262447,-0.1514945775,2.415361166,-3.071760893,-8.47786808,1.805228114,41.99082568807339,283.9633027522936,129.9724770642202,-4707.174311926606,-6874.798165137615,1111.7614678899083,9
2024-06-13 20:29:03,1.004262447,-0.1514945775,2.415361166,-3.071760893,-8.47786808,1.805228114,59.09708737864078,271.5533980582524,771.3495145631068,-4661.844660194175,-7055.281553398058,1123.233009708738,9
2024-06-13 20:29:03,2.343279123,-0.4862487316,1.808161139,-2.765302896,-6.864176273,5.099649429,-89.39,711.9,3341.14,-5429.47,-6246.92,717.14,9
2024-06-13 20:29:03,2.343279123,-0.4862487316,1.808161139,-2.765302896,-6.864176273,5.099649429,-899.6019417475728,1072.3009708737864,4501.873786407767,-6019.038834951456,-5496.611650485437,705.3009708737864,9
2024-06-13 20:29:03,1.606575608,-0.8429940343,1.254717231,-5.801150799,-4.630385876,5.710171223,-2276.436893203884,777.4174757281553,5703.320388349514,-6791.611650485437,-4704.728155339806,133.04854368932038,9
2024-06-13 20:29:04,0.7806857824,-1.018923283,0.5754350424,-3.816357613,-1.197100878,7.702147007,-2675.904109589041,324.1095890410959,5966.753424657534,-7134.397260273972,-3895.438356164384,-139.64383561643837,9
2024-06-13 20:29:04,0.7806857824,-1.018923283,0.5754350424,-3.816357613,-1.197100878,7.702147007,-2633.4383561643835,358.35616438356163,5914.698630136986,-7396.041095890411,-3582.4246575342468,-153.34246575342465,9
2024-06-13 20:29:04,0.8967501521,-1.123992085,-0.2528982162,-0.9385270476,-0.009576806799,10.85531044,-2597.754716981132,659.8301886792453,4614.735849056604,-7960.452830188679,-1101.4716981132076,-1106.7169811320755,9
2024-06-13 20:29:04,-0.7489207983,1.631010175,-0.7134906054,-2.588132143,2.686294317,11.86566353,-1890.72,-429.9,2771.87,-8250.02,-268.17,-708.32,9
2024-06-13 20:29:04,-0.7489207983,1.631010175,-0.7134906054,-2.588132143,2.686294317,11.86566353,-1190.25,-1218.25,2581.25,-8140.0,258.5,-673.25,9
2024-06-13 20:29:04,0.3616322279,-0.9908234477,0.4178318381,-4.936843872,-6.627150536,5.025429249,122.77669902912612,-2116.6990291262136,2133.8252427184466,-8243.504854368932,476.19417475728153,18.407766990291293,9
2024-06-13 20:29:04,0.3616322279,-0.9908234477,0.4178318381,-4.936843872,-6.627150536,5.025429249,2113.514563106796,-1750.4757281553398,544.3300970873786,-7838.621359223301,983.126213592233,407.6990291262136,9
2024-06-13 20:29:04,1.974316478,-0.6316346526,-0.5436700583,-2.238578558,6.868964672,11.25514221,1787.4901960784314,-1278.970588235294,260.078431372549,-7929.872549019607,908.9901960784314,692.5098039215686,9
2024-06-13 20:29:04,-2.161241293,-0.1832595766,0.4300491214,-4.683058739,-4.161122322,5.700594425,1881.7962962962963,-1375.4907407407406,295.5462962962963,-7923.111111111111,914.8888888888888,964.3055555555557,9
2024-06-13 20:29:04,-2.161241293,-0.1832595766,0.4300491214,-4.683058739,-4.161122322,5.700594425,1096.142857142857,-610.5714285714286,38.0,-7904.785714285715,1267.428571428571,934.5714285714286,9
2024-06-13 20:29:05,1.998751044,-0.5546656251,-0.2296853364,-2.947262287,-1.762132406,8.259995461,237.54901960784315,-431.7647058823529,-177.2156862745098,-8235.019607843138,1032.8235294117646,1213.2745098039215,9
2024-06-13 20:29:05,-0.1014036313,0.6878342628,-0.3872885704,-2.133233786,0.3375824392,13.26387787,-128.66666666666666,-232.05714285714285,-106.01904761904764,-8232.904761904761,952.8,1303.7428571428572,9
2024-06-13 20:29:05,-0.1014036313,0.6878342628,-0.3872885704,-2.133233786,0.3375824392,13.26387787,-458.6732673267327,-73.20792079207922,46.2970297029703,-8205.930693069307,982.4950495049504,1324.7227722772277,9
2024-06-13 20:29:05,-3.825238228,0.5009095073,-0.06230825558,-4.663905144,-4.436455727,5.169081688,-516.7809523809524,-54.03809523809524,34.32380952380952,-8235.647619047619,964.152380952381,1343.0190476190476,9
2024-06-13 20:29:05,-3.825238228,0.5009095073,-0.06230825558,-4.663905144,-4.436455727,5.169081688,-931.0882352941176,610.2450980392157,-529.3725490196078,-8080.578431372549,1025.7549019607843,1062.0098039215686,9
2024-06-13 20:29:05,0.5644394755,-0.06230825558,-0.06352998316,-5.114014626,-2.446874142,9.531316757,-2109.0,812.7,-1043.5,-8206.4,702.3,1123.8,9
2024-06-13 20:29:05,1.145983219,-0.8210029006,0.07941248268,-2.104503393,-1.067813993,12.04044056,-2096.5,705.825,-1046.625,-8205.15,521.675,1108.8,9
2024-06-13 20:29:05,1.145983219,-0.8210029006,0.07941248268,-2.104503393,-1.067813993,12.04044056,-1495.0,1283.2242990654206,-940.9439252336448,-8084.467289719626,357.86915887850466,569.4018691588785,9
2024-06-13 20:29:05,-1.395216227,1.478293896,-0.6206390858,-2.341529369,0.6751648784,10.95107841,-1329.021505376344,1704.3333333333333,-1123.720430107527,-8089.010752688172,-293.9247311827957,-177.4516129032258,9
2024-06-13 20:29:05,-0.2455678284,-0.6939429045,0.3213151097,-4.390965939,-5.166687489,5.583278179,-700.3177570093458,1487.196261682243,-700.2897196261682,-8123.205607476635,-188.6728971962617,-239.10280373831776,9
2024-06-13 20:29:06,-0.2455678284,-0.6939429045,0.3213151097,-4.390965939,-5.166687489,5.583278179,170.0,350.80582524271847,-529.0291262135922,-8122.932038834951,-173.0873786407767,-436.6116504854369,9
2024-06-13 20:29:06,1.600466967,-0.5546656251,-0.1673770845,-2.485181332,0.921767652,8.161833763,518.989010989011,-485.68131868131866,-411.7142857142857,-8183.923076923077,-549.7472527472528,-170.85714285714286,9
2024-06-13 20:29:06,1.600466967,-0.5546656251,-0.1673770845,-2.485181332,0.921767652,8.161833763,812.3396226415094,-538.5849056603773,-593.2264150943396,-7929.509433962264,-258.6981132075472,-314.7735849056604,9
2024-06-13 20:29:06,0.8417723179,-0.7208209634,0.2186897546,-2.518700123,-1.757344007,10.31900978,433.4519230769231,310.2980769230769,531.625,-8247.432692307691,-327.34615384615387,-310.08653846153845,9
2024-06-13 20:29:06,0.5852088928,-0.8710938692,0.3824016452,-0.9361328483,-0.7134721279,11.45386124,506.84,299.16,386.84,-8281.32,-372.76,16.28,9
2024-06-13 20:29:06,0.5852088928,-0.8710938692,0.3824016452,-0.9361328483,-0.7134721279,11.45386124,-81.5607476635514,141.71028037383178,598.9532710280374,-7920.448598130841,-183.9065420560748,9.925233644859814,9
2024-06-13 20:29:06,-2.124589205,0.669508338,-0.09651670605,-0.8786720037,0.2059013397,8.513781548,-0.252336448598129,498.7196261682243,530.7289719626168,-8235.401869158879,-347.4579439252336,-259.23364485981307,9
2024-06-13 20:29:06,-1.870469332,0.3848451078,-1.400103092,-1.192312479,-3.208230257,8.729259491,-335.5757575757576,421.2121212121213,292.4848484848485,-8190.575757575758,-327.6363636363636,-375.6060606060606,9
2024-06-13 20:29:06,-1.870469332,0.3848451078,-1.400103092,-1.192312479,-3.208230257,8.729259491,-220.85185185185185,413.7407407407408,284.6543209876544,-8237.753086419752,-342.320987654321,-379.0,9
2024-06-13 20:29:06,-0.7941248417,-0.2785545588,-0.6084218025,-1.106121182,-5.906495571,10.41717148,-283.3404255319149,540.2765957446809,80.95744680851064,-8236.851063829787,-354.8936170212766,-229.89361702127653,9
2024-06-13 20:29:07,-0.7941248417,-0.2785545588,-0.6084218025,-1.106121182,-5.906495571,10.41717148,-119.10377358490568,452.9150943396226,248.33962264150944,-8223.16037735849,-6.009433962264154,-460.47169811320754,9
2024-06-13 20:29:07,-0.01954768784,0.1038470939,-0.04031710699,-1.70946002,-5.547365189,8.650250435,66.25773195876289,317.49484536082474,188.87628865979383,-8122.2474226804125,-61.48453608247423,-853.0927835051547,9
2024-06-13 20:29:07,0.05253441259,0.3555235863,-0.1221730486,-0.4213795066,-5.449203014,7.663839817,184.0285714285714,-207.28571428571428,418.6857142857143,-8226.857142857143,-178.74285714285713,-981.0571428571428,9
2024-06-13 20:29:07,0.05253441259,0.3555235863,-0.1221730486,-0.4213795066,-5.449203014,7.663839817,1102.9423076923076,-1134.6346153846152,322.2307692307692,-8194.942307692309,-166.5,-1345.9807692307693,9
2024-06-13 20:29:07,-2.214997292,0.4007275999,0.1490511149,-2.315192938,-6.418854713,6.567295074,1305.4174757281553,-1330.9320388349515,849.5728155339806,-7980.699029126214,86.29126213592232,-1028.6990291262136,9
2024-06-13 20:29:07,-2.608394623,-0.4776966274,-0.1918116808,-2.070984364,-9.674968719,2.401384354,191.2156862745098,-588.8823529411765,504.78431372549016,-7631.235294117647,-20.94117647058824,-1076.3921568627452,9
2024-06-13 20:29:07,-2.608394623,-0.4776966274,-0.1918116808,-2.070984364,-9.674968719,2.401384354,-657.5296610169491,-188.83474576271183,549.3347457627119,-7973.635593220339,-57.75423728813559,-1082.3686440677966,9
2024-06-13 20:29:07,-0.6072000265,0.4618141353,-0.08796459436,-1.702277422,-8.429984093,5.185841084,-752.8686440677966,-179.08898305084745,689.5889830508474,-7888.042372881356,-53.51694915254237,-1088.7245762711864,9
2024-06-13 20:29:07,-0.6072000265,0.4618141353,-0.08796459436,-1.702277422,-8.429984093,5.185841084,-1255.56,-542.4666666666667,500.0533333333333,-8101.213333333333,281.4,-761.1866666666667,9
2024-06-13 20:29:07,1.732413888,0.05253441259,-3.354871988,3.021482468,-6.490680695,0.7182605267,-849.4230769230769,-1839.3076923076924,405.8076923076923,-8373.576923076924,497.7692307692308,320.38461538461536,9
2024-06-13 20:29:08,0.6145304441,-0.9810495973,-6.097656727,17.65484428,-4.38617754,2.726995707,-475.8155339805825,-1673.6893203883494,754.4757281553398,-8029.359223300971,1368.757281553398,1412.5533980582525,9
2024-06-13 20:29:08,0.6145304441,-0.9810495973,-6.097656727,17.65484428,-4.38617754,2.726995707,-554.747572815534,-710.2330097087379,664.1747572815534,-7789.029126213592,2141.1941747572814,2214.0582524271845,9
2024-06-13 20:29:08,-0.4007275999,-0.5571091175,-1.787391663,13.21599293,-3.49553442,1.63763392,-838.6504854368932,-119.94174757281552,523.3203883495146,-7888.242718446602,2240.6116504854367,2364.145631067961,9
