Timestamp,Gyro_x_x,Gyro_y_x,Gyro_z_x,Acc_x_x,Acc_y_x,Acc_z_x,Gyro_x_y,Gyro_y_y,Gyro_z_y,Acc_x_y,Acc_y_y,Acc_z_y,combined_action_num
2024-06-13 20:34:32,-0.338419348,0.3982841372,-0.4654793143,-0.4453215301,-10.92713642,1.036689281,12.13636363636364,1029.2272727272727,471.3409090909091,-8218.613636363636,-616.4090909090909,-738.5909090909091,10
2024-06-13 20:34:32,0.1478293836,-0.03176499158,0.08674286306,-0.5770025849,-9.988609314,1.012747288,961.175824175824,285.9340659340659,697.7582417582418,-8207.164835164835,-148.4065934065934,-1071.8351648351647,10
2024-06-13 20:34:32,0.1478293836,-0.03176499158,0.08674286306,-0.5770025849,-9.988609314,1.012747288,929.529411764706,262.47058823529414,989.1764705882354,-7865.294117647059,-4.941176470588232,-1046.6470588235295,10
2024-06-13 20:34:32,-0.07574728876,-0.196698606,0.2700024247,-0.2346317619,-9.787496567,1.132457376,746.7222222222222,135.98888888888888,1063.8333333333333,-7856.788888888889,-80.0888888888889,-1057.9555555555555,10
2024-06-13 20:34:32,-0.07574728876,-0.196698606,0.2700024247,-0.2346317619,-9.787496567,1.132457376,820.4831460674158,354.2134831460674,834.5168539325842,-7860.011235955056,293.7415730337079,-793.2921348314607,10
2024-06-13 20:34:32,-0.1502728462,-0.441044718,0.2406809032,-0.4692635238,-9.950302124,1.364694953,1070.5348837209303,181.62790697674416,1070.046511627907,-7950.930232558139,173.95348837209303,-922.5116279069769,10
2024-06-13 20:34:32,0.06719517708,-0.6719517708,0.1221730486,-0.6033388376,-10.11071396,1.060631394,1250.388888888889,410.4166666666667,957.4166666666666,-7887.972222222223,591.9722222222222,-1205.3055555555557,10
2024-06-13 20:34:32,0.06719517708,-0.6719517708,0.1221730486,-0.6033388376,-10.11071396,1.060631394,1251.7777777777778,433.3333333333333,1005.3333333333334,-7691.444444444444,445.44444444444446,-1242.111111111111,10
2024-06-13 20:34:32,-0.1673770845,-0.5351179838,0.2015855312,-0.6105214357,-9.969455719,0.6033388376,1279.183908045977,439.5977011494253,1515.1494252873565,-7852.471264367816,848.1379310344828,-1866.67816091954,10
2024-06-13 20:34:33,-0.2956587672,-0.1392772794,0.5595525503,-1.659181833,-10.42195988,0.4118026793,1709.1477272727273,-213.4090909090909,1317.8295454545455,-7747.670454545455,1476.5681818181818,-1477.784090909091,10
2024-06-13 20:34:33,-0.2956587672,-0.1392772794,0.5595525503,-1.659181833,-10.42195988,0.4118026793,1723.9555555555555,-155.06666666666666,600.8444444444444,-7648.044444444445,1467.4,-1575.0666666666666,10
2024-06-13 20:34:33,-0.06719517708,-0.2125810981,0.9456194043,-3.435679436,-10.16338634,0.940921247,1758.2307692307693,-291.90384615384613,-260.25,-7615.429487179487,1404.4679487179487,-1589.9615384615386,10
2024-06-13 20:34:33,-0.06719517708,-0.2125810981,0.9456194043,-3.435679436,-10.16338634,0.940921247,1783.2857142857142,-806.1428571428571,-541.7142857142857,-7966.857142857143,734.1428571428571,-1546.2857142857142,10
2024-06-13 20:34:33,0.2455678284,-0.6976081133,1.25838244,-4.853046894,-9.059659004,0.1867477298,1670.8181818181818,-1084.8181818181818,-311.45454545454544,-7781.272727272727,850.4545454545455,-1184.8181818181818,10
2024-06-13 20:34:33,-0.5057964325,-0.7745771408,1.116661668,-6.461950302,-7.453149796,0.2801215947,690.4831460674158,-152.6067415730337,-852.876404494382,-7950.280898876404,693.9325842696629,-1559.3258426966293,10
2024-06-13 20:34:33,-0.5057964325,-0.7745771408,1.116661668,-6.461950302,-7.453149796,0.2801215947,-519.8965517241379,-50.85057471264368,-1257.896551724138,-8021.0114942528735,236.2183908045977,-1451.7471264367816,10
2024-06-13 20:34:33,0.07574728876,-0.6487388611,0.9492846131,-6.600813866,-5.930437565,1.010353088,-939.2444444444444,-55.51111111111111,-669.5333333333333,-7834.444444444444,97.93333333333334,-1364.1777777777777,10
2024-06-13 20:34:33,-0.2333505303,-0.7550294399,0.6450737119,-7.20654726,-5.609614372,1.769315004,-979.1279069767442,97.8720930232558,-36.75581395348837,-7840.1511627906975,-31.44186046511628,-1306.4767441860463,10
2024-06-13 20:34:33,-0.2333505303,-0.7550294399,0.6450737119,-7.20654726,-5.609614372,1.769315004,-1069.0,-327.86516853932585,241.2584269662921,-7709.0,345.08988764044943,-1177.0112359550562,10
2024-06-13 20:34:34,-0.235793978,-0.5253441334,0.4276056588,-7.493851185,-5.140350819,2.705447912,-488.0117647058824,193.4,-208.7764705882353,-8045.976470588235,553.7176470588236,-1226.1411764705883,10
2024-06-13 20:34:34,-0.235793978,-0.5253441334,0.4276056588,-7.493851185,-5.140350819,2.705447912,-664.9325842696629,134.06741573033707,-345.60674157303373,-7860.146067415731,276.7415730337079,-1598.685393258427,10
2024-06-13 20:34:34,-0.161268428,-0.5326744914,0.3579670191,-7.307103634,-5.252878666,3.488351822,-1050.1818181818182,-282.8863636363636,-189.32954545454544,-7837.284090909091,304.35227272727275,-1233.6363636363635,10
2024-06-13 20:34:34,-0.1576032341,-0.3555235863,0.2944370508,-7.268796444,-4.762067318,4.007893562,-735.4782608695652,-394.8478260869565,84.58695652173913,-8026.521739130435,19.13043478260869,-922.391304347826,10
2024-06-13 20:34:34,-0.1576032341,-0.3555235863,0.2944370508,-7.268796444,-4.762067318,4.007893562,-373.9418604651163,-42.74418604651163,-26.38372093023256,-7886.46511627907,250.53488372093025,-1145.186046511628,10
2024-06-13 20:34:34,-0.2663372457,-0.125838235,0.299323976,-7.374141216,-4.991910458,4.103661537,118.625,-837.075,216.425,-8291.65,174.2,-680.725,10
2024-06-13 20:34:34,0.2003637999,0.01221730467,0.1576032341,-7.524975777,-4.898536682,4.144362926,923.6022727272727,-819.2386363636364,-146.0909090909091,-7637.954545454545,168.42045454545456,-550.9090909090909,10
2024-06-13 20:34:34,0.2003637999,0.01221730467,0.1576032341,-7.524975777,-4.898536682,4.144362926,916.44,-263.6,-231.92,-7765.44,434.48,-611.52,10
2024-06-13 20:34:34,0.5558874011,0.07696902007,-0.006108652335,-7.632715225,-4.304774761,4.247313976,711.1066666666667,33.06666666666666,-269.25333333333333,-8026.773333333333,393.8133333333333,-618.8533333333334,10
2024-06-13 20:34:34,0.5558874011,0.07696902007,-0.006108652335,-7.632715225,-4.304774761,4.247313976,929.123595505618,373.5955056179776,278.0674157303371,-7928.123595505618,492.1573033707865,-681.6516853932584,10
2024-06-13 20:34:35,0.8894197941,0.04031710699,-0.1307251602,-7.831433773,-4.070142746,4.299986362,846.4666666666667,322.97777777777776,484.6222222222222,-8013.066666666667,451.1333333333333,-987.8666666666668,10
2024-06-13 20:34:35,0.5546656251,0.03054326214,-0.04276056588,-7.776367188,-3.134010077,4.584896088,725.4943820224719,-61.96629213483146,777.0224719101124,-8192.505617977527,491.6741573033708,-1381.7078651685392,10
2024-06-13 20:34:35,0.5546656251,0.03054326214,-0.04276056588,-7.776367188,-3.134010077,4.584896088,782.6590909090909,-326.52272727272725,243.1136363636364,-7999.068181818182,773.0909090909091,-1196.4545454545455,10
2024-06-13 20:34:35,0.2553416789,0.03665191308,0.01466076635,-7.627926826,-3.090914488,4.886565685,1064.9772727272727,-339.9318181818182,223.72727272727272,-7959.818181818182,829.4090909090909,-1301.1818181818182,10
2024-06-13 20:34:35,0.2712241709,0.0,0.01221730467,-7.831433773,-2.564189911,4.912901878,489.4318181818182,73.95454545454545,-336.8068181818182,-8041.465909090909,794.4090909090909,-1648.4772727272727,10
2024-06-13 20:34:35,0.2712241709,0.0,0.01221730467,-7.831433773,-2.564189911,4.912901878,75.73333333333332,-239.16666666666669,-202.56666666666663,-8322.0,623.7666666666667,-1451.4,10
2024-06-13 20:34:35,0.2919935882,0.03420845419,0.03054326214,-8.087613106,-2.578555346,5.298368454,155.17241379310343,-1530.0344827586207,743.9310344827586,-7921.206896551724,419.0,-521.6896551724137,10
2024-06-13 20:34:35,0.2919935882,0.03420845419,0.03054326214,-8.087613106,-2.578555346,5.298368454,1471.0454545454545,-1403.5454545454545,1683.3863636363635,-8226.71590909091,913.25,-45.18181818181819,10
2024-06-13 20:34:35,0.2345722616,-0.00244346098,0.05253441259,-7.99423933,-1.831564307,4.855441093,2060.6666666666665,-2098.777777777778,1532.1333333333334,-7793.822222222222,1530.6,304.6666666666667,10
2024-06-13 20:34:35,0.161268428,0.02199114859,0.02076941915,-7.862558365,-1.714248419,5.114014626,2800.0714285714284,-2756.5,1438.642857142857,-7328.535714285715,2058.0714285714284,967.4285714285714,10
2024-06-13 20:34:36,0.161268428,0.02199114859,0.02076941915,-7.862558365,-1.714248419,5.114014626,2610.8231292517007,-2012.687074829932,1526.591836734694,-7816.795918367346,2736.9523809523807,1791.809523809524,10
2024-06-13 20:34:36,0.06352998316,0.008552113548,-0.03909537569,-7.953537941,-1.893813491,5.248090267,722.3103448275862,-81.06896551724138,417.8620689655172,-7348.275862068966,2866.4827586206898,1844.2758620689656,10
2024-06-13 20:34:36,-0.7867944241,-0.01588249579,-0.1441642046,-7.553706169,-1.965639591,5.003881454,-414.4,215.2,92.8,-7417.4,2368.2,1582.4,10
2024-06-13 20:34:36,-0.7867944241,-0.01588249579,-0.1441642046,-7.553706169,-1.965639591,5.003881454,-2072.4189189189187,511.1891891891892,693.2702702702703,-7693.925675675676,4030.2297297297296,997.5472972972972,10
2024-06-13 20:34:36,-1.621236324,0.1356120855,-0.5448917747,-6.907271862,-2.908955097,4.414907932,-2733.2297297297296,419.2972972972973,290.56756756756755,-7912.168918918919,4382.9324324324325,1099.5743243243244,10
2024-06-13 20:34:36,-1.621236324,0.1356120855,-0.5448917747,-6.907271862,-2.908955097,4.414907932,-9274.831325301206,1838.614457831325,-1593.6265060240964,-7494.746987951808,1576.421686746988,1753.7831325301204,10
2024-06-13 20:34:36,-0.3750712574,0.7648032904,-1.154535294,-5.638344765,-4.912901878,2.8993783,-6357.055555555556,1514.8777777777775,-1201.022222222222,-8109.6,1058.8444444444444,1711.7,10
2024-06-13 20:34:36,-0.4007275999,1.273043156,-1.665218711,-5.532999992,-7.903259754,1.175553083,-3688.137931034483,1068.0689655172414,-695.0114942528736,-8260.862068965518,1024.2988505747126,1728.264367816092,10
2024-06-13 20:34:36,-0.4007275999,1.273043156,-1.665218711,-5.532999992,-7.903259754,1.175553083,-2839.0,1134.860465116279,-495.1046511627907,-7849.209302325581,1330.2093023255811,1856.546511627907,10
2024-06-13 20:34:36,0.7183775306,1.401324868,-1.946216702,-4.762067318,-9.627084732,-0.3327940404,-3026.556818181818,1484.6022727272727,-822.090909090909,-8061.511363636364,1641.9772727272727,1602.2613636363635,10
2024-06-13 20:34:37,-0.7953465581,0.7293730974,-1.668883801,-2.33913517,-11.08036518,0.9385270476,-6315.441860465116,2260.1627906976746,-1229.4186046511627,-8182.604651162791,446.0697674418605,699.4651162790698,10
2024-06-13 20:34:37,-0.7953465581,0.7293730974,-1.668883801,-2.33913517,-11.08036518,0.9385270476,-5384.325581395349,2591.0697674418607,-1447.6976744186047,-7909.674418604651,205.3720930232558,234.3720930232558,10
2024-06-13 20:34:37,0.5681046844,0.1490511149,-0.581543684,-1.137245774,-11.23359394,0.5051765442,-4286.897727272727,2260.5113636363635,-1512.2954545454545,-8108.090909090909,94.3409090909091,-271.5909090909091,10
2024-06-13 20:34:37,0.5681046844,0.1490511149,-0.581543684,-1.137245774,-11.23359394,0.5051765442,-3518.909090909091,1874.272727272728,-814.6363636363636,-7930.431818181818,-266.6363636363636,-844.4090909090909,10
2024-06-13 20:34:37,-0.3408628106,-0.06841690838,0.4654793143,-0.921767652,-10.6206789,0.7110779285,-2439.733333333333,276.7,120.5,-8070.122222222222,59.68888888888889,-779.6444444444444,10
2024-06-13 20:34:37,-0.08307767659,-0.1857030392,0.6047565937,-0.5219359994,-10.01015759,0.3926490843,-1294.797752808989,-535.8988764044943,309.5393258426966,-8629.314606741573,938.9101123595506,-682.314606741573,10
2024-06-13 20:34:37,-0.08307767659,-0.1857030392,0.6047565937,-0.5219359994,-10.01015759,0.3926490843,-977.9127516778524,225.7718120805369,-1387.6510067114093,-8075.604026845637,680.3959731543624,-791.4093959731543,10
2024-06-13 20:34:37,0.01588249579,-0.2101376504,0.06841690838,-0.3687070608,-9.581595421,0.3303998411,-582.4444444444445,749.4166666666666,-416.5833333333333,-7365.194444444444,623.1111111111111,-972.9166666666666,10
2024-06-13 20:34:37,-0.04642575979,-0.07941248268,-0.3103195429,-0.7733271718,-9.768342972,0.1604115069,-1358.2926829268292,901.0731707317073,906.8048780487804,-8181.463414634147,780.8780487804878,-1201.9268292682927,10
2024-06-13 20:34:37,-0.04642575979,-0.07941248268,-0.3103195429,-0.7733271718,-9.768342972,0.1604115069,-406.3486842105263,614.7894736842105,-302.95394736842104,-8028.046052631579,775.6118421052631,-1243.092105263158,10
2024-06-13 20:34:38,-0.004886921961,0.1551597714,-0.1209513173,-0.7972691655,-10.50336266,0.2992752194,-339.9013157894737,683.2105263157895,-502.29605263157896,-7828.703947368421,598.6381578947369,-1344.407894736842,10
2024-06-13 20:34:38,-0.004886921961,0.1551597714,-0.1209513173,-0.7972691655,-10.50336266,0.2992752194,-113.21348314606742,1330.3932584269662,1498.415730337079,-7698.977528089887,515.056179775281,-1791.4606741573034,10
2024-06-13 20:34:38,0.08307767659,0.3029891551,0.2528982162,-0.4979939461,-9.959878922,0.586579442,972.3181818181818,341.95454545454544,1676.0,-7741.909090909091,1576.6818181818182,-1946.1818181818185,10
2024-06-13 20:34:38,0.01588249579,0.3518583775,-0.0415388383,-0.1963245422,-9.883264542,0.4141969085,1794.415730337079,-927.3370786516854,-607.4943820224719,-7692.247191011236,1695.3370786516855,-2116.1348314606744,10
2024-06-13 20:34:38,0.01588249579,0.3518583775,-0.0415388383,-0.1963245422,-9.883264542,0.4141969085,-337.3058823529412,-1358.5647058823529,-434.0470588235294,-7796.2588235294115,995.8235294117648,-1540.035294117647,10
2024-06-13 20:34:38,-0.04520402849,0.3836233616,-0.2736676335,-0.3758896589,-10.20887566,0.7350199223,125.4494382022472,-1385.123595505618,1019.1460674157304,-7646.516853932584,453.0561797752809,-912.1573033707864,10
2024-06-13 20:34:38,0.07941248268,0.287106663,-0.1343903542,-0.586579442,-10.0604353,0.7900865674,1790.2386363636365,-1651.1136363636365,1275.465909090909,-7899.409090909091,1327.625,-783.0454545454545,10
2024-06-13 20:34:38,0.07941248268,0.287106663,-0.1343903542,-0.586579442,-10.0604353,0.7900865674,979.6136363636364,-836.5454545454545,36.59090909090912,-7823.477272727273,1654.4318181818182,-254.6136363636364,10
2024-06-13 20:34:38,0.02809980139,0.2455678284,0.08918632567,-0.2585737705,-10.12029076,0.787692368,-204.3132530120482,21.120481927710845,331.72289156626505,-8301.168674698794,1258.9036144578313,-236.5060240963856,10
2024-06-13 20:34:38,0.02809980139,0.2455678284,0.08918632567,-0.2585737705,-10.12029076,0.787692368,-612.7272727272727,-651.7045454545455,-114.36363636363636,-8183.465909090909,1309.6022727272727,-285.2159090909091,10
2024-06-13 20:34:39,0.02443460934,0.09651670605,0.00244346098,-0.3016694188,-9.911994934,0.8331822157,-1350.3777777777775,-1136.1444444444444,-1289.7444444444443,-7945.977777777778,1260.1888888888889,240.47777777777776,10
2024-06-13 20:34:39,0.0232128799,-0.03665191308,-0.02809980139,-0.3088520169,-10.0364933,0.6368576288,-1330.6666666666667,-1639.7701149425288,-1560.6436781609195,-8232.367816091954,114.83908045977012,701.6091954022988,10
2024-06-13 20:34:39,0.0232128799,-0.03665191308,-0.02809980139,-0.3088520169,-10.0364933,0.6368576288,-1156.4698795180725,-1032.1084337349398,-1645.289156626506,-7936.975903614458,-130.7951807228916,715.7831325301205,10
2024-06-13 20:34:39,-0.0171042271,-0.01832595654,0.04398229718,-0.4189853072,-10.01494598,0.7805097699,-1041.4096385542168,-336.3253012048192,-1639.867469879518,-7974.927710843373,-278.3855421686747,707.3493975903615,10
2024-06-13 20:34:39,0.1270599663,0.01954768784,0.05864306539,-0.3399766386,-9.87608242,0.6416460276,-2498.054945054945,241.1868131868132,724.4615384615385,-8124.747252747253,1012.4835164835164,863.1538461538462,10
2024-06-13 20:34:39,0.1270599663,0.01954768784,0.05864306539,-0.3399766386,-9.87608242,0.6416460276,-2883.7311827956987,719.763440860215,-485.0967741935484,-8253.78494623656,895.3440860215054,553.752688172043,10
2024-06-13 20:34:39,0.01343903504,0.0720821023,-0.009773843922,-0.3112462163,-9.883264542,0.4453215301,-1966.1796875,705.640625,-870.5625,-8273.75,22.1796875,370.7421875,10
2024-06-13 20:34:39,0.01343903504,0.0720821023,-0.009773843922,-0.3112462163,-9.883264542,0.4453215301,-512.5180722891566,595.2168674698795,-1061.2168674698796,-8155.481927710844,-153.1566265060241,305.4457831325301,10
2024-06-13 20:34:39,-0.1148426682,0.04520402849,-0.1795943826,-0.383072257,-9.916783333,0.4118026793,129.8,-481.1555555555556,-611.5888888888888,-8281.477777777778,-334.97777777777776,465.3333333333333,10
2024-06-13 20:34:39,0.0171042271,-0.2101376504,-0.2052507252,-0.3280056417,-10.20169353,0.7469909191,1189.5348837209303,-947.5581395348836,-460.4651162790698,-8107.906976744186,-594.5116279069767,1062.2093023255811,10
2024-06-13 20:34:40,0.0171042271,-0.2101376504,-0.2052507252,-0.3280056417,-10.20169353,0.7469909191,1865.7045454545453,-349.1931818181818,-455.8181818181818,-7886.704545454545,-427.57954545454544,1343.3636363636365,10
2024-06-13 20:34:40,0.03909537569,-0.287106663,-0.08063421398,-0.174776718,-10.24000072,0.1508347094,2717.260869565217,-31.13043478260869,-347.2608695652174,-8105.782608695652,-760.2173913043479,1173.3478260869565,10
2024-06-13 20:34:40,-0.06352998316,-0.2333505303,0.08552113175,-0.1388636976,-10.00536919,0.09816227108,3667.19540229885,81.97701149425288,-180.9655172413793,-8433.954022988506,-721.471264367816,1223.4827586206898,10
2024-06-13 20:34:40,-0.06352998316,-0.2333505303,0.08552113175,-0.1388636976,-10.00536919,0.09816227108,4650.625,693.4431818181818,-57.86363636363636,-8053.363636363636,-812.9090909090909,1084.215909090909,10
2024-06-13 20:34:40,-0.1527163088,-0.4581489265,-0.0109955743,0.08379705995,-10.08916569,-0.004788403399,3749.1011235955057,2068.4269662921347,275.91011235955057,-8010.191011235955,-410.6292134831461,339.3258426966292,10
2024-06-13 20:34:40,0.3323107064,-0.6010913849,-0.02687807009,0.1604115069,-10.40280628,-0.2106897533,2018.7368421052631,643.6842105263158,977.578947368421,-7907.736842105263,-237.05263157894737,-823.3157894736842,10
2024-06-13 20:34:40,0.1918116808,-0.2944370508,0.1539380401,0.04548983276,-9.983820915,0.586579442,2128.077419354838,164.7032258064516,1128.8064516129032,-7842.8967741935485,-273.64516129032256,-648.8774193548387,10
2024-06-13 20:34:40,0.1918116808,-0.2944370508,0.1539380401,0.04548983276,-9.983820915,0.586579442,2120.9806451612903,308.5741935483871,1096.548387096774,-7819.025806451613,-47.83870967741936,-701.7806451612903,10
2024-06-13 20:34:40,0.01588249579,-0.1490511149,0.03298672289,0.2202665508,-9.995792389,0.9074024558,1902.6404494382025,-207.86516853932585,767.2584269662922,-8299.359550561798,311.2584269662921,-1166.056179775281,10
2024-06-13 20:34:41,-0.06475171447,-0.07452555746,-0.1087340117,-0.1628057212,-10.02212811,0.9648633003,2828.6,-1040.4888888888888,185.92222222222225,-8007.588888888888,92.14444444444445,-855.8222222222222,10
2024-06-13 20:34:41,-0.06475171447,-0.07452555746,-0.1087340117,-0.1628057212,-10.02212811,0.9648633003,3106.655172413793,-282.48275862068965,-105.3103448275862,-7581.80459770115,583.7816091954023,-673.2988505747127,10
2024-06-13 20:34:41,-0.02199114859,-0.1490511149,-0.0109955743,0.06943184882,-10.07719517,0.7685387731,1345.5555555555557,356.1830065359477,-113.48366013071896,-8252.816993464052,516.4640522875817,-694.8169934640523,10
2024-06-13 20:34:41,-0.02199114859,-0.1490511149,-0.0109955743,0.06943184882,-10.07719517,0.7685387731,543.3333333333334,313.1851851851852,-285.81481481481484,-8082.185185185185,454.4074074074074,-792.7777777777778,10
2024-06-13 20:34:41,-0.03909537569,-0.08429940045,0.03176499158,0.1101332754,-9.971850395,1.007958889,-119.02247191011236,74.69662921348313,-209.247191011236,-8239.606741573034,50.34831460674158,-513.3820224719101,10
2024-06-13 20:34:41,0.04886921868,-0.04031710699,0.0109955743,0.1771709323,-10.00297451,0.8523358107,118.875,80.875,-528.2954545454545,-7919.761363636364,-280.4431818181818,-447.7272727272728,10
2024-06-13 20:34:41,0.04886921868,-0.04031710699,0.0109955743,0.1771709323,-10.00297451,0.8523358107,-28.0,-57.16304347826087,-269.4891304347826,-7978.336956521739,-314.52173913043475,-582.195652173913,10
2024-06-13 20:34:41,-0.00122173049,0.03298672289,0.00244346098,0.1867477298,-9.88805294,0.8020575643,-284.6179775280899,-68.92134831460675,3.2584269662921344,-8270.213483146068,-223.30337078651684,-324.0,10
2024-06-13 20:34:41,-0.1075122803,0.1649336219,0.05619960278,0.1604115069,-9.81143856,0.5889736414,-212.8235294117647,9.352941176470594,246.1764705882353,-8254.176470588236,-200.64705882352945,-519.8235294117648,10
2024-06-13 20:34:41,-0.1075122803,0.1649336219,0.05619960278,0.1604115069,-9.81143856,0.5889736414,-79.82417582417582,109.3076923076923,163.24175824175825,-8263.65934065934,15.24175824175824,-518.8021978021978,10
2024-06-13 20:34:42,-0.07941248268,0.01588249579,-0.09651670605,0.1604115069,-10.25915432,0.9145850539,149.29473684210527,75.67368421052632,238.31578947368425,-8233.642105263158,-40.72631578947368,-351.17894736842106,10
2024-06-13 20:34:42,-0.07941248268,0.01588249579,-0.09651670605,0.1604115069,-10.25915432,0.9145850539,152.0705882352941,57.70588235294117,-251.8588235294117,-8252.04705882353,-84.45882352941176,-226.27058823529413,10
2024-06-13 20:34:42,0.1991420686,-0.00244346098,0.02199114859,-0.07900865376,-10.11550236,0.4381389022,184.5909090909091,-322.5,-448.95454545454544,-8255.09090909091,76.68181818181819,-217.1818181818182,10
2024-06-13 20:34:42,-0.006108652335,0.1319468915,0.2296853364,-0.2059013397,-10.50336266,0.6943184733,175.32954545454547,-274.5340909090909,-462.1363636363636,-8221.079545454546,-341.0,-138.375,10
2024-06-13 20:34:42,-0.006108652335,0.1319468915,0.2296853364,-0.2059013397,-10.50336266,0.6943184733,579.0909090909091,86.27272727272728,-464.8181818181818,-8224.90909090909,-232.1818181818182,-134.54545454545453,10
2024-06-13 20:34:42,-0.1233947799,0.05619960278,0.6072000265,-0.6943184733,-10.88643551,1.046266198,-24.32183908045977,67.8735632183908,-230.05747126436785,-8264.540229885057,-584.8620689655172,-352.7471264367816,10
2024-06-13 20:34:42,0.1918116808,-0.3494149148,0.9407324791,-2.370259762,-9.993397713,1.319205165,69.93103448275862,75.6896551724138,-247.7586206896552,-8259.137931034482,-546.2413793103449,-315.2758620689655,10
2024-06-13 20:34:42,0.1918116808,-0.3494149148,0.9407324791,-2.370259762,-9.993397713,1.319205165,20.191011235955056,-72.20224719101124,-325.91011235955057,-8237.213483146068,-442.6629213483146,-297.5730337078652,10
2024-06-13 20:34:42,0.5986479521,-0.4434881806,1.46363318,-3.651157618,-9.313444138,1.007958889,-275.0617283950617,-27.0,-299.0,-8252.061728395061,-466.0,-294.48148148148147,10
2024-06-13 20:34:42,0.5986479521,-0.4434881806,1.46363318,-3.651157618,-9.313444138,1.007958889,-316.90909090909093,-12.022727272727272,-337.29545454545456,-8246.34090909091,-502.3181818181818,-329.6363636363636,10
2024-06-13 20:34:43,-0.1722639948,-0.3946189582,1.141096234,-4.872200489,-7.948749542,1.752555609,-264.4431818181818,87.11363636363636,-170.29545454545453,-8274.647727272728,-448.2272727272728,-359.09090909090907,10
2024-06-13 20:34:43,0.4105014503,-0.4263839424,0.7269296646,-6.181828976,-6.900089264,2.372653961,-785.9677419354839,-223.5483870967742,-38.96774193548387,-8290.838709677419,-595.516129032258,-307.741935483871,10
2024-06-13 20:34:43,0.4105014503,-0.4263839424,0.7269296646,-6.181828976,-6.900089264,2.372653961,-885.0344827586207,22.862068965517267,107.34482758620688,-8207.965517241379,-618.3103448275862,-273.1034482758621,10
2024-06-13 20:34:43,0.4825835526,-0.3152064681,0.5094616413,-6.483498096,-5.810727596,3.162740469,-416.7415730337079,-50.41573033707865,-19.471910112359552,-8242.921348314607,-616.9101123595506,-274.70786516853934,10
2024-06-13 20:34:43,0.4434881806,-0.1478293836,0.342084527,-6.852205276,-5.346252441,4.05338335,-234.7741935483871,-72.03225806451613,-153.25806451612902,-8280.451612903225,-595.6774193548387,-220.80645161290323,10
2024-06-13 20:34:43,0.4434881806,-0.1478293836,0.342084527,-6.852205276,-5.346252441,4.05338335,-279.48936170212767,-78.90425531914893,-243.6063829787234,-8165.223404255319,-430.9468085106383,7.3936170212765955,10
2024-06-13 20:34:43,0.37751472,-0.09162978828,0.2113593817,-6.995857239,-4.644751072,4.352658749,-785.0149253731344,204.8507462686567,-846.820895522388,-7906.880597014925,-681.0746268656717,-296.94029850746267,10
2024-06-13 20:34:43,0.37751472,-0.09162978828,0.2113593817,-6.995857239,-4.644751072,4.352658749,-1041.7313432835822,237.6865671641791,-1116.2238805970148,-7903.149253731343,-764.6567164179105,-320.07462686567163,10
2024-06-13 20:34:43,0.008552113548,-0.004886921961,0.06230825558,-7.101202011,-4.414907932,4.5394063,-1410.2068965517242,784.1724137931035,-1162.448275862069,-8114.701149425287,-1214.0804597701149,-503.5172413793104,10
2024-06-13 20:34:43,0.389732033,-0.004886921961,0.02199114859,-7.20654726,-4.316745758,4.896142483,-1208.134831460674,880.0,-39.06741573033708,-8116.224719101124,-1514.4606741573034,-994.2359550561798,10
2024-06-13 20:34:44,0.389732033,-0.004886921961,0.02199114859,-7.20654726,-4.316745758,4.896142483,-49.83908045977012,258.7011494252873,1212.8275862068965,-8238.264367816091,-1290.5402298850574,-944.551724137931,10
2024-06-13 20:34:44,0.3946189582,0.003665191587,0.03665191308,-7.292738438,-3.816357613,5.114014626,1032.2134831460676,-272.0449438202247,1363.7640449438202,-8231.292134831461,-1052.4044943820224,-1362.5168539325844,10
2024-06-13 20:34:44,0.3652974069,0.09407325089,0.04764748737,-7.362170219,-3.684676409,5.226542473,760.4516129032259,-1258.7870967741935,929.741935483871,-7928.36129032258,-519.4967741935484,-753.2322580645161,10
2024-06-13 20:34:44,0.3652974069,0.09407325089,0.04764748737,-7.362170219,-3.684676409,5.226542473,966.9032258064516,-1227.1741935483872,797.483870967742,-7933.522580645162,-326.5935483870968,-642.2645161290322,10
2024-06-13 20:34:44,0.4214970171,0.05864306539,0.0354301855,-7.422025204,-3.220201254,5.391742229,647.6129032258065,-999.9354838709678,457.2258064516129,-8224.387096774193,-182.80645161290323,-44.32258064516129,10
2024-06-13 20:34:44,0.4214970171,0.05864306539,0.0354301855,-7.422025204,-3.220201254,5.391742229,-3.125,-949.5,236.5,-8243.875,44.625,228.125,10
2024-06-13 20:34:44,0.2956587672,0.04886921868,0.04642575979,-7.51061058,-2.837129116,5.403713226,-1013.5882352941176,-718.8235294117648,-8.799999999999997,-8301.188235294117,288.9647058823529,363.0705882352941,10
2024-06-13 20:34:44,0.25167647,0.0415388383,0.03176499158,-7.438784599,-2.731784105,5.267243862,-1709.9213483146068,-627.9887640449438,-259.0112359550562,-8174.5842696629215,15.460674157303371,475.17977528089887,10
2024-06-13 20:34:44,0.25167647,0.0415388383,0.03176499158,-7.438784599,-2.731784105,5.267243862,-2157.38202247191,-556.5168539325842,-268.1573033707865,-8239.516853932584,10.96629213483146,743.9325842696629,10
2024-06-13 20:34:44,0.06841690838,0.01832595654,0.02565634064,-7.752425194,-2.430114746,5.525817394,-1910.1333333333328,-631.4666666666667,103.06666666666666,-8308.933333333332,-271.4,781.3333333333334,10
2024-06-13 20:34:45,0.1392772794,-0.007330383174,0.05864306539,-7.680599213,-2.238578558,5.458779812,-1317.3522727272727,-586.6704545454545,-204.22727272727275,-8280.977272727272,2.511363636363633,971.6477272727273,10
2024-06-13 20:34:45,0.1392772794,-0.007330383174,0.05864306539,-7.680599213,-2.238578558,5.458779812,-677.0588235294117,-237.8823529411765,-180.8823529411765,-8109.764705882353,-213.1176470588236,1371.7058823529412,10
2024-06-13 20:34:45,0.1160643995,0.02076941915,0.06230825558,-7.754819393,-2.092532396,5.597643375,-496.3666666666667,-237.0222222222222,67.54444444444445,-8123.522222222222,-518.4,1215.911111111111,10
2024-06-13 20:34:45,0.06597344577,-0.07086037099,0.0354301855,-7.647080421,-1.951274395,5.585672379,-242.3793103448276,-541.551724137931,273.0689655172414,-8295.540229885057,-263.2298850574713,1347.6781609195402,10
2024-06-13 20:34:45,0.06597344577,-0.07086037099,0.0354301855,-7.647080421,-1.951274395,5.585672379,106.53333333333332,-182.42424242424244,201.72727272727272,-8239.321212121213,-205.78181818181807,1475.0484848484848,10
2024-06-13 20:34:45,0.01954768784,0.02443460934,0.03420845419,-7.529764175,-1.877054095,5.54018259,113.2,-30.909090909090907,156.27272727272728,-8221.745454545455,10.581818181818164,1312.0181818181818,10
2024-06-13 20:34:45,0.01954768784,0.02443460934,0.03420845419,-7.529764175,-1.877054095,5.54018259,-420.7710843373494,-59.71084337349397,-97.6987951807229,-7882.397590361445,-285.4698795180723,1548.578313253012,10
2024-06-13 20:34:45,-0.1649336219,0.05864306539,0.05009094998,-7.807491779,-1.893813491,5.612008572,-456.3295454545455,220.7159090909091,471.52272727272725,-8200.15909090909,-90.6818181818182,1514.6136363636365,10
2024-06-13 20:34:45,-0.5302310586,0.07574728876,0.06230825558,-7.445967197,-1.922544003,5.262455463,-237.52941176470583,831.5294117647059,656.8562091503268,-8199.725490196079,202.39215686274508,1467.6013071895425,10
2024-06-13 20:34:45,-0.5302310586,0.07574728876,0.06230825558,-7.445967197,-1.922544003,5.262455463,-887.7777777777778,1652.6666666666667,-179.44444444444446,-8088.0,303.9259259259259,1098.1851851851852,10
2024-06-13 20:34:46,-1.534493446,0.2138028294,-0.299323976,-6.701370716,-2.645592928,4.429273129,-920.6976744186046,1036.2325581395348,-371.0697674418605,-8493.302325581395,-80.51162790697674,555.8372093023256,10
2024-06-13 20:34:46,-0.7098253965,0.763581574,-1.263269305,-5.858611584,-4.656722069,3.112462282,-1703.8777777777775,368.9555555555556,23.6,-8140.822222222222,380.73333333333335,225.7,10
2024-06-13 20:34:46,-0.7098253965,0.763581574,-1.263269305,-5.858611584,-4.656722069,3.112462282,-2127.111111111112,183.16666666666669,-20.944444444444443,-8129.388888888889,356.8333333333333,515.5,10
2024-06-13 20:34:46,0.1197295859,1.216843605,-2.004859686,-5.930437565,-7.991845131,1.350329757,-2327.4,72.6,-240.6,-8153.2,359.2,588.2,10
2024-06-13 20:34:46,0.1197295859,1.216843605,-2.004859686,-5.930437565,-7.991845131,1.350329757,-2550.1304347826085,-35.03260869565217,-311.8913043478261,-8183.5,342.94565217391306,594.7717391304348,10
2024-06-13 20:34:46,0.1624901593,0.9712757468,-1.947438359,-5.046977043,-9.29189682,0.7541735172,-4014.767441860465,285.6744186046512,-507.8604651162791,-8223.511627906977,329.2093023255814,196.32558139534885,10
2024-06-13 20:34:46,-0.3530801237,0.1295034289,-1.229060888,-3.442862034,-10.34295177,0.6464344859,-5267.876404494382,929.3370786516854,-244.48314606741573,-7879.38202247191,303.5056179775281,-56.69662921348315,10
2024-06-13 20:34:46,-0.3530801237,0.1295034289,-1.229060888,-3.442862034,-10.34295177,0.6464344859,-5530.893617021276,1288.893617021277,-280.7659574468085,-7909.255319148936,92.80851063829786,-33.340425531914896,10
2024-06-13 20:34:46,-0.4043927789,-0.4581489265,-0.3090978265,-1.939303398,-10.87685871,0.8930372596,-4760.9,726.9,-147.5,-8439.8,81.1,-108.2,10
2024-06-13 20:34:46,-0.4043927789,-0.4581489265,-0.3090978265,-1.939303398,-10.87685871,0.8930372596,-2374.6666666666665,476.24444444444447,-141.82222222222222,-8264.733333333334,-92.02222222222224,103.57777777777778,10
2024-06-13 20:34:47,-0.00244346098,-0.5412266254,0.3115412891,-1.125274777,-10.55124664,0.8044517636,-435.2073170731707,604.4817073170732,-112.23170731707316,-7927.524390243902,131.71341463414635,-261.359756097561,10
2024-06-13 20:34:47,0.03787364438,-0.37751472,0.1295034289,-0.7852981687,-9.751583099,0.5363011956,-329.109756097561,469.7256097560976,-52.47560975609756,-7923.865853658536,137.2012195121951,-294.8963414634146,10
2024-06-13 20:34:47,0.03787364438,-0.37751472,0.1295034289,-0.7852981687,-9.751583099,0.5363011956,2609.8426966292136,323.92134831460675,217.92134831460675,-8183.797752808989,-129.52808988764045,-400.3595505617977,10
2024-06-13 20:34:47,0.05253441259,-0.2223549485,-0.2724458873,-1.122880578,-9.703699112,0.8188169599,4325.847826086956,71.32608695652173,601.7391304347826,-8181.239130434783,-304.17391304347825,-565.7173913043479,10
2024-06-13 20:34:47,0.02199114859,-0.2565633953,-0.2663372457,-1.26653266,-10.09395409,0.7254431248,5578.439024390244,90.90243902439023,829.8048780487804,-7833.926829268293,-7.7560975609756095,-961.3658536585366,10
2024-06-13 20:34:47,0.02199114859,-0.2565633953,-0.2663372457,-1.26653266,-10.09395409,0.7254431248,5213.233766233766,62.62987012987013,808.577922077922,-8033.694805194805,269.3896103896104,-1122.1818181818182,10
2024-06-13 20:34:47,0.05864306539,-0.2638937831,0.06108652428,-0.9959878922,-9.940725327,0.5434837937,4508.125,-110.91666666666666,824.7916666666666,-8035.375,265.4583333333333,-1116.875,10
2024-06-13 20:34:47,0.05864306539,-0.2638937831,0.06108652428,-0.9959878922,-9.940725327,0.5434837937,3423.989010989011,-205.5934065934066,816.2637362637363,-7914.175824175824,321.64835164835165,-1029.3846153846157,10
2024-06-13 20:34:47,-0.05986479297,-0.2968805134,0.1148426682,-0.7326257229,-10.02931118,0.8403648138,2287.7419354838707,-267.2043010752688,694.4193548387096,-7891.774193548387,189.55913978494624,-687.2903225806451,10
2024-06-13 20:34:47,-0.007330383174,-0.1881465018,0.01343903504,-0.4668693244,-9.979032516,1.192312479,1750.8372093023256,-597.6627906976744,442.5581395348837,-7928.941860465116,235.2209302325581,-715.1395348837209,10
2024-06-13 20:34:48,-0.007330383174,-0.1881465018,0.01343903504,-0.4668693244,-9.979032516,1.192312479,1680.4651162790697,-626.0930232558139,474.4651162790698,-7925.744186046511,180.3720930232558,-567.2558139534883,10
2024-06-13 20:34:48,-0.01221730467,0.02443460934,-0.1319468915,-0.5291185975,-9.806650162,0.9911994934,1492.7752808988764,-344.4943820224719,10.269662921348312,-7894.752808988764,408.0112359550562,-249.5730337078652,10
2024-06-13 20:34:48,-0.04276056588,0.1576032341,-0.1246165112,-0.5267243981,-9.99100399,0.8858546019,1039.989010989011,73.50549450549451,-479.8021978021978,-8082.494505494506,224.27472527472528,-398.4725274725275,10
2024-06-13 20:34:48,-0.04276056588,0.1576032341,-0.1246165112,-0.5267243981,-9.99100399,0.8858546019,467.0674157303371,76.61797752808988,-523.056179775281,-8242.41573033708,307.1348314606741,-351.51685393258424,10
2024-06-13 20:34:48,-0.03054326214,0.1649336219,-0.06841690838,-0.4884171486,-9.96466732,0.7781155705,-276.59302325581393,-299.09302325581393,-577.7790697674419,-8239.883720930233,74.52325581395348,-155.7674418604651,10
2024-06-13 20:34:48,-0.1001819,0.1954768747,-0.01832595654,-0.3734954596,-10.19929886,0.8451532125,-365.7444444444444,-306.5111111111111,-560.6333333333333,-8232.366666666667,54.333333333333336,-325.94444444444446,10
2024-06-13 20:34:48,-0.1001819,0.1954768747,-0.01832595654,-0.3734954596,-10.19929886,0.8451532125,-118.07526881720428,46.2258064516129,-811.6774193548388,-8256.655913978495,-296.4731182795699,-312.8817204301075,10
2024-06-13 20:34:48,0.07574728876,0.2809980214,-0.008552113548,-0.01675941236,-10.00058079,0.9528923035,42.94375,-89.90625,-679.98125,-8239.125,-523.5375,-320.88125,10
2024-06-13 20:34:48,0.07574728876,0.2809980214,-0.008552113548,-0.01675941236,-10.00058079,0.9528923035,31.60810810810811,-76.19594594594595,-855.9324324324324,-8256.608108108108,-591.4594594594595,-306.3851351351352,10
2024-06-13 20:34:48,0.0354301855,0.4031710625,-0.1111774743,0.1388636976,-9.880870819,1.010353088,-90.5909090909091,53.28409090909091,-573.4431818181819,-8262.431818181818,-794.5568181818181,-273.875,10
2024-06-13 20:34:49,-0.03787364438,0.5009095073,-0.1734857261,-0.06224924326,-10.08916569,0.9864110947,-55.793103448275865,-5.034482758620683,-400.7241379310345,-8236.344827586207,-823.0689655172414,-266.0689655172414,10
2024-06-13 20:34:49,-0.03787364438,0.5009095073,-0.1734857261,-0.06224924326,-10.08916569,0.9864110947,55.89655172413793,16.632183908045974,-164.54022988505747,-8255.379310344828,-752.8045977011494,-273.0,10
2024-06-13 20:34:49,-0.02565634064,0.3726277947,-0.09162978828,-0.2346317619,-10.09156036,0.9840168953,48.361702127659576,104.40425531914894,-179.68085106382978,-8254.63829787234,-645.1914893617021,-272.3617021276596,10
2024-06-13 20:34:49,-0.02565634064,0.3726277947,-0.09162978828,-0.2346317619,-10.09156036,0.9840168953,-98.9784946236559,13.548387096774192,-345.0967741935484,-8212.043010752688,-692.6881720430108,45.94623655913978,10
2024-06-13 20:34:49,0.03054326214,0.1392772794,0.01343903504,-0.2082955539,-10.13944435,0.962469101,-314.5698924731183,-59.03225806451613,-499.9354838709677,-8230.860215053763,-743.763440860215,59.924731182795696,10
2024-06-13 20:34:49,0.03787364438,-0.0232128799,0.04642575979,-0.0023942017,-10.02452278,0.9528923035,-126.56521739130434,-168.95652173913044,-795.0,-8235.608695652174,-939.7826086956522,121.17391304347828,10
2024-06-13 20:34:49,0.03787364438,-0.0232128799,0.04642575979,-0.0023942017,-10.02452278,0.9528923035,-345.4,20.2,-755.2,-7933.933333333333,-1221.7333333333331,269.26666666666665,10
2024-06-13 20:34:49,0.02076941915,-0.08552113175,0.003665191587,-0.009576806799,-10.09634876,1.000776291,-276.2674418604651,-2.697674418604649,-629.2674418604652,-8201.96511627907,-1559.1627906976744,273.90697674418607,10
2024-06-13 20:34:49,0.004886921961,-0.09285151958,0.02809980139,0.009576806799,-10.19690514,0.9528923035,79.68181818181819,-187.79545454545456,-218.625,-7922.556818181818,-1432.1704545454545,269.21590909090907,10
2024-06-13 20:34:49,0.004886921961,-0.09285151958,0.02809980139,0.009576806799,-10.19690514,0.9528923035,-418.70454545454544,-72.36363636363637,-40.86363636363637,-7904.181818181818,-1625.4318181818182,311.20454545454544,10
2024-06-13 20:34:50,0.01466076635,-0.04764748737,0.09651670605,-0.2082955539,-10.04367638,1.046266198,-578.2857142857143,366.94505494505495,476.61538461538464,-8066.351648351649,-1240.4945054945056,305.2197802197802,10
2024-06-13 20:34:50,0.01466076635,-0.04764748737,0.09651670605,-0.2082955539,-10.04367638,1.046266198,-1150.9775280898875,299.3932584269663,774.4606741573034,-8243.707865168539,-1138.202247191011,266.6179775280899,10
2024-06-13 20:34:50,0.1148426682,0.05253441259,0.1747074574,-0.3926490843,-10.15859795,0.8882488012,-1261.9651162790697,283.51162790697674,556.4069767441861,-8250.418604651162,-1054.4186046511627,323.5232558139535,10
2024-06-13 20:34:50,0.01221730467,0.06352998316,0.1576032341,-0.6416460276,-9.809044838,1.024718285,-1191.571428571429,542.4285714285714,546.4285714285714,-7848.857142857143,-1052.0,292.0,10
2024-06-13 20:34:50,0.01221730467,0.06352998316,0.1576032341,-0.6416460276,-9.809044838,1.024718285,-1011.8181818181818,920.5227272727273,195.38636363636363,-7868.522727272727,-1036.2045454545455,66.63636363636363,10
2024-06-13 20:34:50,-0.01221730467,-0.0720821023,0.01466076635,-0.739808321,-10.04367638,0.8595184088,-275.13793103448273,773.2758620689655,242.3793103448276,-8108.310344827586,-726.0344827586207,-489.0344827586207,10
2024-06-13 20:34:50,0.01221730467,-0.1527163088,0.1747074574,-1.15400517,-10.59434223,1.484405041,81.06818181818181,444.8636363636364,891.2272727272727,-8195.59090909091,-855.7272727272727,-461.6818181818182,10
2024-06-13 20:34:50,0.01221730467,-0.1527163088,0.1747074574,-1.15400517,-10.59434223,1.484405041,861.7,303.4,1172.5,-7870.5,-495.8,-586.2,10
2024-06-13 20:34:50,0.2528982162,-0.1637118906,0.7929030657,-2.219424963,-10.42195988,1.63523972,1442.8,539.6,1822.4,-7657.8,-352.8,-805.4,10
2024-06-13 20:34:50,0.2528982162,-0.1637118906,0.7929030657,-3.423708439,-9.83777523,2.097320795,1725.0105263157895,562.1157894736842,2394.4105263157894,-8049.736842105263,344.06315789473683,-1340.4736842105262,10
2024-06-13 20:34:51,0.3909537494,-0.1026253626,1.376890302,-3.423708439,-9.83777523,2.097320795,2016.378048780488,-207.6707317073171,1411.280487804878,-8079.951219512195,690.1219512195122,-1565.6707317073171,10
2024-06-13 20:34:51,0.3188716471,-0.2089159191,1.423316002,-5.035006046,-8.137891769,2.121262789,1937.320754716981,-582.811320754717,1035.7924528301887,-7993.723270440251,902.2641509433962,-1206.9622641509434,10
2024-06-13 20:34:51,0.3188716471,-0.2089159191,1.423316002,-5.035006046,-8.137891769,2.121262789,1619.6,-710.65,731.85,-7865.05,792.5,-741.55,10
2024-06-13 20:34:51,0.1380555481,-0.2638937831,1.189965487,-6.438008308,-6.191405773,2.56658411,1098.25,-228.875,-556.2386363636364,-7752.965909090909,430.3522727272728,-313.72727272727275,10
2024-06-13 20:34:51,0.2565633953,-0.3225368559,0.8674286604,-7.137115479,-5.511452198,3.251325846,-812.5909090909091,2589.7727272727275,1069.2272727272727,-7786.829545454545,688.875,-1056.0681818181818,10
2024-06-13 20:34:51,0.2565633953,-0.3225368559,0.8674286604,-7.137115479,-5.511452198,3.251325846,-1340.0227272727273,3361.715909090909,687.7613636363636,-7885.761363636364,818.5681818181819,-2125.068181818182,10
2024-06-13 20:34:51,0.2638937831,-0.3042109013,0.7086036801,-7.606379032,-4.134786129,4.09169054,-1287.573033707865,2033.629213483146,175.4494382022472,-7722.314606741573,1323.9550561797753,-2501.629213483146,10
2024-06-13 20:34:51,0.2235766798,-0.2797762752,0.4972442985,-7.694964409,-3.145981073,4.450820923,-1133.712643678161,581.551724137931,-497.8735632183908,-7583.413793103448,1226.103448275862,-2753.5402298850577,10
2024-06-13 20:34:51,0.2235766798,-0.2797762752,0.4972442985,-7.694964409,-3.145981073,4.450820923,-2219.314606741573,-363.8876404494382,-2614.6404494382023,-7436.640449438202,630.4494382022472,-2576.7977528089887,10
2024-06-13 20:34:51,0.07574728876,-0.2406809032,0.2394591719,-7.565677166,-2.604891539,4.826710701,-2334.264367816092,-332.9425287356322,-2425.689655172414,-7692.724137931034,-187.44827586206893,-2326.287356321839,10
2024-06-13 20:34:52,0.07574728876,-0.2406809032,0.2394591719,-7.565677166,-2.604891539,4.826710701,-1889.755555555556,-507.6,-772.1111111111111,-7987.822222222222,-208.9111111111111,-2092.8888888888887,10
2024-06-13 20:34:52,0.1649336219,-0.228463605,0.1282816976,-7.467514992,-2.296039343,5.568912983,-1161.8695652173913,-737.3478260869565,-205.8260869565217,-7723.95652173913,12.043478260869565,-1847.2608695652173,10
2024-06-13 20:34:52,0.1588249654,-0.1160643995,0.09407325089,-7.529764175,-1.948880196,5.590460777,-1328.928571428571,-689.1071428571429,-367.8928571428572,-8010.214285714285,164.0,-908.7857142857144,10
2024-06-13 20:34:52,0.2919935882,-0.07330382615,0.05009094998,-7.287950039,-1.8602947,5.928043365,-2038.103448275862,-839.9885057471264,57.50574712643678,-8017.022988505747,414.3908045977012,-1132.367816091954,10
2024-06-13 20:34:52,0.4642575979,-0.06352998316,0.05375614017,-7.326257229,-1.63763392,5.882553577,-3496.177777777778,-715.7333333333333,-375.7555555555556,-7913.422222222222,805.5555555555555,-974.0666666666666,10
2024-06-13 20:34:52,0.4642575979,-0.06352998316,0.05375614017,-7.326257229,-1.63763392,5.882553577,-5488.058479532164,-526.280701754386,-671.421052631579,-8014.573099415204,684.3157894736842,-466.3684210526316,10
2024-06-13 20:34:52,0.4605923891,0.01343903504,0.03909537569,-7.331045628,-0.9576807022,6.153098583,-5504.432748538012,-564.8771929824561,-729.3157894736842,-8035.040935672515,752.7368421052631,-529.5263157894736,10
2024-06-13 20:34:52,0.4605923891,0.01343903504,0.03909537569,-7.331045628,-0.9576807022,6.153098583,-4083.173913043478,-57.086956521739125,-601.0434782608695,-8164.608695652174,261.2608695652174,-155.82608695652175,10
2024-06-13 20:34:52,0.2541199327,-0.004886921961,0.0109955743,-7.371747017,-0.6991068721,5.966350555,-1809.160919540229,-482.8620689655172,-703.5862068965517,-8264.252873563219,-46.6551724137931,281.7816091954023,10
2024-06-13 20:34:53,0.145385921,-0.0109955743,-0.01954768784,-7.426813602,-0.3950432837,6.030993938,-1327.0454545454545,-1026.0,-652.0454545454545,-8118.772727272727,509.4772727272728,225.9318181818182,10
2024-06-13 20:34:53,0.145385921,-0.0109955743,-0.01954768784,-7.426813602,-0.3950432837,6.030993938,-1737.415730337079,-777.5842696629213,312.43820224719104,-8309.955056179775,674.2471910112359,790.5730337078652,10
2024-06-13 20:34:53,0.1478293836,-0.01832595654,-0.01588249579,-7.328651428,-0.3758896589,6.174646378,-3139.8444444444444,-265.46666666666664,-1068.2666666666669,-8174.311111111111,268.1555555555556,688.5111111111111,10
2024-06-13 20:34:53,0.02076941915,0.0293215327,-0.05375614017,-7.292738438,-0.2705447972,6.007051945,-2658.61797752809,213.85393258426967,-790.6404494382023,-7863.651685393258,-264.55056179775283,834.1348314606741,10
2024-06-13 20:34:53,0.02076941915,0.0293215327,-0.05375614017,-7.292738438,-0.2705447972,6.007051945,-2027.4827586206893,-328.55172413793105,740.6896551724138,-8118.689655172414,353.62068965517244,654.5862068965517,10
2024-06-13 20:34:53,-0.3457497358,0.09407325089,-0.125838235,-7.431602001,-0.5339069963,6.153098583,-1788.7586206896551,-375.44827586206895,436.2068965517241,-8285.758620689656,707.1379310344828,1040.103448275862,10
2024-06-13 20:34:53,-0.3457497358,0.09407325089,-0.125838235,-7.431602001,-0.5339069963,6.153098583,-1013.7391304347826,-59.826086956521735,-357.2173913043478,-8255.91304347826,645.0869565217391,1135.3478260869565,10
2024-06-13 20:34:53,-1.269377947,0.2186897546,-0.3323107064,-6.780379295,-1.18991828,5.324704647,-528.2528735632184,172.32183908045977,-567.4827586206897,-8275.16091954023,525.8850574712644,836.6091954022988,10
2024-06-13 20:34:53,-1.31458199,0.7550294399,-1.077566266,-6.217741966,-3.766079187,4.38617754,-579.1797752808989,480.2134831460674,-264.40449438202245,-8143.876404494382,558.5393258426966,856.6516853932584,10
2024-06-13 20:34:53,-1.31458199,0.7550294399,-1.077566266,-6.217741966,-3.766079187,4.38617754,-407.5116279069768,430.4186046511628,-243.5813953488372,-8278.953488372093,556.0232558139535,456.04651162790697,10
2024-06-13 20:34:54,-0.7037167549,1.065348983,-2.084272146,-5.793968201,-6.385335922,1.936909199,-220.08695652173915,599.9891304347826,-243.91304347826087,-8105.173913043478,247.9673913043478,438.64130434782606,10
2024-06-13 20:34:54,-0.06963863969,0.762359798,-2.613281488,-3.617638826,-9.591172218,0.9481038451,-330.0112359550562,454.4831460674157,-552.8426966292135,-8104.797752808989,226.92134831460675,473.0,10
2024-06-13 20:34:54,-0.06963863969,0.762359798,-2.613281488,-3.617638826,-9.591172218,0.9481038451,-183.6,578.0,-664.8,-8163.0,114.6,467.6,10
2024-06-13 20:34:54,-0.6646214128,0.393397212,-1.975538254,-1.67115283,-11.52089882,0.3184288144,259.0062893081761,549.496855345912,-803.9748427672956,-8423.62893081761,11.968553459119496,459.3836477987421,10
2024-06-13 20:34:54,-0.6646214128,0.393397212,-1.975538254,-1.67115283,-11.52089882,0.3184288144,248.31446540880503,604.8427672955975,-846.7421383647799,-8154.446540880504,65.42767295597484,507.1823899371069,10
2024-06-13 20:34:54,-0.2663372457,-0.1026253626,-0.8038986921,0.3591302633,-11.10191345,0.8188169599,186.52380952380952,1097.142857142857,-895.3333333333334,-8245.619047619048,-214.3333333333333,-28.66666666666667,10
2024-06-13 20:34:54,-0.01466076635,-0.03176499158,0.2541199327,0.09097966552,-10.45308495,0.806845963,-90.9438202247191,621.2584269662922,-561.4943820224719,-8263.988764044943,-227.247191011236,-316.0449438202247,10
2024-06-13 20:34:54,-0.01466076635,-0.03176499158,0.2541199327,0.09097966552,-10.45308495,0.806845963,21.88888888888889,604.7777777777778,-225.5555555555556,-7919.805555555556,-591.5277777777778,-367.55555555555554,10
2024-06-13 20:34:54,-0.03909537569,-0.2700024247,0.6878342628,0.7924807668,-10.84812832,0.6895300746,21.43181818181818,488.4772727272728,-513.409090909091,-7891.840909090909,-420.1818181818182,-204.25,10
2024-06-13 20:34:54,0.2003637999,-0.1759291887,0.5290092826,0.6799532771,-9.59835434,0.5650315881,118.11363636363636,500.1931818181818,-381.02272727272725,-7930.886363636364,-767.340909090909,-547.7045454545455,10
2024-06-13 20:34:55,0.2003637999,-0.1759291887,0.5290092826,0.6799532771,-9.59835434,0.5650315881,3959.6744186046512,189.5581395348837,238.90697674418604,-7900.720930232558,-985.3953488372092,-480.2093023255814,10
2024-06-13 20:34:55,0.04642575979,-0.1319468915,-0.1918116808,0.3399766386,-9.409213066,0.624886632,4337.744186046512,202.04651162790697,280.2558139534884,-7880.930232558139,-478.5348837209302,-753.2790697674419,10
2024-06-13 20:34:55,0.04642575979,-0.1319468915,-0.1918116808,0.3399766386,-9.409213066,0.624886632,3522.303370786517,-12.910112359550569,610.7303370786517,-8224.47191011236,-839.6629213483146,-689.5955056179776,10
2024-06-13 20:34:55,0.01832595654,-0.1001819,-0.4520402849,0.2298433632,-10.08198357,1.024718285,3571.556818181818,-276.39772727272725,1235.5,-7918.522727272727,-906.3522727272727,-679.3181818181818,10
2024-06-13 20:34:55,0.1539380401,-0.1111774743,-0.25167647,0.117315881,-10.22324085,0.8858546019,4237.247191011236,-417.5168539325843,1446.2359550561798,-8193.438202247191,-816.1123595505618,-651.8089887640449,10
2024-06-13 20:34:55,0.1539380401,-0.1111774743,-0.25167647,0.117315881,-10.22324085,0.8858546019,3982.0,2.6404494382022463,1045.3370786516855,-8289.1797752809,-276.1123595505618,-805.8426966292135,10
2024-06-13 20:34:55,0.07696902007,-0.2883284092,0.0293215327,0.3639186621,-9.883264542,0.787692368,3384.7555555555555,-45.0,1070.8444444444444,-7989.6,64.06666666666666,-810.2888888888889,10
2024-06-13 20:34:55,-0.0415388383,-0.5180137157,0.05497787148,0.4644751251,-9.813833237,0.5793967843,1787.4,-231.72941176470587,201.27058823529413,-8197.611764705882,-219.5647058823529,-403.0705882352941,10
2024-06-13 20:34:55,-0.0415388383,-0.5180137157,0.05497787148,0.4644751251,-9.813833237,0.5793967843,1758.726708074534,-335.9627329192547,-453.7950310559006,-7895.540372670807,-244.22981366459624,-103.27329192546584,10
2024-06-13 20:34:55,-0.1026253626,-0.7855727077,-0.02687807009,0.5147533417,-10.14662647,0.2849099934,1106.034090909091,433.75,-293.3863636363636,-7972.409090909091,-835.8068181818181,-233.72727272727272,10
2024-06-13 20:34:56,-0.1026253626,-0.7855727077,-0.02687807009,0.5147533417,-10.14662647,0.2849099934,381.5056179775281,1012.7303370786516,-556.7865168539325,-8070.438202247191,-423.1910112359551,-762.7865168539325,10
2024-06-13 20:34:56,-0.00122173049,-0.9236282706,0.03420845419,0.6584054828,-10.37647057,0.2082955539,-937.2666666666668,477.26666666666665,-300.7111111111111,-8441.577777777778,-498.8888888888889,-779.7333333333333,10
2024-06-13 20:34:56,-0.03298672289,-0.6902777553,0.1551597714,0.7374141216,-10.30943298,0.2394201756,-1062.314606741573,-324.9550561797753,-666.2022471910112,-8145.61797752809,-855.8764044943821,-657.8651685393259,10
2024-06-13 20:34:56,-0.03298672289,-0.6902777553,0.1551597714,0.7374141216,-10.30943298,0.2394201756,-975.2903225806452,-263.9677419354839,-653.6344086021505,-8099.397849462365,-985.032258064516,-499.5806451612903,10
2024-06-13 20:34:56,0.05009094998,-0.4642575979,0.08552113175,0.8978256583,-10.17775154,0.3064578176,-809.8214285714286,-328.3928571428572,-194.8928571428572,-8190.571428571428,-1010.7857142857144,-268.92857142857144,10
2024-06-13 20:34:56,0.05864306539,-0.1783726513,0.003665191587,0.6823474765,-10.18972206,0.4644751251,-544.6896551724137,-599.1379310344828,-297.7586206896552,-8304.793103448275,-1053.6896551724135,-42.62068965517241,10
2024-06-13 20:34:56,0.05864306539,-0.1783726513,0.003665191587,0.6823474765,-10.18972206,0.4644751251,-275.3975903614458,-795.0602409638554,-89.92771084337349,-7876.590361445783,-1108.1566265060242,153.24096385542168,10
2024-06-13 20:34:56,0.07819075137,0.01221730467,-0.02199114859,0.5626373887,-10.09395409,0.691924274,119.19565217391305,-209.7282608695652,-105.77173913043478,-7877.336956521739,-766.6847826086956,195.2282608695652,10
2024-06-13 20:34:56,0.07819075137,0.01221730467,-0.02199114859,0.5626373887,-10.09395409,0.691924274,-205.27472527472528,-47.38461538461539,611.4285714285714,-8067.813186813187,-795.8571428571429,137.9010989010989,10
2024-06-13 20:34:56,0.03298672289,0.109955743,0.1014036313,0.4285621047,-9.943120003,0.9050082564,28.10344827586207,-362.7931034482759,258.3793103448276,-8315.931034482759,-846.8620689655172,297.3793103448276,10
2024-06-13 20:34:57,0.2822197378,0.1979203373,0.3164281845,0.6703764796,-10.17535686,1.098938584,330.5,-269.72222222222223,59.44444444444444,-8073.5,-795.6111111111111,430.1666666666667,10
2024-06-13 20:34:57,0.2822197378,0.1979203373,0.3164281845,0.6703764796,-10.17535686,1.098938584,307.49162011173183,-532.0893854748604,78.40782122905028,-8206.608938547486,-466.0335195530726,775.5195530726257,10
2024-06-13 20:34:57,0.1478293836,0.9896016717,0.5497786999,0.9935936928,-9.902418137,1.098938584,91.29050279329608,-338.2346368715084,100.19553072625698,-8217.22346368715,-430.83798882681566,779.9888268156425,10
2024-06-13 20:34:57,0.17715092,1.324355841,0.109955743,-0.05985504389,-9.701305389,1.982398987,-951.0,259.8961038961039,418.2077922077922,-8258.506493506493,-177.0909090909091,464.038961038961,10
2024-06-13 20:34:57,0.17715092,1.324355841,0.109955743,-0.05985504389,-9.701305389,1.982398987,-986.561797752809,204.74157303370788,568.7977528089888,-8248.966292134832,-329.85393258426967,573.6179775280899,10
2024-06-13 20:34:57,0.4899139404,1.040914416,-0.3310889602,-1.503558636,-10.37647057,1.920149803,-1254.0573248407643,530.1974522292994,385.9426751592357,-8181.764331210191,65.65605095541402,564.375796178344,10
2024-06-13 20:34:57,0.4899139404,1.040914416,-0.3310889602,-1.503558636,-10.37647057,1.920149803,-1240.5,558.05,204.0,-8104.5,-109.35,259.55,10
2024-06-13 20:34:57,0.393397212,0.8014551997,0.4984660447,-2.959233284,-10.42195988,2.657563925,-1187.2527472527472,352.5824175824176,304.8901098901099,-8127.318681318681,88.51648351648352,247.3296703296704,10
2024-06-13 20:34:57,0.4386012554,0.2736676335,1.518610954,-3.481169224,-9.457097054,3.538630009,-1325.7058823529412,-84.23529411764706,157.11764705882354,-8111.35294117647,20.88235294117647,553.2235294117647,10
2024-06-13 20:34:57,0.4386012554,0.2736676335,1.518610954,-3.481169224,-9.457097054,3.538630009,-1550.1136363636365,16.340909090909093,220.2386363636364,-8142.181818181818,541.2840909090909,400.21590909090907,10
2024-06-13 20:34:58,-0.967610538,-0.6072000265,1.601688623,-5.243301868,-8.224082947,2.08295536,-1858.0459770114944,107.82758620689656,-235.2528735632184,-8288.850574712644,226.06896551724137,487.82758620689657,10
2024-06-13 20:34:58,0.1979203373,-0.8429940343,1.51005888,-6.464344501,-6.550535679,2.370259762,-1691.8260869565215,14.01086956521739,-746.8586956521739,-8303.532608695652,246.3586956521739,505.4673913043478,10
2024-06-13 20:34:58,0.1979203373,-0.8429940343,1.51005888,-6.464344501,-6.550535679,2.370259762,-1328.909090909091,-101.27272727272728,-1103.7272727272727,-8140.636363636364,-54.81818181818182,791.1818181818181,10
2024-06-13 20:34:58,-0.1490511149,-0.9272934198,1.010371089,-6.749254704,-4.400542736,3.689464808,-536.1724137931035,-47.413793103448285,-1334.1379310344828,-8295.275862068966,-341.6896551724138,488.9310344827586,10
2024-06-13 20:34:58,-0.1490511149,-0.9272934198,1.010371089,-6.749254704,-4.400542736,3.689464808,-349.0315789473684,220.8210526315789,-1112.2947368421053,-8306.810526315789,-398.42105263157896,412.9894736842105,10
2024-06-13 20:34:58,0.2406809032,-0.6462954283,0.684169054,-6.665457726,-3.088520288,4.467580318,358.25,304.25,-868.8690476190476,-8068.083333333333,-843.2380952380952,553.4642857142857,10
2024-06-13 20:34:58,0.3530801237,-0.3115412891,0.287106663,-6.854599476,-2.968810081,5.485116005,257.2528735632184,283.2413793103448,-503.7816091954023,-8287.919540229885,-676.3218390804598,162.05747126436782,10
2024-06-13 20:34:58,0.3530801237,-0.3115412891,0.287106663,-6.854599476,-2.968810081,5.485116005,94.24719101123596,-6.056179775280899,-282.8988764044944,-8281.426966292134,-648.8089887640449,327.76404494382024,10
2024-06-13 20:34:58,0.2638937831,-0.1490511149,0.01832595654,-6.868964672,-2.614468336,6.035782337,-416.5862068965517,-75.75862068965517,-181.9310344827586,-8268.0,-651.6551724137931,312.2758620689655,10
2024-06-13 20:34:58,0.3213151097,-0.09162978828,0.007330383174,-7.163451672,-2.109291792,6.473921299,-410.2696629213483,-104.57303370786516,49.39325842696629,-8245.438202247191,-689.8426966292135,343.5730337078652,10
2024-06-13 20:34:59,0.3213151097,-0.09162978828,0.007330383174,-7.163451672,-2.109291792,6.473921299,-410.0114942528736,91.42528735632185,55.55172413793103,-8277.781609195403,-667.9770114942529,364.735632183908,10
2024-06-13 20:34:59,0.4984660447,-0.05253441259,0.03054326214,-6.983886242,-1.963245392,6.500257492,-412.3103448275862,76.48275862068965,65.89655172413794,-8284.103448275862,-663.3793103448276,361.86206896551727,10
2024-06-13 20:34:59,0.4984660447,-0.05253441259,0.03054326214,-6.983886242,-1.963245392,6.500257492,-569.2696629213483,-200.35955056179776,97.5505617977528,-8294.505617977527,-678.7865168539325,218.19101123595505,10
2024-06-13 20:34:59,0.3249803185,0.02076941915,-0.04764748737,-6.986280441,-1.462857246,6.715735912,-357.75,-266.75,68.875,-8293.0,-850.0,586.5,10
2024-06-13 20:34:59,0.4300491214,-0.003665191587,-0.03787364438,-6.564900875,-0.9864110947,6.679822922,-361.3809523809524,-86.47619047619048,-550.4761904761905,-8263.380952380952,-1110.095238095238,432.9047619047619,10
2024-06-13 20:34:59,0.3164281845,0.09773843735,-0.08674286306,-6.895300865,-0.739808321,6.550535679,-370.9565217391304,-52.08695652173913,-456.7391304347826,-8251.652173913044,-915.2608695652174,452.5217391304348,10
2024-06-13 20:34:59,0.4422664344,0.0171042271,-0.05009094998,-7.036558628,-0.4381389022,6.414066315,-534.046511627907,309.30232558139534,16.51162790697674,-8278.093023255815,-983.5116279069769,447.5813953488372,10
2024-06-13 20:34:59,0.4422664344,0.0171042271,-0.05009094998,-7.036558628,-0.4381389022,6.414066315,-1306.6629213483145,341.64044943820227,1359.426966292135,-8101.337078651685,-619.2584269662922,407.0112359550562,10
2024-06-13 20:34:59,0.248011291,0.1795943826,0.02443460934,-7.326257229,-0.07422025502,6.105214119,-2219.659090909091,430.6931818181818,2277.193181818182,-8185.488636363636,-182.9886363636364,417.2613636363636,10
2024-06-13 20:35:00,0.248011291,0.1795943826,0.02443460934,-7.326257229,-0.07422025502,6.105214119,-3381.133333333333,706.7333333333333,1804.9555555555555,-8273.644444444444,228.02222222222224,404.6222222222222,10
2024-06-13 20:35:00,0.01466076635,0.08796459436,0.04886921868,-7.438784599,0.1244984865,6.093243122,-3476.894736842105,1140.8947368421052,703.0,-8295.0,451.0,560.7894736842105,10
2024-06-13 20:35:00,-0.05009094998,0.1392772794,0.03176499158,-7.58722496,0.4285621047,6.282385349,-3158.8988764044943,1491.7078651685392,581.5955056179776,-8201.539325842698,550.3258426966293,276.65168539325845,10
2024-06-13 20:35:00,-0.05009094998,0.1392772794,0.03176499158,-7.58722496,0.4285621047,6.282385349,-2471.527777777778,1362.361111111111,-28.38888888888889,-8264.194444444445,700.5833333333334,86.41666666666667,10
2024-06-13 20:35:00,-0.1881465018,0.07086037099,0.01466076635,-7.053318024,0.009576806799,5.444414616,-439.9012345679012,1010.6666666666666,-515.641975308642,-8247.962962962964,762.604938271605,-209.9135802469136,10
2024-06-13 20:35:00,-0.5253441334,0.06230825558,-0.03176499158,-7.204153061,-0.1651999205,6.045359135,176.93617021276594,441.6382978723405,-461.25531914893617,-8145.936170212766,694.9148936170213,-813.531914893617,10
2024-06-13 20:35:00,-0.5253441334,0.06230825558,-0.03176499158,-7.204153061,-0.1651999205,6.045359135,210.41176470588235,184.4705882352941,-169.58823529411765,-7871.35294117647,781.0588235294117,-837.8235294117648,10
2024-06-13 20:35:00,-1.971873045,0.1246165112,-0.2577851415,-6.696582317,-0.6943184733,5.83466959,591.4411764705883,231.58823529411765,-358.0882352941177,-8061.058823529412,664.6764705882352,-657.9705882352941,10
2024-06-13 20:35:00,-1.971873045,0.1246165112,-0.2577851415,-6.696582317,-0.6943184733,5.83466959,173.71232876712327,329.13698630136986,-809.6849315068494,-8036.191780821918,613.1780821917808,-703.8082191780821,10
2024-06-13 20:35:00,-1.264491081,0.590095818,-1.010371089,-5.676652431,-3.797203779,4.13239193,-463.77272727272725,-28.113636363636363,-953.0,-7749.704545454545,272.3295454545455,-977.1136363636364,10
2024-06-13 20:35:01,-1.385442376,1.081231475,-2.186897516,-5.284003258,-6.708553314,2.217030764,-691.1639344262295,102.57377049180327,-968.4590163934428,-7621.606557377049,64.36065573770492,-1069.967213114754,10
2024-06-13 20:35:01,-1.385442376,1.081231475,-2.186897516,-5.284003258,-6.708553314,2.217030764,-834.8797814207651,288.91256830601094,-990.863387978142,-7616.688524590164,-39.46448087431693,-1027.8907103825136,10
2024-06-13 20:35:01,0.04031710699,1.078788042,-2.494773626,-2.585737944,-10.07958889,0.9816226959,-901.1686746987951,-251.6265060240964,-881.8795180722891,-8227.036144578313,-563.8313253012049,-1181.289156626506,10
2024-06-13 20:35:01,-0.7501425147,0.9834930301,-2.294409752,0.624886632,-12.33013916,0.08858546615,-829.9090909090909,-103.45454545454544,39.0,-7935.909090909091,-185.45454545454547,-1206.8181818181818,10
2024-06-13 20:35:01,-0.7501425147,0.9834930301,-2.294409752,0.624886632,-12.33013916,0.08858546615,-876.8505747126437,-310.9080459770115,36.40229885057471,-7642.091954022989,-365.6091954022989,-948.9080459770116,10
2024-06-13 20:35:01,1.275486588,1.100779176,-0.684169054,1.288080573,-11.71482849,0.5219359994,-686.3,292.2,180.2,-8006.2,10.0,-972.8,10
2024-06-13 20:35:01,1.275486588,1.100779176,-0.684169054,1.288080573,-11.71482849,0.5219359994,-666.0909090909091,170.22727272727272,53.81818181818181,-7973.318181818182,45.27272727272727,-986.4090909090908,10
2024-06-13 20:35:01,0.3762930036,0.6548475623,0.4935791194,1.455674648,-10.28549004,0.1316810995,-854.7078651685393,6.37078651685394,-107.83146067415731,-8133.573033707865,-141.03370786516854,-987.0,10
2024-06-13 20:35:01,-0.4752531648,0.3885102868,0.7024950385,1.278503656,-9.641449928,0.6871358752,-18.758241758241752,-79.58241758241758,-52.747252747252745,-8001.593406593407,-184.1978021978022,-963.5164835164836,10
2024-06-13 20:35:01,-0.4752531648,0.3885102868,0.7024950385,1.278503656,-9.641449928,0.6871358752,778.6551724137931,-255.0344827586207,-341.2413793103448,-7919.0,-356.13793103448273,-1114.5862068965516,10
2024-06-13 20:35:02,-0.2602286041,0.3860668242,0.1539380401,1.070208192,-9.804255486,1.383848548,1540.9032258064517,-433.8709677419355,-45.064516129032256,-7933.193548387097,-228.35483870967744,-846.258064516129,10
2024-06-13 20:35:02,-0.2858849466,-0.07696902007,-0.4043927789,0.390254885,-10.02452278,0.9720458984,2452.6774193548385,-426.4516129032258,-98.55913978494624,-7917.548387096775,-436.8494623655914,-530.3978494623656,10
2024-06-13 20:35:02,-0.2858849466,-0.07696902007,-0.4043927789,0.390254885,-10.02452278,0.9720458984,3322.74011299435,-276.5819209039548,-5.152542372881356,-7970.146892655367,-430.0677966101695,-647.3220338983051,10
2024-06-13 20:35:02,0.2260201424,0.1075122803,-0.2541199327,0.6224924326,-10.6158905,0.0023942017,3518.487804878049,254.52439024390245,-327.109756097561,-7876.658536585366,-502.4756097560976,-750.7682926829268,10
2024-06-13 20:35:02,0.2260201424,0.1075122803,-0.2541199327,0.6224924326,-10.6158905,0.0023942017,3084.277777777778,363.9,-249.26666666666665,-7849.955555555555,-678.8111111111111,-1097.7777777777778,10
2024-06-13 20:35:02,-0.08063421398,0.668286562,-0.05131268129,0.5003881454,-10.14183807,-0.1699883193,2776.3932584269664,565.2022471910112,155.1067415730337,-8004.775280898876,-675.4606741573034,-1165.308988764045,10
2024-06-13 20:35:02,-0.4508185387,0.7892379165,-0.004886921961,0.4692635238,-10.65180302,0.2968810201,2577.516853932584,731.4943820224719,203.98314606741573,-7875.561797752809,-665.3483146067416,-1180.4775280898875,10
2024-06-13 20:35:02,-0.4508185387,0.7892379165,-0.004886921961,0.4692635238,-10.65180302,0.2968810201,2180.1011235955057,562.8314606741574,615.0337078651685,-8073.61797752809,-764.7528089887641,-1222.865168539326,10
2024-06-13 20:35:02,-0.1685988009,0.00122173049,0.05009094998,0.6560112834,-10.17535686,1.206677675,1102.5,-547.5,342.0,-7863.0,-396.25,-1006.5,10
2024-06-13 20:35:02,0.3396410644,-0.3127630055,-0.008552113548,1.108515382,-10.12507915,0.6560112834,1008.3804347826087,-735.5978260869565,176.6195652173913,-8147.880434782609,-481.25,-562.195652173913,10
2024-06-13 20:35:03,0.3396410644,-0.3127630055,-0.008552113548,1.108515382,-10.12507915,0.6560112834,674.4823529411765,-494.45882352941175,461.15294117647056,-8209.129411764707,-337.9529411764706,-382.2117647058824,10
2024-06-13 20:35:03,-0.03665191308,0.08796459436,0.1857030392,1.15161097,-9.727641106,0.3926490843,264.2906976744186,-471.6627906976744,221.52325581395348,-8293.383720930233,-331.06976744186045,370.2906976744186,10
2024-06-13 20:35:03,-0.03665191308,0.08796459436,0.1857030392,1.15161097,-9.727641106,0.3926490843,1065.845238095238,-720.2738095238095,-28.86904761904762,-8170.5952380952385,-211.3095238095238,593.6309523809524,10
2024-06-13 20:35:03,-0.2406809032,0.4349360466,0.004886921961,1.699883223,-10.53448772,0.5937620401,1464.10989010989,-1039.7912087912089,107.1098901098901,-8174.494505494506,-184.25274725274727,589.6483516483516,10
2024-06-13 20:35:03,0.05253441259,0.1979203373,-0.2785545588,1.110909581,-9.96466732,1.41257906,1911.647727272728,-119.5,348.2840909090909,-8204.988636363636,42.61363636363637,692.6931818181819,10
2024-06-13 20:35:03,0.05253441259,0.1979203373,-0.2785545588,1.110909581,-9.96466732,1.41257906,1788.8636363636365,371.875,286.17045454545456,-8245.352272727272,-65.48863636363636,874.0454545454545,10
2024-06-13 20:35:03,0.1246165112,0.5558874011,-0.1881465018,1.26413846,-10.12986755,0.7182605267,1076.7727272727273,802.3295454545455,275.0568181818182,-8326.647727272728,35.43181818181818,541.8522727272727,10
2024-06-13 20:35:03,-0.1905899495,0.6010913849,-0.05253441259,0.8427590132,-9.87608242,0.7541735172,870.8804347826087,379.5543478260869,93.0,-8518.25,-61.05434782608695,271.2173913043478,10
2024-06-13 20:35:03,-0.1905899495,0.6010913849,-0.05253441259,0.8427590132,-9.87608242,0.7541735172,451.6627906976744,-188.93023255813955,18.0,-8473.627906976744,-74.54651162790698,232.45348837209303,10
2024-06-13 20:35:03,0.02443460934,0.4214970171,0.1331686229,1.074996591,-10.19211674,0.7685387731,370.86206896551727,-498.5287356321839,-184.49425287356323,-8124.35632183908,-312.2068965517241,839.4942528735633,10
2024-06-13 20:35:04,0.02443460934,0.4214970171,0.1331686229,1.074996591,-10.19211674,0.7685387731,-393.3720930232558,316.6279069767442,-52.53488372093023,-8237.790697674418,73.11627906976744,792.3953488372093,10
2024-06-13 20:35:04,-0.05864306539,0.2919935882,0.1307251602,0.7996633649,-9.794678688,0.806845963,-448.010752688172,326.2903225806452,-53.215053763440864,-8158.655913978495,39.82795698924731,708.2043010752689,10
2024-06-13 20:35:04,-0.08063421398,-0.04642575979,-0.008552113548,0.8212111592,-10.29267311,0.6895300746,-211.0117647058824,244.9647058823529,82.68235294117648,-8358.411764705883,-225.25882352941176,610.7882352941176,10
2024-06-13 20:35:04,-0.08063421398,-0.04642575979,-0.008552113548,0.8212111592,-10.29267311,0.6895300746,-544.3636363636364,117.3181818181818,850.0909090909091,-8419.0,494.4090909090909,545.8636363636364,10
2024-06-13 20:35:04,0.1026253626,-0.2785545588,-0.01343903504,0.7230489254,-10.10831928,0.9385270476,-1921.0337078651687,238.2022471910112,510.4494382022472,-8367.191011235955,751.5393258426966,542.3370786516854,10
2024-06-13 20:35:04,0.1954768747,-0.5644394755,-0.03054326214,0.720654726,-10.18014526,0.8786720037,-3017.3636363636365,216.0,-781.6363636363636,-8125.454545454545,94.72727272727276,590.0909090909091,10
2024-06-13 20:35:04,0.1954768747,-0.5644394755,-0.03054326214,0.720654726,-10.18014526,0.8786720037,-2847.0,335.1666666666667,-335.5416666666667,-8408.041666666666,-226.54166666666663,585.1666666666666,10
2024-06-13 20:35:04,0.2235766798,-0.4728097022,0.1136209369,1.15400517,-10.15141487,0.7254431248,-2529.5662650602408,-341.06024096385545,-352.0120481927711,-8234.710843373494,5.9397590361445785,547.9638554216867,10
2024-06-13 20:35:04,0.2235766798,-0.4728097022,0.1136209369,1.15400517,-10.15141487,0.7254431248,-2458.454545454545,-201.8409090909091,-370.4772727272728,-8345.795454545454,-79.38636363636363,815.3181818181818,10
2024-06-13 20:35:04,0.1233947799,-0.2919935882,0.1307251602,0.9121908545,-9.737217903,0.8619126081,-3060.586206896552,-503.3448275862069,-125.66666666666669,-8045.367816091954,687.1149425287356,1488.3218390804598,10
2024-06-13 20:35:05,-0.03909537569,-0.06108652428,0.04276056588,0.9050082564,-9.672574997,0.9959878922,-2976.6,-311.2,-534.2,-8039.8,678.4,1530.2,10
2024-06-13 20:35:05,-0.03909537569,-0.06108652428,0.04276056588,0.9050082564,-9.672574997,0.9959878922,-3168.344827586207,376.0689655172414,-1574.0,-8066.137931034483,45.241379310344826,1096.448275862069,10
2024-06-13 20:35:05,-0.109955743,0.0720821023,-0.03665191308,0.7086837292,-9.99100399,0.9792284966,-2995.8,195.13333333333333,-1519.7333333333331,-8063.433333333333,-464.7,840.9666666666667,10
2024-06-13 20:35:05,-0.06841690838,0.1319468915,-0.01832595654,0.624886632,-10.21366405,0.895431459,-2879.391061452514,1057.290502793296,-993.3240223463688,-7727.17877094972,-815.6256983240223,742.8268156424581,10
2024-06-13 20:35:05,-0.06841690838,0.1319468915,-0.01832595654,0.624886632,-10.21366405,0.895431459,-3154.8494623655915,942.2043010752687,-992.978494623656,-8002.440860215053,-675.516129032258,568.752688172043,10
2024-06-13 20:35:05,-0.02565634064,0.09896016866,0.003665191587,0.7158663273,-10.11550236,0.9050082564,-2859.835294117647,839.2352941176471,375.9294117647058,-8379.211764705882,-999.7176470588236,62.62352941176471,10
2024-06-13 20:35:05,0.06108652428,0.08552113175,-0.01221730467,0.787692368,-9.921571732,0.8643068075,-884.4470588235295,-240.2823529411765,1297.5058823529412,-8632.69411764706,-539.7647058823529,19.67058823529412,10
2024-06-13 20:35:05,0.06108652428,0.08552113175,-0.01221730467,0.787692368,-9.921571732,0.8643068075,491.2857142857143,172.73469387755102,235.8367346938776,-8275.877551020409,260.2244897959183,-227.81632653061223,10
2024-06-13 20:35:05,-0.0232128799,0.08918632567,-0.08429940045,0.7661445141,-9.916783333,0.825999558,-1169.551724137931,1657.1494252873565,92.8735632183908,-7576.379310344828,-272.71264367816093,-573.4367816091954,10
2024-06-13 20:35:05,-0.0232128799,0.08918632567,-0.08429940045,0.7661445141,-9.916783333,0.825999558,-1042.6813186813188,2234.648351648352,898.8241758241758,-8363.395604395604,315.13186813186815,-1619.3956043956043,10
2024-06-13 20:35:06,-0.02076941915,-0.04764748737,-0.1295034289,0.8188169599,-10.14183807,0.9959878922,422.6206896551725,-416.04597701149424,343.2758620689655,-7795.666666666667,206.1034482758621,-1142.5977011494251,10
2024-06-13 20:35:06,0.05986479297,-0.2541199327,-0.1502728462,0.6631938815,-10.02212811,1.00556469,1164.4137931034484,-517.9310344827586,669.7586206896551,-7731.758620689655,228.17241379310343,-578.0,10
2024-06-13 20:35:06,0.05986479297,-0.2541199327,-0.1502728462,0.6631938815,-10.02212811,1.00556469,2362.5730337078653,249.1348314606741,1097.6404494382025,-8146.955056179775,31.06741573033708,-415.6966292134832,10
2024-06-13 20:35:06,0.1148426682,-0.5925393105,-0.1123992056,0.8523358107,-10.01494598,0.8858546019,3076.329545454545,285.375,993.8409090909092,-7866.5,146.88636363636363,-672.1022727272727,10
2024-06-13 20:35:06,0.1148426682,-0.5925393105,-0.1123992056,0.8523358107,-10.01494598,0.8858546019,3922.975903614458,-318.6024096385542,795.6867469879518,-8364.951807228916,477.6265060240964,-1122.6626506024097,10
2024-06-13 20:35:06,0.1404990107,-0.7574729323,0.1331686229,0.8978256583,-9.715670586,0.55784899,3346.8426966292136,-556.9775280898876,-89.48314606741573,-8227.943820224718,340.43820224719104,-1251.438202247191,10
2024-06-13 20:35:06,-0.228463605,-0.9505063295,0.04398229718,0.9696516991,-9.801861763,0.457292527,2878.921348314607,-203.53932584269663,603.2247191011236,-7649.359550561798,-54.91011235955056,-972.494382022472,10
2024-06-13 20:35:06,-0.228463605,-0.9505063295,0.04398229718,0.9696516991,-9.801861763,0.457292527,2372.288888888889,-622.8222222222222,687.3333333333334,-7860.533333333334,558.2,-929.0444444444444,10
2024-06-13 20:35:06,0.0109955743,-1.087340117,0.0415388383,1.345541358,-10.78348446,0.3016694188,1783.909090909091,-747.6590909090909,175.63636363636363,-7876.431818181818,431.77272727272725,-987.0,10
2024-06-13 20:35:06,0.08796459436,-0.7415903807,0.3494149148,1.091755986,-9.878476143,-0.1723825186,1214.7826086956522,-476.60869565217394,39.82608695652174,-8220.173913043478,-94.2608695652174,-451.6521739130435,10
2024-06-13 20:35:07,0.08796459436,-0.7415903807,0.3494149148,1.091755986,-9.878476143,-0.1723825186,1247.8235294117646,40.58823529411765,-136.23529411764707,-7867.470588235294,105.58823529411764,-418.05882352941177,10
2024-06-13 20:35:07,-0.01221730467,-0.4178318381,0.1637118906,1.233013868,-9.883264542,-0.04548983276,1212.888888888889,-29.444444444444443,-246.3333333333333,-8061.555555555556,267.77777777777777,-404.3333333333333,10
2024-06-13 20:35:07,-0.07696902007,-0.1685988009,-0.141720742,0.8762778044,-10.00536919,0.3687070608,1191.157894736842,176.05263157894734,-413.8421052631579,-8251.052631578947,40.31578947368422,-440.0526315789474,10
2024-06-13 20:35:07,-0.07696902007,-0.1685988009,-0.141720742,0.8762778044,-10.00536919,0.3687070608,1381.0794701986756,-165.2516556291391,-520.8079470198676,-8158.450331125828,78.79470198675497,-386.7483443708609,10
2024-06-13 20:35:07,-0.006108652335,0.3249803185,-0.06597344577,1.024718285,-10.44590187,-0.02154781483,975.1192052980132,-296.37748344370857,-310.2119205298013,-7924.675496688742,19.192052980132445,-255.6225165562914,10
2024-06-13 20:35:07,0.01588249579,0.6511823535,0.08552113175,0.624886632,-9.976638794,0.2274491638,1081.5555555555557,-76.06666666666666,-151.77777777777777,-7875.777777777777,-249.3333333333333,-284.8888888888889,10
2024-06-13 20:35:07,0.1661553532,0.8038986921,0.2467895597,0.7134721279,-10.54885292,0.4788403511,186.52777777777777,245.8333333333333,-737.6666666666666,-8280.819444444445,-369.5,-336.93055555555554,10
2024-06-13 20:35:07,0.1661553532,0.8038986921,0.2467895597,0.7134721279,-10.54885292,0.4788403511,680.4545454545455,256.95454545454544,-952.318181818182,-8121.954545454545,-555.6363636363636,-282.45454545454544,10
2024-06-13 20:35:07,0.1624901593,0.8588765264,0.5534439087,-0.3471592367,-10.53688145,1.072602391,652.8,-228.0842105263158,-914.4631578947368,-8150.873684210526,-785.7368421052631,-353.2421052631579,10
2024-06-13 20:35:08,0.1624901593,0.8588765264,0.5534439087,-0.3471592367,-10.53688145,1.072602391,278.2127659574468,-192.25531914893617,-786.1985815602837,-8147.45390070922,-602.9432624113475,61.5531914893617,10
2024-06-13 20:35:08,0.3017674387,0.4337143302,1.089783549,-2.001552582,-11.73158836,1.395819545,-564.5454545454545,-292.72727272727275,-670.9090909090909,-8274.181818181818,-1092.8484848484848,-71.51515151515152,10
2024-06-13 20:35:08,0.3787364662,0.0720821023,1.252273798,-3.801992416,-9.526528358,1.745373011,-438.0111111111111,-230.9777777777778,-499.8333333333333,-7993.177777777778,-1346.4,-10.133333333333333,10
2024-06-13 20:35:08,0.3787364662,0.0720821023,1.252273798,-3.801992416,-9.526528358,1.745373011,-831.9767441860465,-204.90697674418604,-426.3488372093023,-8282.976744186046,-1253.0,297.2093023255814,10
2024-06-13 20:35:08,0.5057964325,-0.3054326177,1.25838244,-4.886565685,-8.094796181,2.224213362,-570.3720930232558,-637.1046511627907,-582.8720930232558,-7911.511627906977,-1601.593023255814,327.54651162790697,10
2024-06-13 20:35:08,0.5277875662,-0.4874704778,1.186300278,-5.724536419,-6.390124321,3.246537447,-489.31111111111113,-228.57777777777773,-52.36666666666667,-8120.222222222223,-1198.3555555555556,442.5777777777778,10
2024-06-13 20:35:08,0.5277875662,-0.4874704778,1.186300278,-5.724536419,-6.390124321,3.246537447,-767.7798165137615,-31.68807339449541,301.2201834862385,-8277.08256880734,-1168.2385321100917,485.3669724770642,10
2024-06-13 20:35:08,0.3946189582,-0.5791002512,0.8454375267,-6.426037312,-5.279214859,4.364629745,-456.3188405797101,244.1304347826087,14.231884057971016,-8297.231884057972,-1178.5942028985507,461.0869565217391,10
2024-06-13 20:35:08,0.3946189582,-0.5791002512,0.8454375267,-6.478709698,-4.062960148,5.015852451,-205.07777777777773,44.73333333333333,355.5777777777778,-8281.08888888889,-1346.8777777777775,627.6,10
2024-06-13 20:35:08,0.3518583775,-0.3005456924,0.6597344875,-6.478709698,-4.062960148,5.015852451,-196.3010752688172,-87.65591397849462,224.9784946236559,-8274.78494623656,-938.5591397849462,380.4731182795699,10
2024-06-13 20:35:09,0.37751472,-0.1307251602,0.4202753007,-6.83784008,-3.002328873,5.647922039,-564.7710843373494,-0.0722891566265104,349.0843373493976,-8168.409638554217,-1000.55421686747,195.7349397590361,10
2024-06-13 20:35:09,0.37751472,-0.1307251602,0.4202753007,-6.83784008,-3.002328873,5.647922039,-736.5842696629213,222.4494382022472,471.123595505618,-7982.08988764045,-899.8426966292135,278.85393258426967,10
2024-06-13 20:35:09,0.4190535545,-0.09529497474,0.2382374406,-7.007828236,-2.078166962,5.839457989,-899.7741935483871,164.11827956989248,476.40860215053766,-7888.462365591397,-850.1505376344086,-47.623655913978496,10
2024-06-13 20:35:09,0.09896016866,-0.03665191308,0.08185594529,-7.122750282,-1.924938202,6.277596951,-1279.2988505747126,629.1034482758621,431.5287356321839,-7919.103448275862,-774.6666666666666,-278.4367816091954,10
2024-06-13 20:35:09,0.09896016866,-0.03665191308,0.08185594529,-7.122750282,-1.924938202,6.277596951,-621.876404494382,409.8314606741573,68.10112359550561,-8201.966292134832,-668.7752808988764,-240.6629213483146,10
2024-06-13 20:35:09,0.4214970171,0.00244346098,0.08185594529,-7.304709435,-1.735796213,6.35660553,-335.4,418.8,20.40000000000001,-8119.8,-770.6,-536.0,10
2024-06-13 20:35:09,0.4214970171,0.00244346098,0.08185594529,-7.304709435,-1.735796213,6.35660553,426.7586206896552,-24.724137931034484,248.17241379310343,-7826.310344827586,-919.0344827586208,-568.7586206896551,10
2024-06-13 20:35:09,0.3506366611,-0.008552113548,0.08674286306,-7.153874874,-1.18752408,6.215347767,954.3214285714286,251.6071428571429,221.6428571428572,-7826.678571428572,-1107.571428571429,-624.0,10
2024-06-13 20:35:09,0.283441484,-0.008552113548,0.07819075137,-7.173028469,-0.653617084,6.232107162,1801.0,1418.5,1820.0,-7860.0,-838.5,-610.0,10
2024-06-13 20:35:09,0.283441484,-0.008552113548,0.07819075137,-7.173028469,-0.653617084,6.232107162,3615.790697674419,1717.2325581395348,3583.813953488372,-7875.255813953488,-559.8139534883721,-1001.6976744186046,10
2024-06-13 20:35:10,0.1637118906,-0.004886921961,0.05497787148,-7.141903877,-0.3758896589,6.361393929,5249.75,1021.25,3950.0,-8118.25,120.25,-1531.75,10
2024-06-13 20:35:10,0.1942551434,-0.008552113548,0.03298672289,-7.237671852,-0.4261679053,6.337451935,7146.873563218391,-535.5172413793103,2160.6091954022986,-7647.103448275862,1164.1379310344828,-1923.5517241379312,10
2024-06-13 20:35:10,0.1942551434,-0.008552113548,0.03298672289,-7.237671852,-0.4261679053,6.337451935,6052.772727272727,-237.9431818181818,706.3863636363636,-7505.806818181818,1221.9431818181818,-1917.6022727272727,10
2024-06-13 20:35:10,0.09529497474,0.003665191587,0.02565634064,-7.127538681,0.06943184882,6.442796707,4427.6626506024095,441.3614457831325,577.7951807228916,-7623.409638554217,1055.6746987951808,-1710.566265060241,10
2024-06-13 20:35:10,0.09529497474,0.003665191587,0.02565634064,-7.156269073,0.1340752989,6.361393929,1225.5632183908046,-372.5402298850575,543.8620689655172,-7929.586206896552,831.0919540229885,-1758.2068965517242,10
2024-06-13 20:35:10,0.02565634064,-0.004886921961,0.0232128799,-7.156269073,0.1340752989,6.361393929,399.1609195402299,-792.1264367816092,236.896551724138,-7844.6551724137935,685.6896551724138,-1473.5862068965516,10
2024-06-13 20:35:10,0.02809980139,0.02199114859,0.006108652335,-7.194576263,0.107739076,6.339846134,-133.38636363636363,-547.9318181818182,-219.8636363636364,-7714.488636363636,426.7045454545455,-1267.659090909091,10
2024-06-13 20:35:10,0.02809980139,0.02199114859,0.006108652335,-7.194576263,0.107739076,6.339846134,-66.26666666666667,-182.8,-316.7333333333333,-7764.333333333333,208.13333333333333,-1325.8666666666666,10
2024-06-13 20:35:10,0.01466076635,0.03176499158,-0.01221730467,-7.249642849,0.2920926213,6.272808552,-196.1034482758621,206.0344827586207,-206.86206896551724,-7832.0,542.0,-1894.379310344828,10
2024-06-13 20:35:10,-0.0171042271,0.02809980139,-0.02076941915,-7.173028469,0.1628057212,6.306327343,-461.52941176470586,-385.5882352941176,-708.7647058823529,-8073.294117647059,71.41176470588235,-1853.058823529412,10
2024-06-13 20:35:11,-0.0171042271,0.02809980139,-0.02076941915,-7.173028469,0.1628057212,6.306327343,-499.8478260869565,-1307.4782608695652,-920.5108695652174,-8075.184782608696,-241.5543478260869,-1271.5978260869565,10
2024-06-13 20:35:11,-0.1087340117,0.01954768784,-0.05131268129,-7.216124058,0.09816227108,6.105214119,-85.73033707865167,-1255.0,-1120.3483146067415,-8033.191011235955,-296.87640449438203,-1078.3820224719102,10
2024-06-13 20:35:11,-1.021366715,-0.007330383174,-0.1734857261,-6.924031258,-0.2370259613,5.717353821,-117.27272727272728,-1258.7272727272727,-556.0,-7856.0,32.72727272727273,-425.27272727272725,10
2024-06-13 20:35:11,-1.021366715,-0.007330383174,-0.1734857261,-6.924031258,-0.2370259613,5.717353821,-802.9204545454545,-720.2272727272727,-815.0227272727273,-7904.534090909091,69.38636363636364,-543.7613636363636,10
2024-06-13 20:35:11,-2.597398996,0.3982841372,-0.6817256212,-6.87614727,-2.782062292,5.844246387,-1293.3595505617975,-563.6629213483146,-452.4943820224719,-8241.943820224718,-285.685393258427,-234.8426966292135,10
2024-06-13 20:35:11,-2.597398996,0.3982841372,-0.6817256212,-6.87614727,-2.782062292,5.844246387,-1837.379310344828,-665.5862068965517,-446.1724137931034,-8270.448275862069,-232.1034482758621,-10.517241379310349,10
2024-06-13 20:35:11,-0.8637634516,0.7831292152,-0.9272934198,-7.192182064,-5.573701382,3.82593441,-1981.0,-789.0909090909091,-856.9090909090909,-8204.454545454546,-342.6363636363636,307.27272727272725,10
2024-06-13 20:35:11,0.2296853364,0.7037167549,-0.522900641,-6.969521046,-7.560888767,1.565807939,-2579.5714285714284,-593.5714285714286,-583.4175824175825,-8007.791208791209,-218.06593406593407,219.12087912087912,10
2024-06-13 20:35:11,0.2296853364,0.7037167549,-0.522900641,-6.969521046,-7.560888767,1.565807939,-2737.670731707317,-65.97560975609755,-792.4634146341464,-7913.475609756098,-611.0,570.5121951219512,10
2024-06-13 20:35:11,0.04031710699,0.4129449129,-0.1172861308,-6.619967937,-7.12993288,1.414973259,-2496.817073170732,38.90243902439025,-785.1463414634146,-7933.59756097561,-611.0,572.9512195121952,10
2024-06-13 20:35:12,-0.6010913849,0.3225368559,-0.1014036313,-6.287173748,-6.39491272,1.67115283,-3824.3333333333335,205.3333333333333,-607.6666666666666,-8409.666666666666,21.66666666666667,-111.0,10
2024-06-13 20:35:12,-0.6010913849,0.3225368559,-0.1014036313,-6.287173748,-6.39491272,1.67115283,-5804.08988764045,-1100.8539325842696,-407.7191011235955,-8262.516853932584,-362.6966292134832,280.314606741573,10
2024-06-13 20:35:12,-0.5888741016,0.6817256212,-0.1148426682,-6.459556103,-7.99423933,-0.7015010715,-5764.822222222222,-1143.0333333333333,-534.6333333333333,-8291.166666666666,-346.22222222222223,223.64444444444445,10
2024-06-13 20:35:12,-0.5888741016,0.6817256212,-0.1148426682,-6.459556103,-7.99423933,-0.7015010715,-4508.241379310345,-735.0344827586207,-1077.551724137931,-8260.931034482759,-582.9655172413793,825.8620689655172,10
2024-06-13 20:35:12,0.4398229718,0.5082398653,-0.3042109013,-4.75249052,-6.95276165,-1.209071875,-3615.23595505618,-761.8426966292135,-1328.8426966292134,-8251.550561797752,-700.9213483146067,1067.0898876404494,10
2024-06-13 20:35:12,0.1661553532,0.4569272101,-1.591914773,-3.754108191,-7.28555584,-2.202665567,-2553.7157894736843,-308.0105263157895,-1059.5578947368422,-8219.621052631579,-1001.3263157894736,1012.5368421052632,10
2024-06-13 20:35:12,0.1661553532,0.4569272101,-1.591914773,-3.754108191,-7.28555584,-2.202665567,-1704.3382352941176,-104.11764705882354,-717.4558823529412,-8275.529411764706,-1299.970588235294,900.6323529411765,10
2024-06-13 20:35:12,0.1087340117,0.2761110961,-2.20522356,-2.913743496,-11.25514221,-0.1292868853,-1052.913043478261,38.26086956521739,-839.4782608695652,-8221.565217391304,-1373.6521739130435,921.8695652173913,10
2024-06-13 20:35:12,-0.3921754956,-0.1502728462,-1.385442376,0.457292527,-11.51371574,-0.3327940404,-312.77647058823527,50.0,-809.5882352941177,-8118.270588235294,-1311.9411764705883,933.7529411764706,10
2024-06-13 20:35:12,-0.3921754956,-0.1502728462,-1.385442376,0.457292527,-11.51371574,-0.3327940404,334.8941176470588,-4.294117647058823,-761.1764705882352,-8214.423529411764,-1589.0588235294117,1067.870588235294,10
2024-06-13 20:35:13,0.3958406746,0.216246292,-0.1331686229,1.268926859,-10.6446209,-0.3303998411,-9.127659574468083,360.5957446808511,-1191.659574468085,-7976.702127659574,-1800.531914893617,694.1170212765958,10
2024-06-13 20:35:13,0.3958406746,0.216246292,-0.1331686229,1.268926859,-10.6446209,-0.3303998411,-89.67073170731707,418.280487804878,-740.2682926829268,-7990.829268292683,-2371.256097560976,813.3780487804878,10
2024-06-13 20:35:13,0.4031710625,0.1954768747,0.2638937831,1.182735682,-10.07719517,-0.4333505034,325.6666666666667,442.53333333333336,-361.5333333333333,-8044.355555555556,-2254.5777777777776,541.6222222222223,10
2024-06-13 20:35:13,0.008552113548,0.04031710699,0.1282816976,1.455674648,-10.20169353,0.1939303428,162.88888888888889,591.6888888888889,-101.5111111111111,-7890.177777777778,-2267.4444444444443,451.9111111111111,10
2024-06-13 20:35:13,0.008552113548,0.04031710699,0.1282816976,1.455674648,-10.20169353,0.1939303428,-42.326530612244895,451.530612244898,280.0,-7978.367346938776,-2247.387755102041,322.53061224489795,10
2024-06-13 20:35:13,0.1466076523,-0.03176499158,-0.01221730467,1.058237195,-9.890447617,0.1292868853,348.15384615384613,490.8461538461538,558.4615384615385,-7897.692307692308,-2228.3076923076924,94.76923076923076,10
2024-06-13 20:35:13,-0.1111774743,-0.01954768784,-0.02076941915,0.873883605,-10.14902115,0.181959331,517.0,317.0,871.4285714285714,-7995.0,-2198.8571428571427,-28.857142857142858,10
2024-06-13 20:35:13,-0.1111774743,-0.01954768784,-0.02076941915,0.873883605,-10.14902115,0.181959331,1465.4166666666667,171.56666666666666,1764.5,-7892.466666666666,-1808.0833333333333,-81.65,10
2024-06-13 20:35:13,0.08552113175,-0.106290549,0.06963863969,0.8092401624,-10.23042393,0.1556231081,1708.3529411764705,-8.882352941176464,943.4117647058824,-8278.764705882353,-1605.1764705882354,-90.6470588235294,10
2024-06-13 20:35:13,0.08552113175,-0.106290549,0.06963863969,0.8092401624,-10.23042393,0.1556231081,1807.4772727272727,139.63636363636363,-14.227272727272728,-7879.522727272727,-1370.4886363636365,269.82954545454544,10
2024-06-13 20:35:14,0.1368338168,-0.1734857261,0.1160643995,0.9816226959,-10.13465595,0.1436520964,1220.0434782608695,503.5869565217391,-579.304347826087,-7998.130434782609,-1619.3260869565215,200.2173913043478,10
2024-06-13 20:35:14,0.2394591719,-0.2858849466,0.02687807009,0.895431459,-9.737217903,0.3303998411,724.816091954023,1073.344827586207,-864.0689655172414,-7878.298850574713,-1723.2988505747126,-294.86206896551727,10
2024-06-13 20:35:14,0.2394591719,-0.2858849466,0.02687807009,0.895431459,-9.737217903,0.3303998411,452.0444444444445,954.7333333333332,-646.6444444444444,-7863.733333333334,-1704.088888888889,-444.2888888888889,10
2024-06-13 20:35:14,0.06475171447,-0.2675589919,-0.1490511149,0.6775590777,-10.46266174,0.04309562966,-513.1348314606741,552.438202247191,-353.17977528089887,-8055.786516853933,-1852.561797752809,-639.5955056179776,10
2024-06-13 20:35:14,-0.05864306539,-0.287106663,0.04642575979,0.5817909837,-9.83777523,0.586579442,-1012.9333333333332,165.53333333333333,-705.0666666666666,-8030.366666666667,-2124.0,-454.3,10
2024-06-13 20:35:14,-0.05864306539,-0.287106663,0.04642575979,0.5817909837,-9.83777523,0.586579442,-959.83908045977,-276.82758620689657,-744.7931034482758,-7989.3448275862065,-1999.8620689655168,-402.6091954022989,10
2024-06-13 20:35:14,-0.2064724565,-0.1136209369,0.1869247705,0.1795651317,-10.88643551,0.383072257,-951.4761904761904,99.60714285714286,-394.6428571428572,-7943.833333333333,-2345.1309523809523,-623.7380952380952,10
2024-06-13 20:35:14,-0.2064724565,-0.1136209369,0.1869247705,0.1795651317,-10.88643551,0.383072257,-1309.6153846153848,101.42857142857144,-319.3296703296703,-7979.406593406594,-2023.857142857143,-416.38461538461536,10
2024-06-13 20:35:14,0.0354301855,-0.3054326177,0.5656611919,-0.6560112834,-10.7092638,0.7422025204,-1230.986013986014,5.181818181818182,-385.3426573426573,-8022.783216783217,-2020.3916083916083,-390.4475524475524,10
2024-06-13 20:35:14,0.1893682331,-0.3579670191,1.065348983,-2.066195965,-10.84333992,0.9002198577,-1163.8531468531469,-122.0909090909091,-530.0979020979021,-7882.223776223776,-2100.111888111888,-438.6993006993007,10
2024-06-13 20:35:15,0.1893682331,-0.3579670191,1.065348983,-2.066195965,-10.84333992,0.9002198577,-802.4222222222222,-404.2,-379.8444444444444,-7668.044444444445,-2147.177777777778,-221.7333333333333,10
2024-06-13 20:35:15,0.7257078886,-0.3249803185,1.714087844,-3.136404276,-10.42674828,1.043871999,-924.3571428571428,-561.1428571428571,-847.0,-7947.428571428572,-1940.678571428572,-271.10714285714283,10
2024-06-13 20:35:15,0.2675589919,-0.3872885704,1.85092175,-4.704606533,-7.989450932,1.608903527,-1117.6129032258063,-548.0322580645161,-762.483870967742,-7998.548387096775,-2369.3870967741937,70.83870967741936,10
2024-06-13 20:35:15,0.2675589919,-0.3872885704,1.85092175,-4.704606533,-7.989450932,1.608903527,-1050.367816091954,-620.7241379310345,-700.2758620689656,-7994.137931034483,-2317.436781609196,95.36781609195404,10
2024-06-13 20:35:15,-0.02809980139,-0.5962044597,1.466076612,-6.459556103,-5.784391403,2.264914751,-1043.0,-781.1724137931035,-104.79310344827589,-7776.896551724138,-2195.137931034483,79.72413793103448,10
2024-06-13 20:35:15,-0.02809980139,-0.5962044597,1.466076612,-6.459556103,-5.784391403,2.264914751,-1116.0,-578.8444444444444,148.84444444444443,-8249.31111111111,-2269.088888888889,475.9111111111111,10
2024-06-13 20:35:15,0.1319468915,-0.5888741016,1.127657294,-7.122750282,-4.529829502,3.040636063,-578.1046511627907,-523.9651162790698,10.813953488372093,-8007.906976744186,-2210.2093023255816,628.4767441860465,10
2024-06-13 20:35:15,0.3127630055,-0.4679227769,0.735481739,-7.448361397,-2.7509377,4.316745758,103.38202247191012,-191.86516853932585,16.48314606741573,-7885.932584269663,-2172.303370786517,792.5842696629213,10
2024-06-13 20:35:15,0.3127630055,-0.4679227769,0.735481739,-7.448361397,-2.7509377,4.316745758,30.06896551724138,-229.896551724138,184.86206896551724,-7865.551724137931,-2117.0689655172414,831.0689655172414,10
2024-06-13 20:35:15,0.5473352671,-0.2944370508,0.3237585723,-7.235277653,-1.963245392,4.955997467,-208.0,-472.4470588235294,-520.0823529411765,-7992.235294117647,-2208.9411764705883,1060.070588235294,10
2024-06-13 20:35:16,0.3237585723,-0.1172861308,0.04398229718,-7.503427982,-1.829170108,5.38934803,240.06741573033707,-201.4943820224719,-129.38202247191012,-8019.696629213483,-2281.1573033707864,935.4606741573034,10
2024-06-13 20:35:16,0.3237585723,-0.1172861308,0.04398229718,-7.503427982,-1.829170108,5.38934803,34.602272727272734,-57.06818181818182,127.0340909090909,-7962.431818181818,-2232.659090909091,964.0909090909092,10
2024-06-13 20:35:16,0.3506366611,-0.07452555746,0.03176499158,-7.92001915,-1.017535686,5.492298603,37.88636363636364,189.5,435.25,-7861.272727272727,-2127.7272727272725,991.2954545454544,10
2024-06-13 20:35:16,0.3506366611,-0.07452555746,0.03176499158,-7.92001915,-1.017535686,5.492298603,111.41573033707868,694.8539325842696,203.4606741573033,-7911.853932584269,-2167.325842696629,1231.6966292134832,10
2024-06-13 20:35:16,0.4972442985,-0.06719517708,-0.05742133409,-7.80509758,-1.082179189,6.050147533,-537.1546961325967,806.1988950276243,174.50828729281767,-7840.624309392265,-2094.8121546961324,1290.171270718232,10
2024-06-13 20:35:16,0.6206390858,-0.06841690838,0.01588249579,-7.565677166,-0.5339069963,5.746084213,-420.02762430939225,698.4640883977901,132.51933701657458,-7610.790055248619,-2079.895027624309,1389.0662983425414,10
2024-06-13 20:35:16,0.6206390858,-0.06841690838,0.01588249579,-7.565677166,-0.5339069963,5.746084213,-338.77777777777777,1287.6666666666667,-842.3333333333334,-8435.888888888889,-2016.111111111111,530.8888888888889,10
2024-06-13 20:35:16,0.2602286041,-0.003665191587,-0.04398229718,-7.462726593,-0.1388636976,5.968744755,-1114.3908045977012,1616.4137931034484,-672.9195402298851,-7464.632183908046,-2453.287356321839,-539.4942528735633,10
2024-06-13 20:35:16,0.4349360466,-0.03298672289,-0.02809980139,-7.623138428,0.1843535304,5.604825974,-108.6931818181818,806.2954545454545,-1220.4886363636365,-7424.977272727273,-2526.3863636363635,-930.7954545454544,10
2024-06-13 20:35:16,0.4349360466,-0.03298672289,-0.02809980139,-7.623138428,0.1843535304,5.604825974,-17.200000000000003,1202.8,-471.6,-7330.2,-2616.2,-1290.6,10
2024-06-13 20:35:17,0.04276056588,0.004886921961,0.02565634064,-7.584830761,0.5913678408,5.789179802,-41.0,686.0,92.0,-7598.5,-2792.0,-1480.5,10
2024-06-13 20:35:17,0.04276056588,0.004886921961,0.02565634064,-7.584830761,0.5913678408,5.789179802,374.9545454545455,-136.20454545454544,-38.60227272727273,-8118.329545454545,-3271.931818181818,-1593.340909090909,10
2024-06-13 20:35:17,0.08552113175,-0.01343903504,0.03665191308,-7.546523571,0.5123591423,5.937620163,1033.215909090909,-288.20454545454544,553.5227272727273,-7701.943181818182,-3180.693181818182,-1065.4772727272727,10
2024-06-13 20:35:17,0.04886921868,-0.008552113548,0.05864306539,-7.534552574,0.8571242094,5.805939198,1141.0681818181818,-29.818181818181813,269.70454545454544,-7183.681818181818,-2558.568181818182,-718.659090909091,10
2024-06-13 20:35:17,0.04886921868,-0.008552113548,0.05864306539,-7.534552574,0.8571242094,5.805939198,451.0434782608696,-59.41304347826088,536.0434782608695,-7288.0,-2492.782608695652,-683.8913043478261,10
2024-06-13 20:35:17,-0.01954768784,0.02076941915,0.04398229718,-7.498639584,0.5889736414,5.827486992,606.7078651685393,-57.35955056179776,508.56179775280896,-7766.438202247191,-2493.988764044944,-975.4157303370788,10
2024-06-13 20:35:17,0.0109955743,0.02443460934,0.02199114859,-7.55131197,0.6943184733,5.803544998,-28.528089887640448,186.42696629213484,307.6741573033708,-7719.280898876404,-2470.516853932584,-1002.2808988764044,10
2024-06-13 20:35:17,0.0109955743,0.02443460934,0.02199114859,-7.55131197,0.6943184733,5.803544998,-88.6067415730337,87.76404494382022,816.2471910112359,-7694.0,-2543.044943820225,-1000.5730337078652,10
2024-06-13 20:35:17,-0.02076941915,0.05009094998,-0.003665191587,-7.534552574,0.7062895298,5.707777023,-82.24137931034483,-265.4482758620689,1105.4137931034484,-7597.448275862069,-2225.551724137931,-751.3793103448276,10
2024-06-13 20:35:17,-0.02076941915,0.05009094998,-0.003665191587,-7.534552574,0.7062895298,5.707777023,-53.92265193370166,-58.14917127071823,1075.0276243093922,-7959.055248618784,-2019.9613259668508,-758.7182320441989,10
2024-06-13 20:35:18,-0.4654793143,0.09162978828,-0.06230825558,-7.498639584,0.4692635238,5.647922039,106.6413043478261,-180.05434782608697,1036.608695652174,-7996.923913043478,-2149.043478260869,-874.6086956521739,10
2024-06-13 20:35:18,-1.683544636,0.1710422635,-0.2883284092,-7.149086475,-0.2466027737,5.434837818,37.88275862068966,-287.00689655172414,1593.7172413793105,-8213.703448275863,-1701.9172413793103,-461.7241379310345,10
2024-06-13 20:35:18,-1.683544636,0.1710422635,-0.2883284092,-7.149086475,-0.2466027737,5.434837818,79.34482758620689,-296.8965517241379,1116.2413793103449,-8037.620689655172,-1389.103448275862,-474.41379310344826,10
2024-06-13 20:35:18,-1.000597239,0.68539083,-0.8173376918,-6.646304131,-2.633621931,4.230554581,75.2840909090909,-12.715909090909092,370.7613636363636,-7842.193181818182,-1083.034090909091,-577.8295454545455,10
2024-06-13 20:35:18,0.02687807009,1.056796908,-1.673770785,-6.086060524,-4.541800499,2.777273893,-605.1555555555556,43.91111111111111,-90.21111111111112,-7929.988888888889,-1003.5444444444444,-622.0111111111111,10
2024-06-13 20:35:18,0.02687807009,1.056796908,-1.673770785,-6.086060524,-4.541800499,2.777273893,-579.7441860465116,76.74418604651163,-8.534883720930232,-8218.348837209302,-1067.6511627906978,-629.3488372093024,10
2024-06-13 20:35:18,-0.06475171447,1.089783549,-2.711019993,-4.965574265,-7.900865555,0.9241618514,-183.63636363636363,-413.29545454545456,-205.22727272727272,-8154.068181818182,-969.5227272727273,-460.02272727272725,10
2024-06-13 20:35:18,-0.06475171447,1.089783549,-2.711019993,-4.965574265,-7.900865555,0.9241618514,82.02197802197801,-591.4725274725274,63.03296703296704,-7845.175824175824,-925.0989010989013,-396.7142857142857,10
2024-06-13 20:35:18,-0.4948008358,0.9419541955,-2.309070587,-3.361459255,-11.6860981,0.1963245422,-128.77906976744185,-182.43023255813955,-196.61627906976744,-7955.837209302325,-1110.8372093023256,-488.04651162790697,10
2024-06-13 20:35:18,0.6976081133,0.6010913849,-0.9944885969,-2.264914751,-11.17134476,1.331176162,-406.0454545454545,246.375,-482.04545454545456,-7895.852272727273,-939.806818181818,-710.2386363636364,10
2024-06-13 20:35:19,0.6976081133,0.6010913849,-0.9944885969,-2.264914751,-11.17134476,1.331176162,-823.9325842696629,-111.6067415730337,-755.1797752808989,-7858.887640449439,-1208.1685393258426,-847.9662921348314,10
2024-06-13 20:35:19,0.1734857261,0.1673770845,0.1661553532,-0.7254431248,-10.41717148,1.00556469,-218.55172413793105,238.51724137931035,-840.2413793103449,-8257.172413793103,-1415.1724137931035,-808.6896551724138,10
2024-06-13 20:35:19,-0.0415388383,0.1685988009,0.4068362415,-0.2466027737,-9.938331604,1.063025594,11.09890109890111,26.14285714285714,-800.3186813186813,-7990.879120879121,-1474.989010989011,-529.4945054945056,10
2024-06-13 20:35:19,-0.07819075137,0.1539380401,-0.04276056588,0.1101332754,-9.504981041,1.297657371,692.5505617977528,449.7415730337079,-212.8314606741573,-7996.191011235955,-1713.6966292134832,-277.29213483146066,10
2024-06-13 20:35:19,-0.07819075137,0.1539380401,-0.04276056588,0.1101332754,-9.504981041,1.297657371,750.9565217391305,445.2608695652174,43.69565217391305,-8013.304347826087,-1888.3478260869565,-354.30434782608694,10
2024-06-13 20:35:19,-0.07330382615,0.232128799,-0.2822197378,-0.2992752194,-10.25436592,1.146822572,365.55555555555554,360.4949494949495,35.01010101010101,-8104.50505050505,-1962.979797979798,-357.2121212121212,10
2024-06-13 20:35:19,0.01221730467,0.1734857261,-0.0354301855,-0.7733271718,-10.14183807,1.199495077,-65.62091503267973,558.9084967320262,-21.06535947712419,-8145.993464052288,-2043.921568627451,-367.797385620915,10
2024-06-13 20:35:19,0.01221730467,0.1734857261,-0.0354301855,-0.7733271718,-10.14183807,1.199495077,-38.8235294117647,538.6470588235294,250.1764705882353,-7923.117647058823,-1969.4117647058824,-358.6470588235294,10
2024-06-13 20:35:19,0.05619960278,0.07941248268,0.1429424733,-0.4046200812,-10.16099167,1.074996591,248.29885057471265,-116.01149425287356,1025.471264367816,-7906.367816091954,-1863.5057471264367,41.57471264367816,10
2024-06-13 20:35:20,-0.02809980139,-0.05009094998,-0.006108652335,-0.07422025502,-9.897629738,1.276109457,94.69565217391305,-23.34782608695652,1521.0434782608695,-7840.260869565217,-1688.0434782608695,103.17391304347824,10
2024-06-13 20:35:20,-0.02809980139,-0.05009094998,-0.006108652335,-0.07422025502,-9.897629738,1.276109457,-2106.590361445783,1145.0481927710844,4891.554216867469,-8201.530120481928,-488.3373493975904,-259.6265060240964,10
2024-06-13 20:35:20,-0.01466076635,-0.1123992056,-0.1808161139,-0.3878606856,-9.92636013,1.051054597,-3117.4651162790697,1205.0,4499.46511627907,-7825.139534883721,1244.9767441860463,-542.2558139534884,10
2024-06-13 20:35:20,-0.01466076635,-0.1123992056,-0.1808161139,-0.3878606856,-9.92636013,1.051054597,-2785.872340425532,1022.127659574468,2716.095744680851,-7998.010638297872,2030.340425531915,-525.031914893617,10
2024-06-13 20:35:20,-0.00244346098,-0.1698205322,-0.02809980139,-0.3854664862,-10.19690514,0.9983820915,-2260.186046511628,676.7441860465116,896.8837209302326,-7641.976744186047,2657.0697674418607,-571.3720930232558,10
2024-06-13 20:35:20,-0.008552113548,-0.3176499307,0.1307251602,-0.4740519226,-10.08916569,1.149216771,-1627.4942528735633,614.8735632183908,203.72413793103448,-7754.9655172413795,2655.9540229885056,-790.6091954022988,10
2024-06-13 20:35:20,-0.008552113548,-0.3176499307,0.1307251602,-0.4740519226,-10.08916569,1.149216771,-1194.7826086956522,557.8260869565217,-289.7391304347826,-7438.869565217391,2823.6521739130435,-746.3913043478261,10
2024-06-13 20:35:20,0.02687807009,-0.5571091175,0.1050688252,-0.2944868207,-9.959878922,1.146822572,-1036.4782608695652,575.0,-339.95652173913044,-7451.434782608696,2977.6521739130435,-618.2173913043478,10
2024-06-13 20:35:20,0.008552113548,-0.634078145,0.1050688252,-0.2561795712,-9.928754807,1.106121182,-825.7361111111111,999.8611111111112,-343.93055555555554,-7238.486111111111,2998.0138888888887,-1014.9861111111112,10
2024-06-13 20:35:20,0.008552113548,-0.634078145,0.1050688252,-0.2561795712,-9.928754807,1.106121182,-711.7078651685393,1115.247191011236,-797.5842696629213,-7281.29213483146,3132.674157303371,-1210.1011235955057,10
2024-06-13 20:35:21,-0.04276056588,-0.5864306092,0.1111774743,-0.07661445439,-10.07001209,1.074996591,-1988.233333333333,795.3333333333333,-1050.8,-7326.433333333333,3430.5333333333333,-1774.7333333333331,10
2024-06-13 20:35:21,-0.04276056588,-0.5864306092,0.1111774743,-0.07661445439,-10.07001209,1.074996591,-3820.32,-862.48,-939.56,-7775.0,2917.44,-1614.32,10
2024-06-13 20:35:21,-0.01588249579,-0.3860668242,0.05375614017,0.181959331,-9.971850395,1.424550056,-2211.9655172413795,334.17241379310343,-1051.448275862069,-7458.206896551724,2213.2758620689656,-684.5172413793103,10
2024-06-13 20:35:21,0.06719517708,-0.01832595654,0.05253441259,-0.05267243832,-10.16099167,1.611297727,-1231.9540229885058,797.2183908045977,37.6551724137931,-7356.505747126437,2361.689655172414,-798.5057471264367,10
2024-06-13 20:35:21,0.06719517708,-0.01832595654,0.05253441259,-0.05267243832,-10.16099167,1.611297727,-767.4827586206897,723.3448275862069,-41.9655172413793,-7596.482758620689,2637.4137931034484,-712.2758620689655,10
2024-06-13 20:35:21,0.1942551434,0.3750712574,0.2541199327,-0.5482721925,-10.12747288,1.824381709,-163.89156626506025,609.9759036144578,-157.43373493975903,-7402.903614457831,2916.8192771084337,-1145.0,10
2024-06-13 20:35:21,0.2431243658,0.4923573732,0.2028072625,-0.8331822157,-9.770736694,1.754949808,950.0444444444444,124.5111111111111,128.95555555555558,-7723.422222222222,2059.333333333333,-933.6666666666666,10
2024-06-13 20:35:21,0.2431243658,0.4923573732,0.2028072625,-0.8331822157,-9.770736694,1.754949808,6738.977777777778,197.4333333333333,666.2222222222222,-7333.966666666666,1590.6333333333332,-1084.8333333333333,10
2024-06-13 20:35:21,0.3323107064,0.4178318381,0.3750712574,-2.281674147,-10.42435455,2.41574955,8569.790697674418,-49.97674418604651,1227.860465116279,-7531.720930232558,1978.6976744186047,-2006.3255813953488,10
2024-06-13 20:35:21,0.3323107064,0.4178318381,0.3750712574,-2.281674147,-10.42435455,2.41574955,5836.780219780219,331.31868131868134,1292.8461538461538,-7466.593406593406,2380.5054945054944,-2469.516483516484,10
2024-06-13 20:35:22,0.4007275999,0.1820378453,1.207069755,-3.823540211,-10.24478912,2.542642117,1541.6477272727273,533.9090909090909,1153.8522727272727,-7078.659090909091,1958.534090909091,-3145.306818181818,10
2024-06-13 20:35:22,0.1795943826,-0.2125810981,1.611462474,-4.75249052,-8.315062523,2.200271368,494.5957446808511,-846.8723404255319,890.936170212766,-7228.851063829788,2109.872340425532,-3108.553191489362,10
2024-06-13 20:35:22,0.1795943826,-0.2125810981,1.611462474,-4.75249052,-8.315062523,2.200271368,711.0588235294117,-1152.5411764705882,670.0588235294117,-7176.388235294117,2007.5176470588235,-2743.2705882352943,10
2024-06-13 20:35:22,-0.2199114859,-0.5131267905,1.491732955,-6.399701118,-6.35660553,2.851494312,190.16216216216216,-1505.4054054054054,75.5945945945946,-7268.513513513513,1864.891891891892,-1724.108108108108,10
2024-06-13 20:35:22,-0.9944885969,-0.6047565937,1.097113967,-6.806715488,-5.212177277,3.313575268,-127.7826086956522,-837.7391304347826,246.8586956521739,-7512.108695652174,1485.6304347826087,-1923.0217391304348,10
2024-06-13 20:35:22,-0.9944885969,-0.6047565937,1.097113967,-6.806715488,-5.212177277,3.313575268,212.4470588235294,-374.77647058823527,465.6941176470588,-7541.976470588235,1776.235294117647,-2127.0235294117647,10
2024-06-13 20:35:22,0.1185078546,-0.5448917747,0.9419541955,-7.319074631,-4.187458992,3.660734415,343.8217821782178,-1443.4851485148515,865.5346534653465,-7674.891089108911,2268.9504950495048,-1808.1782178217825,10
2024-06-13 20:35:22,0.1185078546,-0.5448917747,0.9419541955,-7.319074631,-4.187458992,3.660734415,630.8354430379746,-1802.8101265822784,590.9240506329114,-7371.354430379747,2254.93670886076,-1383.620253164557,10
2024-06-13 20:35:22,0.2370157093,-0.3310889602,0.6780604124,-7.532158375,-3.165134668,4.098873138,590.7105263157895,-1715.0526315789473,621.8157894736842,-7691.3026315789475,2675.578947368421,-879.3026315789474,10
2024-06-13 20:35:22,0.25167647,-0.1502728462,0.4703662395,-7.733271599,-1.980004787,4.90571928,-175.6629213483146,-2117.0561797752807,-233.7078651685393,-7732.044943820225,2843.224719101124,128.6067415730337,10
2024-06-13 20:35:23,0.25167647,-0.1502728462,0.4703662395,-7.733271599,-1.980004787,4.90571928,-961.4382022471908,-1871.8426966292127,-774.7640449438202,-7664.808988764045,2735.808988764045,336.9438202247191,10
2024-06-13 20:35:23,0.1270599663,-0.1441642046,0.1588249654,-7.718906403,-1.810016513,5.068524837,-3531.222222222222,-2772.555555555556,-1649.8666666666666,-7707.511111111111,2275.4444444444443,1060.1333333333334,10
2024-06-13 20:35:23,0.2577851415,-0.1123992056,0.0415388383,-8.010998726,-1.513135433,5.367800236,-3418.6871508379886,-2490.022346368716,-1905.1843575418995,-7709.005586592179,2235.4972067039107,1416.7206703910615,10
2024-06-13 20:35:23,0.2577851415,-0.1123992056,0.0415388383,-8.010998726,-1.513135433,5.367800236,-3086.284916201117,-2063.765363128492,-1913.564245810056,-7727.441340782123,1976.2793296089385,1794.932960893855,10
2024-06-13 20:35:23,0.393397212,-0.05375614017,-0.03054326214,-7.848193169,-1.074996591,5.650316238,-1569.0454545454545,232.0,-1660.8181818181818,-8165.090909090909,1119.8181818181818,2287.7272727272725,10
2024-06-13 20:35:23,0.393397212,-0.05375614017,-0.03054326214,-7.848193169,-1.074996591,5.650316238,-1632.735632183908,308.8275862068965,-1439.6091954022988,-8297.942528735632,780.6436781609195,1988.7586206896551,10
2024-06-13 20:35:23,0.5192354321,-0.06963863969,-0.009773843922,-7.702147007,-0.4477157295,5.631162167,-2126.402298850575,77.51724137931035,-1191.2413793103449,-8253.83908045977,315.48275862068965,2035.7816091954023,10
2024-06-13 20:35:23,0.3848451078,-0.0232128799,-0.01343903504,-7.850587368,-0.490811348,5.75805521,-2057.112359550562,-161.20224719101122,-1058.7528089887642,-8272.955056179775,-355.561797752809,2243.516853932584,10
2024-06-13 20:35:23,0.3848451078,-0.0232128799,-0.01343903504,-7.850587368,-0.490811348,5.75805521,-395.4269662921348,-560.0337078651686,-636.8539325842696,-8268.977528089888,-269.685393258427,2609.38202247191,10
2024-06-13 20:35:23,0.3885102868,-0.05253441259,0.04031710699,-7.745242596,0.1891419291,5.789179802,-1046.5955056179776,-658.2808988764045,-592.0786516853933,-8160.38202247191,-137.0561797752809,2564.808988764045,10
2024-06-13 20:35:24,0.2736676335,-0.006108652335,0.0354301855,-7.678205013,0.5554547906,5.904101372,-587.9010989010989,-328.7582417582417,-780.054945054945,-7842.659340659341,-181.06593406593407,2843.351648351648,10
2024-06-13 20:35:24,0.2736676335,-0.006108652335,0.0354301855,-7.678205013,0.5554547906,5.904101372,73.09473684210528,221.5684210526316,-413.1368421052632,-7878.021052631579,-241.54736842105265,2748.757894736842,10
2024-06-13 20:35:24,0.1038470939,-0.00122173049,0.02443460934,-7.671022415,0.8810662031,5.765237808,17.375,234.3,-589.075,-7891.925,-370.475,2456.95,10
2024-06-13 20:35:24,0.1038470939,-0.00122173049,0.02443460934,-7.671022415,0.8810662031,5.765237808,-469.9550561797753,579.6966292134831,-465.70786516853934,-7885.921348314607,-485.0224719101124,2520.089887640449,10
2024-06-13 20:35:24,0.004886921961,0.03054326214,0.008552113548,-7.721300602,0.8451532125,5.592854977,-601.0782122905028,677.391061452514,-541.413407821229,-8005.659217877095,-586.2122905027933,2488.905027932961,10
2024-06-13 20:35:24,-0.4923573732,0.06963863969,0.003665191587,-7.580042362,0.8283938169,5.61679697,-671.3870967741935,739.7741935483871,-621.1935483870968,-8163.387096774193,-840.3870967741935,2353.7419354838707,10
2024-06-13 20:35:24,-0.4923573732,0.06963863969,0.003665191587,-7.580042362,0.8283938169,5.61679697,-737.4632768361582,779.7062146892655,-356.8531073446328,-8219.75141242938,-872.0508474576271,1968.0225988700563,10
2024-06-13 20:35:24,-1.075122833,0.08796459436,-0.2040289938,-7.350199223,0.2226607651,5.286397457,-821.5164835164835,767.1868131868132,-169.54945054945054,-8238.824175824177,-1053.9450549450548,1779.9450549450548,10
2024-06-13 20:35:24,-1.671327353,0.3445279896,-0.7403686643,-5.966350555,-2.346317768,4.431667328,-78.01204819277109,425.2048192771084,5.180722891566262,-8308.87951807229,-1019.3493975903616,1802.433734939759,10
2024-06-13 20:35:24,-1.671327353,0.3445279896,-0.7403686643,-5.966350555,-2.346317768,4.431667328,-276.1538461538462,431.7692307692308,-554.3846153846154,-8210.76923076923,-1053.6923076923076,1471.0,10
2024-06-13 20:35:25,-0.1014036313,0.7684684992,-1.690875053,-6.402095318,-4.161122322,4.185064793,-554.0227272727273,653.7045454545455,-395.0795454545455,-8213.71590909091,-1063.9431818181818,1351.5795454545455,10
2024-06-13 20:35:25,-0.1014036313,0.7684684992,-1.690875053,-6.402095318,-4.161122322,4.185064793,-348.2954545454545,764.4318181818182,-324.7840909090909,-8269.647727272728,-1307.090909090909,1295.25,10
2024-06-13 20:35:25,0.6426302195,1.025031924,-2.309070587,-5.171475887,-7.314286232,2.123656988,-52.6195652173913,581.2608695652174,-123.29347826086956,-8155.347826086957,-1111.0108695652175,1334.2934782608695,10
2024-06-13 20:35:25,-0.1759291887,1.110553026,-2.510656118,-4.436455727,-11.16895103,1.113303781,-32.20689655172414,619.4827586206897,69.93103448275863,-8126.9655172413795,-933.5862068965516,1022.7586206896552,10
2024-06-13 20:35:25,-0.1759291887,1.110553026,-2.510656118,-4.436455727,-11.16895103,1.113303781,501.5056179775281,288.7415730337079,-26.20224719101124,-8081.775280898876,-1088.2247191011236,1055.134831460674,10
2024-06-13 20:35:25,-0.25167647,0.5693264008,-0.9541715384,-3.632004023,-10.94389629,1.302445769,819.7191011235955,170.67415730337078,135.438202247191,-8077.932584269663,-765.9775280898876,1357.3483146067415,10
2024-06-13 20:35:25,0.4996877611,0.2809980214,0.2809980214,-2.04464817,-10.15620327,1.453280449,960.9772727272727,248.26136363636363,238.29545454545456,-8218.477272727272,-687.6931818181819,1276.9545454545455,10
2024-06-13 20:35:25,0.4996877611,0.2809980214,0.2809980214,-2.04464817,-10.15620327,1.453280449,1325.8522727272727,798.2613636363636,300.0,-8276.761363636364,-725.7613636363636,734.6931818181819,10
2024-06-13 20:35:25,-0.009773843922,0.2455678284,0.3567453027,-1.285686255,-10.00776291,2.092532396,1420.969696969697,741.7878787878788,255.1818181818182,-8242.31313131313,-839.8282828282828,822.3737373737374,10
2024-06-13 20:35:25,-0.009773843922,0.2455678284,0.3567453027,-1.285686255,-10.00776291,2.092532396,2155.108108108108,575.6486486486486,603.7162162162163,-8144.513513513513,-781.1216216216217,456.9594594594595,10
2024-06-13 20:35:26,-0.04520402849,-0.2064724565,-0.1368338168,-1.165976286,-9.622296333,2.650381327,2097.0,776.6179775280899,499.2247191011236,-8264.606741573034,-587.9775280898876,553.0786516853933,10
2024-06-13 20:35:26,0.125838235,-0.4642575979,-0.196698606,-1.766920805,-9.437943459,2.04464817,1871.39010989011,671.021978021978,196.51098901098905,-8270.373626373626,-361.4285714285714,402.13186813186815,10
2024-06-13 20:35:26,0.125838235,-0.4642575979,-0.196698606,-1.766920805,-9.437943459,2.04464817,1550.978494623656,453.6881720430108,36.52688172043011,-8291.752688172042,-324.01075268817203,173.4731182795699,10
2024-06-13 20:35:26,-0.05986479297,-0.4679227769,0.1954768747,-1.436521053,-9.785101891,2.001552582,-53.98823529411766,261.2,-374.6705882352941,-8114.188235294117,-605.3529411764706,171.3764705882353,10
2024-06-13 20:35:26,-0.06108652428,-0.3616322279,0.1991420686,-1.168370485,-9.593565941,1.630451322,-296.35955056179773,80.86516853932585,-1317.8202247191011,-8300.213483146068,-964.6966292134832,132.77528089887642,10
2024-06-13 20:35:26,-0.2431243658,-0.1588249654,-0.04764748737,-1.110909581,-9.58638382,1.762132406,11.55056179775281,-196.3033707865169,-1340.887640449438,-8248.47191011236,-1299.1685393258426,224.6292134831461,10
2024-06-13 20:35:26,-0.2431243658,-0.1588249654,-0.04764748737,-1.403002143,-10.01973438,1.716642618,278.81609195402297,-517.8505747126437,-1070.9080459770114,-8135.252873563219,-1583.7701149425288,586.2068965517242,10
2024-06-13 20:35:26,-0.2553416789,-0.08674286306,-0.161268428,-1.403002143,-10.01973438,1.716642618,459.7303370786517,-267.17977528089887,-747.1123595505618,-7902.202247191011,-1676.9101123595506,461.3370786516854,10
2024-06-13 20:35:26,0.1038470939,-0.04764748737,-0.06841690838,-1.240196466,-9.777919769,1.302445769,327.4666666666667,-164.06666666666666,-844.2,-7870.933333333333,-1809.0,660.3333333333334,10
2024-06-13 20:35:27,0.1038470939,-0.04764748737,-0.06841690838,-1.240196466,-9.777919769,1.302445769,159.96470588235294,-49.91764705882353,-852.2588235294118,-7843.64705882353,-2020.270588235294,801.1176470588235,10
2024-06-13 20:35:27,0.03665191308,-0.006108652335,-0.006108652335,-1.118092179,-9.801861763,1.201889277,203.72527472527472,200.86813186813183,-850.7472527472528,-7837.252747252747,-2003.3076923076924,783.5714285714286,10
2024-06-13 20:35:27,0.00244346098,-0.08307767659,-0.04764748737,-0.9840168953,-10.06761837,1.613691926,195.44444444444449,317.5111111111111,-857.6,-7820.688888888889,-2296.8,454.4666666666666,10
2024-06-13 20:35:27,0.00244346098,-0.08307767659,-0.04764748737,-0.9840168953,-10.06761837,1.613691926,353.2045454545455,-17.159090909090935,-831.6363636363636,-8010.590909090909,-2417.2727272727275,473.54545454545456,10
2024-06-13 20:35:27,0.01466076635,-0.1075122803,-0.05253441259,-0.9696516991,-9.682151794,1.391031146,235.06666666666663,348.6,-676.4666666666667,-7996.533333333334,-2602.0,405.4,10
2024-06-13 20:35:27,0.01466076635,-0.1075122803,-0.05253441259,-0.9696516991,-9.682151794,1.391031146,21.813953488372093,-51.23255813953489,-751.8139534883721,-7982.744186046511,-2574.3488372093025,596.1395348837209,10
2024-06-13 20:35:27,-0.2455678284,-0.1368338168,-0.1637118906,-1.11569798,-9.864110947,1.072602391,-269.0,-312.314606741573,-400.14606741573033,-7673.022471910112,-2877.38202247191,551.4943820224719,10
2024-06-13 20:35:27,-0.09285151958,-0.1478293836,-0.02199114859,-1.271321058,-10.11550236,0.5506663918,-269.83516483516485,-337.25274725274727,-223.6813186813187,-7649.901098901098,-2732.7582417582416,390.010989010989,10
2024-06-13 20:35:27,-0.09285151958,-0.1478293836,-0.02199114859,-1.271321058,-10.11550236,0.5506663918,-360.8372093023256,-200.74418604651163,102.8720930232558,-7629.883720930233,-2753.360465116279,496.12790697674416,10
2024-06-13 20:35:27,-0.1930334121,-0.1857030392,0.1295034289,-1.134851575,-9.864110947,0.4285621047,-342.0869565217391,-423.7826086956522,54.72826086956522,-7651.25,-2781.9021739130435,721.9130434782609,10
2024-06-13 20:35:28,-0.2064724565,-0.326202035,0.07452555746,-0.9050082564,-10.23760605,0.5075707436,-70.07865168539325,-545.9775280898876,186.40449438202245,-7617.595505617977,-2730.8314606741574,718.2696629213483,10
2024-06-13 20:35:28,-0.2064724565,-0.326202035,0.07452555746,-0.9050082564,-10.23760605,0.5075707436,-67.83720930232559,-332.69767441860466,321.4186046511628,-7643.046511627907,-2566.6046511627906,1012.906976744186,10
2024-06-13 20:35:28,0.0293215327,-0.1673770845,0.07574728876,-0.7948749661,-10.15141487,0.316034615,-28.46666666666667,-317.3,98.33333333333331,-7946.666666666667,-2540.833333333333,1119.1333333333334,10
2024-06-13 20:35:28,0.0293215327,-0.1673770845,0.07574728876,-0.7948749661,-10.15141487,0.316034615,302.1222222222222,-600.1333333333333,87.91111111111111,-7926.022222222222,-2862.288888888889,1338.5444444444445,10
2024-06-13 20:35:28,-0.0171042271,0.2309070677,-0.05986479297,-0.9337386489,-9.919178009,0.4070142806,-76.28888888888889,-472.1333333333333,-23.64444444444445,-7739.266666666666,-2539.3777777777777,1346.4222222222222,10
2024-06-13 20:35:28,-0.01588249579,0.3249803185,-0.1698205322,-0.9935936928,-10.65898609,-0.1316810995,-1487.816091954023,385.35632183908046,71.06896551724138,-7580.862068965517,-2622.4712643678163,1038.8850574712644,10
2024-06-13 20:35:28,-0.01588249579,0.3249803185,-0.1698205322,-0.9935936928,-10.65898609,-0.1316810995,-1754.2727272727273,550.3636363636364,286.9318181818182,-7796.568181818182,-2860.5,1079.3181818181818,10
2024-06-13 20:35:28,0.1869247705,0.2101376504,0.03420845419,-1.22583127,-9.938331604,0.4141969085,-1266.2727272727273,294.72727272727275,691.5227272727273,-7819.227272727273,-2558.3636363636365,728.5227272727273,10
2024-06-13 20:35:28,0.1991420686,0.08796459436,0.1673770845,-1.110909581,-10.12986755,0.6033388376,-601.3728813559321,-32.711864406779654,1458.9322033898304,-7857.118644067797,-2490.4406779661017,855.7457627118644,10
2024-06-13 20:35:28,0.1991420686,0.08796459436,0.1673770845,-1.110909581,-10.12986755,0.6033388376,-104.33333333333334,-337.55555555555554,1657.888888888889,-7870.444444444444,-2272.222222222222,1083.2222222222222,10
2024-06-13 20:35:29,0.1808161139,0.08063421398,0.4300491214,-1.771709204,-10.44111347,1.067813993,199.07692307692307,-32.15384615384613,1256.7692307692307,-7896.192307692308,-1452.5,1322.423076923077,10
2024-06-13 20:35:29,0.1808161139,0.08063421398,0.4300491214,-2.276885748,-9.794678688,1.527500629,-144.0,-179.0,1037.5,-8285.0,-1409.5,1223.5,10
2024-06-13 20:35:29,0.2602286041,-0.05864306539,0.6475171447,-2.276885748,-9.794678688,1.527500629,-350.72727272727275,-560.2045454545455,1195.5113636363635,-8240.011363636364,-980.431818181818,1436.3295454545455,10
2024-06-13 20:35:29,0.3469714522,-0.228463605,0.9004153609,-3.785232782,-9.485827446,2.032677174,-482.3076923076923,637.4395604395604,1522.2637362637363,-7910.10989010989,-116.95604395604396,1255.2637362637363,10
2024-06-13 20:35:29,0.3469714522,-0.228463605,0.9004153609,-3.785232782,-9.485827446,2.032677174,-986.4494382022472,758.1685393258427,1424.6741573033707,-7977.078651685393,106.16853932584269,1139.2921348314608,10
2024-06-13 20:35:29,0.2528982162,-0.1539380401,1.36100781,-4.632780075,-8.686163902,2.042253971,-1885.6818181818185,588.6818181818182,483.8636363636364,-8102.306818181818,232.47727272727272,940.7727272727273,10
2024-06-13 20:35:29,0.1893682331,-0.25167647,1.20218277,-5.523423195,-6.811503887,2.760514498,-2772.090909090909,613.2727272727273,-432.9090909090909,-8193.181818181818,132.27272727272728,762.8181818181819,10
2024-06-13 20:35:29,0.1893682331,-0.25167647,1.20218277,-5.523423195,-6.811503887,2.760514498,-2488.083333333333,449.6770833333333,-570.5416666666666,-8121.5,-154.83333333333334,869.0625,10
2024-06-13 20:35:29,0.1673770845,-0.2125810981,0.7513642311,-6.39491272,-5.813121796,3.378218651,-1823.89156626506,418.27710843373495,-586.1807228915662,-8121.77108433735,-161.79518072289156,728.2168674698795,10
