Timestamp,Gyro_x_x,Gyro_y_x,Gyro_z_x,Acc_x_x,Acc_y_x,Acc_z_x,Gyro_x_y,Gyro_y_y,Gyro_z_y,Acc_x_y,Acc_y_y,Acc_z_y,combined_action_num
2024-06-13 20:00:57,-0.1624901593,0.03420845419,0.03298672289,-0.457292527,3.071760893,9.222464561,158.55319148936172,-89.29787234042553,353.95744680851067,-7915.68085106383,38.0,-1104.851063829787,8
2024-06-13 20:00:57,-0.0232128799,-0.01343903504,-0.01343903504,-0.4094084799,3.035847664,9.220070839,317.1190476190476,-353.6904761904762,53.07142857142858,-7812.428571428572,-271.73809523809524,-1093.904761904762,8
2024-06-13 20:00:57,-0.0232128799,-0.01343903504,-0.01343903504,-0.4094084799,3.035847664,9.220070839,-551.6931818181818,9.875,137.2840909090909,-7914.840909090909,67.69318181818181,-928.181818181818,8
2024-06-13 20:00:57,-0.1930334121,-0.03420845419,-0.07086037099,-0.282515794,2.952050686,9.081207275,83.88636363636364,-196.0681818181818,508.75,-8175.636363636364,26.954545454545453,-743.2272727272727,8
2024-06-13 20:00:57,-0.1930334121,-0.03420845419,-0.07086037099,-0.282515794,2.952050686,9.081207275,-102.66906474820144,-308.76978417266184,552.8129496402878,-7842.424460431655,119.61870503597122,-668.31654676259,8
2024-06-13 20:00:57,-0.6120869517,-0.109955743,-0.4043927789,0.5817909837,2.04464817,8.183381081,-102.18888888888888,-47.95555555555555,418.8666666666667,-8102.777777777777,371.27777777777777,-671.4888888888889,8
2024-06-13 20:00:58,-1.375668526,-0.3176499307,-1.199739337,0.05985504389,0.6320692301,7.989450932,-585.3977272727273,-115.23863636363636,346.52272727272725,-7921.011363636364,474.6818181818182,-696.8863636363636,8
2024-06-13 20:00:58,-1.375668526,-0.3176499307,-1.199739337,0.05985504389,0.6320692301,7.989450932,-771.8426966292135,-254.68539325842696,20.17977528089888,-7854.573033707865,400.46067415730334,-789.4157303370787,8
2024-06-13 20:00:58,-1.640784025,-0.9822713137,-1.811826348,1.601720929,-1.678335428,8.118738174,-581.2,0.7444444444444471,-228.38888888888889,-7858.133333333333,600.4111111111112,-772.2222222222222,8
2024-06-13 20:00:58,-1.233947754,0.06230825558,-0.4337143302,1.273715258,-8.228871346,13.81215,-156.04651162790697,300.06976744186045,80.25581395348837,-7925.558139534884,574.0,-830.8604651162791,8
2024-06-13 20:00:58,-1.233947754,0.06230825558,-0.4337143302,1.273715258,-8.228871346,13.81215,-218.79166666666669,182.60416666666669,16.27083333333333,-7931.520833333333,571.1666666666666,-837.3541666666666,8
2024-06-13 20:00:58,-0.1832595766,-0.2785545588,-0.03909537569,2.722207308,-5.743690014,8.458714485,-259.57142857142856,-44.33333333333333,22.64285714285714,-7884.380952380952,629.2380952380952,-835.1190476190476,8
2024-06-13 20:00:58,-0.1832595766,-0.2785545588,-0.03909537569,2.722207308,-5.743690014,8.458714485,-211.17241379310343,159.11494252873564,-98.14942528735632,-7886.022988505747,634.5747126436781,-831.3218390804598,8
2024-06-13 20:00:58,0.08063421398,0.01221730467,0.1026253626,2.93768549,-4.38617754,8.377311707,-334.9090909090909,287.72727272727275,40.0,-7888.863636363636,618.4090909090909,-844.3181818181819,8
2024-06-13 20:00:58,-0.3665191531,0.7476990819,-0.0293215327,2.762908697,-4.146757126,9.883264542,-337.76666666666665,293.52222222222224,64.47777777777777,-7899.466666666666,447.4555555555555,-883.3666666666667,8
2024-06-13 20:00:58,-0.3665191531,0.7476990819,-0.0293215327,2.762908697,-4.146757126,9.883264542,-328.70786516853934,-57.348314606741575,-75.56179775280899,-7869.932584269663,421.17977528089887,-861.5280898876405,8
2024-06-13 20:00:59,-1.684766293,1.609019041,0.7342600226,1.000776291,-5.676652431,9.155426979,-307.3959731543624,155.2751677852349,-89.35570469798658,-7855.604026845637,434.0,-740.5973154362416,8
2024-06-13 20:00:59,-1.153313637,0.616973877,1.091005325,-3.787626982,-6.35421133,5.808333397,21.25,225.25,92.625,-7901.875,459.125,-688.25,8
2024-06-13 20:00:59,-1.153313637,0.616973877,1.091005325,-3.787626982,-6.35421133,5.808333397,25.329545454545453,-54.875,-89.13636363636364,-7872.420454545455,488.1931818181818,-696.0,8
2024-06-13 20:00:59,-0.1087340117,-0.1502728462,-0.3481931984,-2.863465309,-6.205770969,3.751713991,-60.727272727272734,62.63636363636363,-31.18181818181818,-7857.181818181818,493.6363636363636,-696.0,8
2024-06-13 20:00:59,-0.1087340117,-0.1502728462,-0.3481931984,-2.863465309,-6.205770969,3.751713991,-270.48275862068965,-90.27586206896552,66.37931034482759,-7871.862068965517,476.13793103448273,-681.4655172413793,8
2024-06-13 20:00:59,-1.174082994,-0.2528982162,-0.85765481,-0.2370259613,-10.03409958,1.771709204,-270.7415730337079,-99.4494382022472,99.34831460674158,-7867.988764044944,481.85393258426967,-684.2696629213483,8
2024-06-13 20:00:59,-0.02565634064,0.1624901593,-0.4251621962,0.5051765442,-8.358158112,4.082113743,-69.6629213483146,51.32584269662922,24.98876404494382,-7866.943820224719,498.6179775280899,-671.7415730337078,8
2024-06-13 20:00:59,-0.02565634064,0.1624901593,-0.4251621962,0.5051765442,-8.358158112,4.082113743,24.284090909090907,-124.0,72.61363636363636,-7860.931818181818,498.96590909090907,-657.1590909090909,8
2024-06-13 20:00:59,0.1197295859,0.06719517708,-0.2700024247,-0.08140286058,-10.73081207,2.092532396,17.62222222222222,96.37777777777777,42.55555555555556,-7894.622222222222,752.4666666666667,-655.7111111111111,8
2024-06-13 20:00:59,-0.2809980214,0.03176499158,-0.05864306539,0.6153098345,-9.639056206,1.651999116,115.67045454545456,-105.04545454545456,27.988636363636363,-7853.295454545455,508.0113636363636,-889.1590909090909,8
2024-06-13 20:01:00,-0.2809980214,0.03176499158,-0.05864306539,0.6153098345,-9.639056206,1.651999116,77.2967032967033,-83.91208791208791,-20.450549450549453,-7859.318681318681,475.967032967033,-889.2087912087912,8
2024-06-13 20:01:00,-0.2675589919,-0.3249803185,0.1343903542,0.2442085743,-9.603142738,0.6344634295,72.49397590361446,-93.96385542168674,59.01204819277108,-7898.927710843373,460.73493975903614,-877.6506024096385,8
2024-06-13 20:01:00,-0.2675589919,-0.3249803185,0.1343903542,0.2442085743,-9.603142738,0.6344634295,-266.8372093023256,94.69767441860463,-101.7906976744186,-7898.6511627906975,777.7906976744187,-865.0697674418604,8
2024-06-13 20:01:00,0.1075122803,-0.5937610269,0.5375614166,0.5626373887,-9.392453194,1.098938584,-373.1573033707865,68.38202247191012,89.69662921348315,-7849.76404494382,474.7752808988764,-823.5393258426966,8
2024-06-13 20:01:00,0.0415388383,-0.6072000265,0.7929030657,-1.252167463,-10.38604736,1.173158884,-268.55555555555554,41.73333333333333,103.75555555555556,-7846.066666666667,653.5777777777778,-844.9555555555555,8
2024-06-13 20:01:00,0.0415388383,-0.6072000265,0.7929030657,-1.252167463,-10.38604736,1.173158884,-224.3333333333333,-35.36666666666667,7.7666666666666675,-7905.677777777778,805.5777777777778,-876.0,8
2024-06-13 20:01:00,-0.2186897546,-0.6927211881,0.7916813493,-2.846705914,-10.04367638,1.462857246,-443.3356643356643,310.97202797202794,-159.96503496503496,-7873.384615384615,770.0,-762.013986013986,8
2024-06-13 20:01:00,-0.08429940045,-0.5119050741,0.6817256212,-4.01747036,-9.069235802,1.790862918,370.5,394.75,-731.75,-7888.0,849.5,-742.0,8
2024-06-13 20:01:00,-0.08429940045,-0.5119050741,0.6817256212,-4.01747036,-9.069235802,1.790862918,145.34831460674158,199.96629213483143,-1318.3483146067415,-7863.640449438202,218.2584269662921,-1084.9662921348315,8
2024-06-13 20:01:00,-0.05864306539,-0.4850270152,0.6157521605,-4.596867085,-8.990227699,1.716642618,285.0571428571429,-627.5142857142857,-1145.0857142857142,-8184.742857142857,67.85714285714286,-1097.8,8
2024-06-13 20:01:01,-0.05864306539,-0.4850270152,0.6157521605,-4.596867085,-8.990227699,1.716642618,227.2,-781.8,-1095.8,-7957.6,25.0,-1062.8,8
2024-06-13 20:01:01,0.3371976018,-0.5986479521,0.4129449129,-5.02064085,-8.497021675,2.312798738,153.56470588235294,-746.6,-1324.3764705882354,-7975.764705882353,-544.9294117647058,-519.635294117647,8
2024-06-13 20:01:01,0.3640756905,-0.522900641,0.5351179838,-5.228936672,-7.431602001,2.964021683,-227.9230769230769,-417.84615384615387,-1400.0,-8089.461538461538,-1004.8461538461538,-217.3846153846154,8
2024-06-13 20:01:01,0.3640756905,-0.522900641,0.5351179838,-5.228936672,-7.431602001,2.964021683,-491.8139534883721,-680.8604651162791,-686.8604651162791,-8280.651162790698,-1197.1627906976744,-289.4186046511628,8
2024-06-13 20:01:01,0.4214970171,-0.3200933933,0.4544837475,-5.331887245,-6.368576527,3.995922565,-112.52747252747253,-822.2637362637363,-43.428571428571445,-8304.703296703297,-1217.4395604395604,-328.967032967033,8
2024-06-13 20:01:01,0.3237585723,-0.145385921,0.2761110961,-5.750872612,-6.069301128,4.335899353,418.8795180722892,-747.2409638554217,768.9879518072289,-8219.759036144578,-1111.9638554216867,22.14457831325301,8
2024-06-13 20:01:01,0.3237585723,-0.145385921,0.2761110961,-5.750872612,-6.069301128,4.335899353,622.9318181818182,-1032.4318181818182,1355.159090909091,-7865.704545454545,-484.3636363636364,103.9090909090909,8
2024-06-13 20:01:01,0.3042109013,-0.03298672289,0.2028072625,-6.040570736,-5.928043365,4.833893299,-292.2022471910112,-638.0898876404494,1110.3033707865168,-8317.47191011236,81.64044943820225,240.6741573033708,8
2024-06-13 20:01:01,0.3042109013,-0.03298672289,0.2028072625,-6.040570736,-5.928043365,4.833893299,239.2183908045977,-769.4367816091954,-5.505747126436782,-8125.597701149425,48.02298850574712,472.13793103448273,8
2024-06-13 20:01:01,0.3506366611,-0.04764748737,0.1563815027,-6.189011574,-5.688623428,4.951209068,-68.4494382022472,-1046.258426966292,219.6067415730337,-8143.662921348315,334.7191011235955,808.7078651685393,8
2024-06-13 20:01:02,0.4227187634,-0.04398229718,0.06108652428,-6.138733387,-4.960785866,5.262455463,-713.2359550561798,-696.1910112359551,496.0,-8245.247191011236,161.07865168539325,1043.0674157303372,8
2024-06-13 20:01:02,0.4227187634,-0.04398229718,0.06108652428,-6.138733387,-4.960785866,5.262455463,-466.1875,-479.0625,561.375,-8244.3125,576.625,1082.4375,8
2024-06-13 20:01:02,0.2467895597,0.01343903504,0.06841690838,-6.342240334,-4.814739704,5.607220173,-494.6938775510204,-146.75510204081633,734.5102040816327,-8176.65306122449,644.265306122449,1256.1632653061224,8
2024-06-13 20:01:02,0.2101376504,-0.003665191587,0.04520402849,-6.327875137,-4.747702122,5.887341976,-1697.362637362637,44.42857142857143,-840.4945054945056,-8247.065934065935,963.4175824175824,1297.5824175824175,8
2024-06-13 20:01:02,0.2101376504,-0.003665191587,0.04520402849,-6.327875137,-4.747702122,5.887341976,-4058.6666666666665,197.5,-1680.0,-8142.388888888889,421.77777777777777,1434.388888888889,8
2024-06-13 20:01:02,0.3188716471,0.004886921961,0.04642575979,-6.260837555,-4.261679173,5.940014362,-4567.679487179487,248.9188034188034,-1611.2905982905984,-8211.423076923076,230.6282051282052,1370.0555555555557,8
2024-06-13 20:01:02,0.3188716471,0.004886921961,0.04642575979,-6.260837555,-4.261679173,5.940014362,-4670.489361702128,241.46808510638297,-1811.276595744681,-8099.95744680851,-32.87234042553192,1560.468085106383,8
2024-06-13 20:01:02,0.381179899,0.008552113548,0.05009094998,-6.366182327,-4.074931145,6.167463779,-142.37662337662337,1763.6363636363635,-1409.142857142857,-8201.545454545454,-1551.4545454545455,1051.1948051948052,8
2024-06-13 20:01:02,0.08796459436,0.007330383174,0.03054326214,-6.351817131,-3.835511208,6.179434776,-51.0,1809.25,-108.5,-8245.0,-1642.25,-319.5,8
2024-06-13 20:01:02,0.08796459436,0.007330383174,0.03054326214,-6.351817131,-3.835511208,6.179434776,328.1011235955056,1038.0786516853932,672.4943820224719,-8270.483146067416,-1453.4606741573034,-602.5955056179776,8
2024-06-13 20:01:03,0.05864306539,0.02076941915,0.01343903504,-6.370970726,-3.677493811,6.196194172,285.18279569892474,703.010752688172,627.4193548387096,-8069.365591397849,-1270.5698924731182,-842.0860215053764,8
2024-06-13 20:01:03,0.01466076635,0.01954768784,-0.00122173049,-6.387730122,-3.658340216,6.378153324,-305.1428571428572,1036.7142857142858,-376.7142857142857,-7889.285714285715,-1047.2857142857142,-1054.428571428571,8
2024-06-13 20:01:03,0.01466076635,0.01954768784,-0.00122173049,-6.387730122,-3.658340216,6.378153324,161.03333333333336,716.2555555555556,357.0777777777778,-8105.4,-1520.0444444444445,-916.1,8
2024-06-13 20:01:03,0.01466076635,0.02565634064,0.004886921961,-6.421248913,-3.596091032,6.366182327,825.0,389.6,-152.60000000000002,-8046.4,-1140.4,-1145.6,8
2024-06-13 20:01:03,0.01466076635,0.02565634064,0.004886921961,-6.421248913,-3.596091032,6.366182327,301.64583333333337,-473.7291666666666,-690.8854166666667,-7816.791666666667,-1326.1979166666667,-1293.8333333333333,8
2024-06-13 20:01:03,0.0232128799,0.01221730467,-0.006108652335,-6.387730122,-3.600879431,6.387730122,193.3333333333333,-1176.0,-27.666666666666657,-8362.666666666666,-1717.3333333333333,-1032.6666666666667,8
2024-06-13 20:01:03,-0.01221730467,0.04520402849,-0.004886921961,-6.411672115,-3.665522814,6.27999115,780.9662921348315,-2414.438202247191,1112.6067415730338,-8088.853932584269,-2048.988764044944,-74.4494382022472,8
2024-06-13 20:01:03,-0.01221730467,0.04520402849,-0.004886921961,-6.411672115,-3.665522814,6.27999115,1574.8222222222223,-1717.8666666666666,1336.6,-7707.844444444445,-2056.8,492.0888888888889,8
2024-06-13 20:01:03,-0.004886921961,0.0354301855,0.00122173049,-6.406883717,-3.667917013,6.244078159,2217.68085106383,-2204.9574468085107,3206.425531914894,-8305.191489361701,-699.4468085106383,1107.021276595745,8
2024-06-13 20:01:03,0.003665191587,0.03176499158,-0.00244346098,-6.528987885,-3.646369219,6.335057735,2266.617021276596,-2224.8156028368794,3241.177304964539,-8315.829787234043,-524.2695035460993,963.7588652482268,8
2024-06-13 20:01:04,0.003665191587,0.03176499158,-0.00244346098,-6.528987885,-3.646369219,6.335057735,1708.6741573033707,-671.3820224719101,1285.202247191011,-7937.696629213483,1924.8988764044943,1531.561797752809,8
2024-06-13 20:01:04,-0.03420845419,0.03420845419,-0.01466076635,-6.4691329,-3.560178041,6.253654957,477.8620689655172,-198.41379310344828,421.6206896551725,-7998.6551724137935,1823.0689655172407,1855.8620689655168,8
2024-06-13 20:01:04,-0.03420845419,0.03420845419,-0.01466076635,-6.4691329,-3.560178041,6.253654957,-297.1489361702128,-165.82978723404256,-620.2127659574468,-7666.63829787234,1470.723404255319,1712.042553191489,8
2024-06-13 20:01:04,-0.4361577928,0.05253441259,-0.08307767659,-6.457161903,-3.82593441,6.117185116,-152.97727272727272,159.45454545454547,-965.1136363636364,-8059.090909090909,979.659090909091,1841.522727272728,8
2024-06-13 20:01:04,-1.064127207,0.08796459436,-0.2089159191,-6.361393929,-4.374206543,5.5042696,-77.26666666666667,205.51111111111112,-870.5555555555555,-8524.866666666667,389.73333333333335,1502.7333333333331,8
2024-06-13 20:01:04,-1.064127207,0.08796459436,-0.2089159191,-6.361393929,-4.374206543,5.5042696,-886.0697674418604,807.1860465116279,-1130.5116279069769,-8110.302325581395,56.604651162790695,1215.3488372093022,8
2024-06-13 20:01:04,-0.7745771408,0.3286454976,-0.5962044597,-5.762843609,-5.691017628,4.5370121,-1048.1304347826087,1095.7826086956522,-976.5217391304348,-8097.173913043478,-285.9130434782609,1350.695652173913,8
2024-06-13 20:01:04,-0.3274237812,0.4886921942,-0.6719517708,-5.650316238,-7.20654726,3.500322819,-792.156626506024,542.3373493975904,-91.4457831325301,-8259.650602409638,-233.44578313253007,1095.879518072289,8
2024-06-13 20:01:04,-0.3274237812,0.4886921942,-0.6719517708,-5.650316238,-7.20654726,3.500322819,20.551724137931046,-43.82758620689654,585.1494252873563,-8406.942528735632,-163.54022988505747,1151.0919540229886,8
2024-06-13 20:01:04,-0.232128799,0.6304129362,-0.6976081133,-5.008669853,-7.371747017,2.647987127,628.3870967741935,-203.1290322580645,314.3225806451613,-8296.258064516129,62.38709677419355,1305.7096774193549,8
2024-06-13 20:01:05,-0.232128799,0.6304129362,-0.6976081133,-5.008669853,-7.371747017,2.647987127,23.17441860465117,-277.69767441860466,40.30232558139535,-8231.593023255815,301.80232558139534,1229.2093023255811,8
2024-06-13 20:01:05,-0.1380555481,0.6145304441,-0.7611380816,-4.465186119,-8.149862289,2.542642117,-183.5652173913044,171.30434782608694,-23.30434782608696,-8224.347826086956,350.8260869565217,1165.1304347826087,8
2024-06-13 20:01:05,-0.05375614017,0.5326744914,-0.8124507666,-3.694253206,-9.169792175,1.424550056,-177.25,504.25,271.5,-8254.083333333334,190.16666666666663,1376.3333333333333,8
2024-06-13 20:01:05,-0.05375614017,0.5326744914,-0.8124507666,-3.694253206,-9.169792175,1.424550056,-172.327868852459,450.41530054644807,-206.4262295081967,-8231.688524590163,251.9453551912568,1295.0218579234972,8
2024-06-13 20:01:05,0.02076941915,0.4544837475,-0.5595525503,-2.770091295,-9.979032516,1.623268723,-188.72131147540983,571.1803278688525,-427.7377049180328,-8066.11475409836,249.2131147540984,1296.114754098361,8
2024-06-13 20:01:05,-0.004886921961,0.3237585723,-0.3543018401,-1.987187386,-9.909601212,1.283292055,-512.7777777777778,2487.641975308642,-1167.888888888889,-7825.419753086419,34.72839506172839,853.5925925925926,8
2024-06-13 20:01:05,-0.004886921961,0.3237585723,-0.3543018401,-1.987187386,-9.909601212,1.283292055,-160.3068181818182,2758.840909090909,-883.4772727272727,-8062.147727272727,-307.54545454545456,55.03409090909091,8
2024-06-13 20:01:05,0.00244346098,0.2565633953,-0.2504547536,-1.656787634,-9.923966408,1.132457376,-138.85393258426967,2603.7977528089887,-483.2696629213483,-8315.101123595505,-528.6966292134831,-339.85393258426967,8
2024-06-13 20:01:05,0.00244346098,0.2565633953,-0.2504547536,-1.656787634,-9.923966408,1.132457376,-527.2916666666666,1137.0069444444443,34.72916666666666,-8079.402777777777,-227.4583333333333,-1062.4097222222222,8
2024-06-13 20:01:05,-0.03298672289,0.1734857261,-0.1954768747,-1.314416766,-9.859322548,1.096544385,-302.4074074074074,196.25925925925927,404.5925925925926,-7925.518518518518,-279.7407407407408,-991.6296296296296,8
2024-06-13 20:01:06,0.05986479297,0.1380555481,0.05253441259,-1.728613615,-10.21845245,1.15161097,-32.17204301075269,310.89247311827955,283.68817204301075,-7888.698924731183,217.9784946236559,-959.6559139784946,8
2024-06-13 20:01:06,0.05986479297,0.1380555481,0.05253441259,-1.728613615,-10.21845245,1.15161097,-214.63636363636363,-102.27272727272728,-142.8181818181818,-7924.090909090909,-30.0,-1037.4545454545455,8
2024-06-13 20:01:06,-0.003665191587,0.109955743,-0.02076941915,-1.355118155,-9.737217903,0.9648633003,-340.17045454545456,567.2840909090909,-655.4090909090909,-8031.636363636364,-409.1363636363636,-1089.465909090909,8
2024-06-13 20:01:06,-0.02443460934,0.1087340117,-0.0171042271,-1.340752959,-10.09874249,1.367089152,-305.1333333333333,409.3333333333333,-229.86666666666667,-7904.6,-436.26666666666665,-1310.2,8
2024-06-13 20:01:06,-0.02443460934,0.1087340117,-0.0171042271,-1.340752959,-10.09874249,1.367089152,7.793103448275858,-289.86206896551727,429.44827586206895,-8227.689655172413,-351.62068965517244,-1375.0689655172414,8
2024-06-13 20:01:06,-0.0293215327,0.09773843735,-0.08307767659,-0.9241618514,-9.533711433,0.9481038451,900.8988764044944,-823.0112359550562,-67.14606741573033,-8215.651685393259,-233.46067415730337,-716.2134831460675,8
2024-06-13 20:01:06,-0.0293215327,0.09773843735,-0.08307767659,-0.9241618514,-9.533711433,0.9481038451,979.6703296703296,-859.6923076923076,-26.3956043956044,-8039.285714285715,-365.0769230769231,-730.1978021978022,8
2024-06-13 20:01:06,0.4654793143,0.1014036313,0.006108652335,-1.125274777,-9.751583099,0.8188169599,-193.44444444444449,109.83950617283948,122.33333333333334,-7989.074074074074,50.46913580246914,-628.604938271605,8
2024-06-13 20:01:06,0.228463605,0.2590068579,0.2040289938,0.06703764945,-9.18894577,0.2729389966,-560.0,576.3333333333334,212.66666666666663,-7881.333333333333,-85.66666666666666,-457.3333333333333,8
2024-06-13 20:01:06,0.228463605,0.2590068579,0.2040289938,0.06703764945,-9.18894577,0.2729389966,-238.79545454545456,597.3863636363636,60.06818181818181,-8204.75,53.81818181818181,-817.5681818181819,8
2024-06-13 20:01:07,1.164309144,-0.3567453027,0.8258898258,-3.670311213,-7.153874874,2.796427488,-432.7462686567165,482.7313432835821,-27.56716417910448,-8025.880597014925,61.92537313432835,-682.8805970149253,8
2024-06-13 20:01:07,0.00244346098,-1.48684597,-1.015258074,-1.884236693,-7.319074631,6.80192709,-266.5531914893617,237.0106382978724,364.25531914893617,-7916.521276595745,77.2872340425532,-1111.978723404255,8
2024-06-13 20:01:07,0.00244346098,-1.48684597,-1.015258074,-1.884236693,-7.319074631,6.80192709,327.2168674698795,338.9397590361445,160.04819277108433,-7839.012048192771,168.289156626506,-1344.3493975903614,8
2024-06-13 20:01:07,0.4471533597,-1.058018565,-1.681101203,3.138798475,-6.715735912,7.553706169,-35.0,-157.97752808988764,-33.17977528089888,-7995.011235955056,152.04494382022472,-1334.9662921348315,8
2024-06-13 20:01:07,0.4471533597,-1.058018565,-1.681101203,3.138798475,-6.715735912,7.553706169,-145.81395348837208,-391.3953488372093,74.97674418604652,-7886.953488372093,310.3488372093023,-1098.7906976744189,8
2024-06-13 20:01:07,0.0415388383,-0.1014036313,-0.5998696685,4.175487995,-8.987833023,7.706935406,-81.6701030927835,-641.2783505154639,-162.9484536082474,-7911.268041237114,190.08247422680407,-786.1443298969073,8
2024-06-13 20:01:07,-0.3567453027,0.009773843922,-0.09040805697,4.90811348,-6.191405773,4.912901878,138.07407407407408,-482.4074074074074,-835.7407407407408,-8039.296296296296,6.518518518518519,-502.2962962962963,8
2024-06-13 20:01:07,-0.3567453027,0.009773843922,-0.09040805697,4.90811348,-6.191405773,4.912901878,29.727272727272734,157.8181818181818,-303.27272727272725,-7871.363636363636,97.3181818181818,-485.8181818181818,8
2024-06-13 20:01:07,-0.05375614017,0.1979203373,0.7452555895,3.857059002,-9.054870605,6.416460514,-1223.534090909091,-9.25,-1484.0113636363635,-8241.181818181818,442.7840909090909,-708.2272727272727,8
2024-06-13 20:01:07,-0.2076941878,-0.05619960278,-0.2956587672,3.711012602,-7.290344238,5.990292549,-2333.3829787234044,-211.4042553191489,-1719.212765957447,-8274.808510638299,-257.6808510638298,-846.6808510638298,8
2024-06-13 20:01:08,-0.2076941878,-0.05619960278,-0.2956587672,3.711012602,-7.290344238,5.990292549,-837.7640449438202,-336.6966292134832,-2101.47191011236,-8015.269662921349,-1030.6629213483145,-454.23595505617976,8
2024-06-13 20:01:08,0.1050688252,0.0354301855,0.02076941915,3.632004023,-7.240066051,6.059724331,-1557.5675675675675,-16.324324324324323,-1941.027027027027,-7908.378378378378,-1032.2702702702702,-810.081081081081,8
2024-06-13 20:01:08,0.1050688252,0.0354301855,0.02076941915,3.632004023,-7.240066051,6.059724331,-1462.2972972972973,-244.02702702702703,-2082.9189189189187,-7919.864864864865,-1126.1891891891892,-810.7567567567568,8
2024-06-13 20:01:08,0.01588249579,-0.06475171447,-0.1050688252,3.780444384,-7.110779285,6.06211853,-670.875,-491.3125,-852.9375,-7965.3125,-2372.625,-413.5625,8
2024-06-13 20:01:08,-0.003665191587,0.02809980139,-0.01221730467,3.840299606,-7.101202011,6.078877926,-289.64864864864865,306.2432432432432,394.7702702702703,-7946.554054054054,-2158.1216216216217,-201.5540540540541,8
2024-06-13 20:01:08,-0.003665191587,0.02809980139,-0.01221730467,3.840299606,-7.101202011,6.078877926,73.95555555555558,1022.6888888888888,1136.4888888888888,-8010.6,-1953.7111111111112,-545.9777777777778,8
2024-06-13 20:01:08,-0.00244346098,-0.01832595654,-0.0415388383,3.833117008,-7.189787865,6.021417141,-737.3333333333334,538.0,1231.6666666666667,-7863.333333333333,-1071.6666666666667,-475.6666666666667,8
2024-06-13 20:01:08,-0.00122173049,-0.003665191587,-0.0232128799,3.876212597,-7.122750282,6.069301128,-692.8705882352941,41.08235294117645,226.9882352941177,-7920.4,-1069.2823529411764,-731.7294117647059,8
2024-06-13 20:01:08,-0.00122173049,-0.003665191587,-0.0232128799,3.876212597,-7.122750282,6.069301128,-220.35555555555555,59.66666666666667,-525.8,-7853.844444444445,-982.5333333333332,-651.4444444444445,8
2024-06-13 20:01:08,0.009773843922,-0.01221730467,-0.04031710699,3.890577793,-7.050923824,6.074089527,-53.16783216783216,91.12587412587412,-26.16083916083916,-7841.671328671328,-1242.5734265734266,-798.2307692307693,8
2024-06-13 20:01:09,0.009773843922,-0.01221730467,-0.04031710699,3.890577793,-7.050923824,6.074089527,6.057471264367813,32.48275862068965,603.8620689655172,-7872.735632183908,-925.0919540229884,-744.7701149425287,8
2024-06-13 20:01:09,0.004886921961,0.0109955743,0.009773843922,3.912125587,-7.084442616,6.050147533,256.62068965517244,63.22988505747127,82.5632183908046,-7860.172413793103,-1053.16091954023,-722.7241379310344,8
2024-06-13 20:01:09,0.00244346098,-0.00122173049,-0.02443460934,3.974374771,-7.065289021,6.06211853,-409.3478260869565,326.69565217391306,-78.21739130434783,-7837.478260869565,-1074.608695652174,-596.9565217391305,8
2024-06-13 20:01:09,0.00244346098,-0.00122173049,-0.02443460934,3.974374771,-7.065289021,6.06211853,-434.95454545454544,181.9886363636364,-91.20454545454544,-7866.318181818182,-950.318181818182,-865.7386363636364,8
2024-06-13 20:01:09,0.00122173049,0.00122173049,-0.009773843922,3.97916317,-7.050923824,6.057330132,-535.8139534883721,201.81395348837208,-19.86046511627908,-7853.232558139535,-941.3255813953488,-894.046511627907,8
2024-06-13 20:01:09,-0.003665191587,-0.003665191587,-0.01466076635,4.010287762,-7.06768322,6.071695328,-85.62790697674419,44.32558139534885,-327.6511627906977,-8211.348837209302,-976.4651162790698,-1062.813953488372,8
2024-06-13 20:01:09,-0.003665191587,-0.003665191587,-0.01466076635,4.010287762,-7.06768322,6.071695328,538.4588235294118,61.09411764705882,100.23529411764706,-7838.023529411765,-1065.2117647058824,-691.3176470588236,8
2024-06-13 20:01:09,-0.007330383174,0.0,-0.01221730467,4.005499363,-7.02937603,6.098031521,162.125,-59.43181818181819,107.22727272727272,-7970.136363636364,-1099.3636363636365,-723.6022727272727,8
2024-06-13 20:01:09,-0.007330383174,0.0,-0.01221730467,4.005499363,-7.02937603,6.098031521,-457.2921348314607,242.1011235955056,-147.2921348314607,-7847.842696629214,-935.6067415730336,-756.314606741573,8
2024-06-13 20:01:09,-0.008552113548,-0.00244346098,-0.007330383174,4.05577755,-7.070077419,6.045359135,-404.5,195.125,-167.375,-8166.375,-1305.0,-1039.375,8
2024-06-13 20:01:10,-0.007330383174,-0.0109955743,-0.00244346098,3.995922565,-7.043741226,6.047753334,155.63636363636363,-375.8636363636364,-353.04545454545456,-7904.227272727273,-1277.5,-1104.6818181818182,8
2024-06-13 20:01:10,-0.007330383174,-0.0109955743,-0.00244346098,3.995922565,-7.043741226,6.047753334,240.79310344827587,-377.8620689655172,-503.6551724137931,-8017.206896551724,-1064.9655172413793,-742.3793103448276,8
2024-06-13 20:01:10,-0.02443460934,-0.02199114859,-0.03298672289,4.125209332,-6.967126846,5.98550415,100.10344827586206,-264.0689655172414,-369.1724137931035,-7997.896551724138,-1321.5172413793102,-860.3103448275863,8
2024-06-13 20:01:10,-0.04764748737,-0.01832595654,-0.0354301855,4.165910721,-7.019799232,5.930437565,334.8048780487805,-287.9024390243902,266.6829268292683,-7863.1463414634145,-1248.9024390243903,-450.0,8
2024-06-13 20:01:10,-0.04764748737,-0.01832595654,-0.0354301855,4.165910721,-7.019799232,5.930437565,74.54545454545453,-66.3409090909091,313.1818181818182,-7876.443181818182,-1053.3863636363635,-542.7045454545455,8
2024-06-13 20:01:10,-0.0415388383,-0.003665191587,0.003665191587,4.254496574,-7.158663273,5.801150799,-94.20833333333331,287.9166666666667,134.625,-7832.465277777777,-979.3958333333334,-591.5347222222222,8
2024-06-13 20:01:10,-0.0415388383,-0.003665191587,0.003665191587,4.254496574,-7.158663273,5.801150799,-228.4074074074074,369.8888888888889,23.77777777777778,-7941.444444444444,-1251.8148148148148,-488.8518518518519,8
2024-06-13 20:01:10,-0.02809980139,0.00122173049,0.01221730467,4.225766182,-7.125144482,5.853823185,-298.5,129.0,373.0,-8041.0,-985.5,-861.0,8
2024-06-13 20:01:10,-0.004886921961,0.00244346098,0.0109955743,4.197035789,-7.139509678,5.784391403,-341.42528735632186,-26.804597701149422,554.7241379310345,-7911.701149425287,-1086.1379310344828,-653.9540229885057,8
2024-06-13 20:01:10,-0.004886921961,0.00244346098,0.0109955743,4.197035789,-7.139509678,5.784391403,-306.3333333333333,-54.977777777777774,188.77777777777777,-7909.588888888888,-735.8111111111111,-821.3888888888889,8
2024-06-13 20:01:11,-0.003665191587,0.01343903504,0.02199114859,4.175487995,-7.230489254,5.7963624,-209.81395348837208,-370.37209302325584,-409.0697674418605,-8264.46511627907,-828.7209302325582,-742.3488372093024,8
2024-06-13 20:01:11,-0.003665191587,0.01343903504,0.02199114859,4.156333923,-7.151480675,5.779603004,-234.0804597701149,-425.264367816092,263.51724137931035,-7841.609195402299,-1060.7931034482758,-803.2528735632184,8
2024-06-13 20:01:11,-0.008552113548,0.03665191308,0.04886921868,4.156333923,-7.151480675,5.779603004,221.370786516854,-446.0561797752809,84.19101123595505,-8253.573033707866,-1084.3820224719102,-598.370786516854,8
2024-06-13 20:01:11,-0.00244346098,0.0415388383,0.04886921868,4.062960148,-7.199364662,5.858611584,492.2421052631579,-460.66315789473686,43.82105263157895,-8264.115789473684,-1108.5157894736842,-521.6315789473684,8
2024-06-13 20:01:11,-0.00244346098,0.0415388383,0.04886921868,4.062960148,-7.199364662,5.858611584,21.071428571428584,-261.7142857142857,-414.3571428571429,-7832.214285714285,-818.1428571428571,57.71428571428572,8
2024-06-13 20:01:11,0.009773843922,0.01588249579,0.02687807009,3.883395195,-7.374141216,5.810727596,-999.0888888888888,273.46666666666664,-634.8222222222222,-7858.0,-1093.7777777777778,59.8,8
2024-06-13 20:01:11,0.04031710699,0.00122173049,0.006108652335,3.943250179,-7.343016624,5.820304394,-907.3617021276596,234.9095744680851,-543.0904255319149,-8062.473404255319,-1301.063829787234,-131.27659574468086,8
2024-06-13 20:01:11,0.02076941915,-0.007330383174,-0.009773843922,3.873818398,-7.264008045,5.896918774,-586.6492537313433,450.5746268656716,-68.0,-7835.820895522388,-1399.313432835821,-548.4402985074627,8
2024-06-13 20:01:11,0.01221730467,-0.04886921868,-0.06719517708,4.082113743,-7.180211067,5.841852188,-799.0113636363636,453.1590909090909,34.67045454545455,-7869.363636363636,-1334.8863636363635,-742.1136363636364,8
2024-06-13 20:01:12,0.01221730467,-0.04886921868,-0.06719517708,4.082113743,-7.180211067,5.841852188,-470.70786516853934,587.9101123595506,188.1348314606741,-7814.662921348315,-1377.808988764045,-1039.6067415730338,8
2024-06-13 20:01:12,0.1502728462,0.1050688252,0.07819075137,4.323928356,-7.472303391,6.10281992,-430.9255319148936,558.968085106383,191.0531914893617,-7853.13829787234,-1338.170212765957,-1092.106382978723,8
2024-06-13 20:01:12,0.1502728462,0.1050688252,0.07819075137,4.323928356,-7.472303391,6.10281992,281.9156626506024,-66.63855421686748,213.3734939759036,-7886.975903614458,-959.4819277108434,-1139.4939759036145,8
2024-06-13 20:01:12,0.5852088928,0.8038986921,0.5021312237,3.892971992,-6.993463039,7.151480675,365.6363636363636,-204.0,161.9090909090909,-7886.545454545455,-1084.4545454545455,-1141.8181818181818,8
2024-06-13 20:01:12,-1.297477722,1.341460109,0.9334021211,1.470039845,-7.201758862,6.756437302,-46.853932584269664,-22.056179775280896,52.21348314606742,-7883.573033707865,-721.9662921348314,-1081.1011235955057,8
2024-06-13 20:01:12,-1.297477722,1.341460109,0.9334021211,1.470039845,-7.201758862,6.756437302,-107.6741573033708,-282.19101123595505,-265.9438202247191,-7813.539325842697,-1058.6741573033707,-650.056179775281,8
2024-06-13 20:01:12,-1.467298269,1.020144939,1.087340117,-2.272097349,-8.66940403,3.857059002,84.46666666666667,50.13333333333333,99.06666666666666,-7844.2,-1075.0,-837.5333333333333,8
2024-06-13 20:01:12,-0.2785545588,0.1881465018,0.3787364662,-3.134010077,-7.386112213,1.355118155,-27.33333333333333,-38.42222222222222,31.111111111111114,-7891.444444444444,-968.0888888888888,-815.7777777777778,8
2024-06-13 20:01:12,-0.2785545588,0.1881465018,0.3787364662,-3.134010077,-7.386112213,1.355118155,-286.51724137931035,-145.08045977011494,-41.367816091954026,-7911.16091954023,-746.4137931034483,-451.8735632183908,8
2024-06-13 20:01:12,-0.3628539443,-0.2101376504,0.05986479297,-3.165134668,-7.704541206,2.334346771,34.42068965517241,-230.12413793103448,-299.64827586206894,-7862.620689655172,-1048.1172413793104,-465.7586206896552,8
2024-06-13 20:01:13,-0.3628539443,-0.2101376504,0.05986479297,-3.165134668,-7.704541206,2.334346771,70.28275862068966,34.70344827586206,-349.99310344827586,-7838.482758620689,-1064.6689655172413,-614.0344827586207,8
2024-06-13 20:01:13,-0.5937610269,-0.141720742,-0.2211332172,-1.946485996,-9.502586365,1.659181833,-224.16091954022988,349.58620689655174,-55.63218390804597,-8214.6091954023,-722.4942528735633,-832.1724137931035,8
2024-06-13 20:01:13,-0.2260201424,0.004886921961,-0.1246165112,-2.140416384,-10.0364933,0.5793967843,-258.2613636363636,-152.20454545454544,-383.5568181818182,-8229.852272727272,-1132.8068181818182,-815.9772727272727,8
2024-06-13 20:01:13,-0.2260201424,0.004886921961,-0.1246165112,-2.140416384,-10.0364933,0.5793967843,318.7555555555556,-338.7555555555556,-184.1888888888889,-7920.677777777778,-1293.8666666666668,-427.73333333333335,8
2024-06-13 20:01:13,-0.3433062732,-0.05619960278,0.01466076635,-2.11647439,-10.12029076,-0.0359130241,-17.989247311827956,68.47311827956989,-70.86021505376344,-7840.827956989247,-1147.4408602150538,-544.258064516129,8
2024-06-13 20:01:13,-0.3433062732,-0.05619960278,0.01466076635,-2.264914751,-9.641449928,-0.2801215947,-236.08988764044943,343.0561797752809,38.764044943820224,-8226.842696629214,-668.3932584269663,-594.5393258426966,8
2024-06-13 20:01:13,0.00244346098,-0.1392772794,-0.05131268129,-2.264914751,-9.641449928,-0.2801215947,-507.04761904761904,197.3809523809524,-1317.4761904761904,-7887.619047619048,-1034.3690476190477,-574.7738095238095,8
2024-06-13 20:01:13,0.07696902007,-0.2553416789,0.2150245607,-1.15161097,-9.701305389,0.3136404157,-661.7619047619048,250.67346938775512,-1235.2448979591836,-7854.448979591837,-1534.1700680272108,-603.9863945578231,8
2024-06-13 20:01:13,0.07696902007,-0.2553416789,0.2150245607,-1.15161097,-9.701305389,0.3136404157,-671.2857142857143,32.30612244897958,-1174.0204081632653,-7842.204081632653,-1441.65306122449,-607.3877551020408,8
2024-06-13 20:01:13,-0.3066543639,-0.2883284092,0.625526011,-2.444479942,-10.56082344,-0.08140286058,46.16470588235294,346.1411764705882,262.1294117647059,-7876.682352941177,-1448.4823529411765,-751.6,8
2024-06-13 20:01:14,0.5204572082,-0.712268889,1.08611846,-4.307168961,-9.311050415,1.41018486,-265.3,-428.3,34.200000000000045,-7857.2,-1810.9,-816.0,8
2024-06-13 20:01:14,0.5204572082,-0.712268889,1.08611846,-4.307168961,-9.311050415,1.41018486,351.2183908045977,-222.6896551724137,-757.551724137931,-7731.402298850575,-1992.735632183908,-562.8620689655172,8
2024-06-13 20:01:14,0.1905899495,-0.7538077235,1.038470864,-5.149928093,-7.455543995,2.274491549,32.25581395348843,-349.27906976744185,-649.2093023255813,-7930.488372093023,-1783.5116279069766,-424.5116279069768,8
2024-06-13 20:01:14,-0.1942551434,-0.5558874011,0.7977899909,-6.088454723,-6.993463039,3.043030262,-149.5,-245.5,-687.5,-7981.0,-2063.5,-411.0,8
2024-06-13 20:01:14,-0.1942551434,-0.5558874011,0.7977899909,-6.088454723,-6.993463039,3.043030262,-788.75,-1183.375,2294.5,-8381.875,-1600.25,-472.0,8
2024-06-13 20:01:14,0.1600466967,-0.4300491214,0.6352998614,-6.639121532,-6.256049156,3.713406801,-444.5842696629213,-1185.438202247191,758.8202247191011,-7740.337078651685,-878.4831460674158,366.0224719101124,8
2024-06-13 20:01:14,0.1600466967,-0.4300491214,0.6352998614,-6.639121532,-6.256049156,3.713406801,117.98863636363636,-503.77272727272725,-409.2840909090909,-8081.988636363636,-634.1590909090909,373.0,8
2024-06-13 20:01:14,0.4996877611,-0.17715092,0.5338962078,-6.825869083,-5.209783077,4.264073372,394.55555555555554,424.31111111111113,-801.5666666666666,-8280.722222222223,-562.6555555555556,344.3333333333333,8
2024-06-13 20:01:14,0.428827405,-0.006108652335,0.3970624208,-7.046135426,-4.675876141,4.38378334,-782.8571428571429,154.14285714285714,131.85714285714283,-8104.142857142857,-1277.0,326.0,8
2024-06-13 20:01:14,0.428827405,-0.006108652335,0.3970624208,-7.046135426,-4.675876141,4.38378334,227.97142857142856,206.3428571428572,445.2642857142857,-8286.842857142858,-1287.107142857143,322.0285714285714,8
2024-06-13 20:01:15,0.1441642046,-0.07696902007,0.2174680233,-7.261613846,-4.211400986,4.560954094,216.90243902439025,137.1707317073171,568.1219512195122,-8272.926829268292,-1188.0975609756097,300.7073170731707,8
2024-06-13 20:01:15,0.1441642046,-0.07696902007,0.2174680233,-7.343016624,-3.924096584,4.685452938,126.79310344827589,-5.425287356321839,396.6781609195402,-8209.540229885057,-848.0919540229885,-12.609195402298838,8
2024-06-13 20:01:15,0.1979203373,0.04520402849,0.04398229718,-7.630321026,-3.689464808,4.855441093,-333.5681818181818,141.5909090909091,-246.1590909090909,-8236.795454545454,-1138.9318181818182,-14.795454545454549,8
2024-06-13 20:01:15,0.1979203373,0.04520402849,0.04398229718,-7.630321026,-3.689464808,4.855441093,-284.3257575757576,137.04545454545453,7.628787878787875,-8234.522727272728,-1138.1742424242425,-212.52272727272728,8
2024-06-13 20:01:15,0.17715092,0.003665191587,0.05375614017,-7.536946774,-3.296815634,4.876988888,-375.2134831460674,156.06741573033707,258.2696629213483,-8043.595505617977,-732.7303370786517,-185.438202247191,8
2024-06-13 20:01:15,0.2089159191,0.00244346098,0.04886921868,-7.594407558,-3.327940464,5.042188644,-350.0113636363636,202.2840909090909,240.1590909090909,-8111.079545454545,-710.4659090909091,-530.5909090909091,8
2024-06-13 20:01:15,0.2089159191,0.00244346098,0.04886921868,-7.594407558,-3.327940464,5.042188644,-120.9438202247191,-211.6067415730337,146.30337078651684,-8082.820224719101,-714.0112359550562,-332.92134831460675,8
2024-06-13 20:01:15,0.1368338168,0.0,0.03665191308,-7.620744228,-3.110068083,5.018246651,106.49450549450547,-146.16483516483515,-76.28571428571428,-7898.054945054945,-747.5604395604396,-331.6703296703297,8
2024-06-13 20:01:15,0.1368338168,0.0,0.03665191308,-7.632715225,-2.82276392,5.111620426,-161.47058823529412,224.23529411764707,235.23529411764707,-8229.117647058823,-677.8235294117648,-335.5882352941176,8
2024-06-13 20:01:16,0.1685988009,0.009773843922,0.04642575979,-7.632715225,-2.82276392,5.111620426,-36.64130434782609,-218.8695652173913,-551.5217391304348,-8273.076086956522,-1070.108695652174,-367.35869565217394,8
2024-06-13 20:01:16,0.1747074574,0.00244346098,0.02565634064,-7.742848396,-2.887407303,5.142745018,50.20454545454545,1.9772727272727275,-94.1818181818182,-7915.988636363636,-1034.8863636363635,5.613636363636363,8
2024-06-13 20:01:16,0.1747074574,0.00244346098,0.02565634064,-7.742848396,-2.887407303,5.142745018,160.42528735632183,423.0,181.6896551724137,-7966.919540229885,-1009.9770114942528,-143.8735632183908,8
2024-06-13 20:01:16,0.196698606,0.007330383174,0.007330383174,-7.704541206,-2.549824715,5.226542473,108.21111111111112,463.1222222222222,240.82222222222225,-8210.622222222222,-748.2555555555556,-171.62222222222223,8
2024-06-13 20:01:16,0.1576032341,0.03176499158,0.01954768784,-7.620744228,-2.245761156,5.370194435,-63.85714285714286,189.3846153846154,209.3956043956044,-8260.912087912087,-855.1758241758241,-224.1428571428572,8
2024-06-13 20:01:16,0.1576032341,0.03176499158,0.01954768784,-7.620744228,-2.245761156,5.370194435,199.9090909090909,-74.36363636363636,852.0,-8223.818181818182,-778.9090909090909,-227.9090909090909,8
2024-06-13 20:01:16,0.07696902007,0.0171042271,0.01832595654,-7.649474621,-2.284068346,5.363011837,192.64429530201343,-41.355704697986575,1353.731543624161,-8228.261744966443,-361.44966442953023,-233.6845637583893,8
2024-06-13 20:01:16,0.1441642046,0.02199114859,0.01466076635,-7.771578789,-2.114080191,5.42765522,315.3536585365854,-83.78048780487805,986.329268292683,-8229.926829268292,-45.414634146341456,-228.890243902439,8
2024-06-13 20:01:16,0.06841690838,0.01343903504,0.008552113548,-7.773972988,-1.9321208,5.329493046,16.044943820224717,-108.62921348314606,777.8314606741574,-7900.550561797752,158.8314606741573,-269.8426966292135,8
2024-06-13 20:01:17,0.06841690838,0.01343903504,0.008552113548,-7.773972988,-1.9321208,5.329493046,-292.4662162162162,-62.16891891891892,812.0337837837837,-7914.993243243243,477.2972972972973,-408.96621621621625,8
2024-06-13 20:01:17,0.03176499158,0.01832595654,0.004886921961,-7.807491779,-1.989581585,5.327098846,-613.8314606741573,219.3483146067416,429.3033707865168,-8203.640449438202,857.2359550561798,-582.3370786516854,8
2024-06-13 20:01:17,0.01343903504,0.02443460934,0.00244346098,-7.790732384,-1.920149803,5.319916248,-743.175,172.7,-14.975,-8194.7875,890.9125,-401.1375,8
2024-06-13 20:01:17,0.01343903504,0.02443460934,0.00244346098,-7.790732384,-1.920149803,5.319916248,-405.4659090909091,268.03409090909093,-321.375,-8003.556818181818,822.1022727272727,-431.6590909090909,8
2024-06-13 20:01:17,0.03420845419,0.02076941915,0.00122173049,-7.812280178,-2.035071373,5.341464043,-295.2758620689655,-45.172413793103445,-163.72413793103448,-8073.3448275862065,817.7586206896551,-441.9655172413793,8
2024-06-13 20:01:17,0.01954768784,0.0232128799,-0.01221730467,-7.742848396,-1.81959331,5.310339451,-442.48936170212767,-79.40425531914893,3.606382978723417,-7913.31914893617,808.4042553191489,-419.468085106383,8
2024-06-13 20:01:17,0.01954768784,0.0232128799,-0.01221730467,-7.742848396,-1.81959331,5.310339451,-331.2117647058824,-49.52941176470589,118.30588235294118,-7921.423529411764,575.3411764705883,-554.5529411764705,8
2024-06-13 20:01:17,-0.0109955743,0.02199114859,-0.009773843922,-7.771578789,-1.922544003,5.228936672,-330.03370786516854,-67.12359550561797,62.60674157303371,-8147.426966292135,483.4157303370786,-634.6629213483146,8
2024-06-13 20:01:17,-0.0109955743,0.02199114859,-0.009773843922,-7.771578789,-1.922544003,5.228936672,-311.4269662921348,-80.32584269662921,-87.29213483146067,-7901.033707865168,798.5730337078652,-629.4943820224719,8
2024-06-13 20:01:17,0.0,0.02565634064,-0.004886921961,-7.785943985,-1.953668594,5.286397457,-202.3448275862069,-119.82758620689656,12.264367816091957,-7908.712643678161,825.080459770115,-623.1264367816092,8
2024-06-13 20:01:18,-0.01832595654,0.02565634064,-0.01343903504,-7.809885979,-2.00873518,5.31273365,-178.7157894736842,-102.6421052631579,35.0,-7883.263157894737,832.7368421052631,-632.6736842105263,8
2024-06-13 20:01:18,-0.01832595654,0.02565634064,-0.01343903504,-7.809885979,-2.00873518,5.31273365,-325.5121951219512,-75.14634146341463,-26.17073170731708,-7905.024390243902,840.4878048780488,-632.0,8
2024-06-13 20:01:18,-0.01588249579,0.0232128799,-0.02076941915,-7.88171196,-2.039859772,5.257667065,-324.5128205128205,-72.84615384615384,-285.3076923076923,-7910.615384615385,834.5128205128206,-631.5897435897435,8
2024-06-13 20:01:18,-0.01588249579,0.0232128799,-0.02076941915,-7.800309181,-2.063801765,5.106832027,-313.61538461538464,-78.61538461538461,-348.7692307692308,-7912.538461538462,823.6153846153846,-630.3076923076923,8
2024-06-13 20:01:18,-0.2040289938,0.05497787148,-0.03176499158,-7.800309181,-2.063801765,5.106832027,-84.75,-79.975,-168.65,-8057.5,421.875,-393.1,8
2024-06-13 20:01:18,-0.4141666293,0.003665191587,-0.05619960278,-7.836222172,-2.425326347,5.125985622,33.54545454545453,-88.68181818181819,-284.0909090909091,-7911.909090909091,625.8181818181819,-554.8636363636364,8
2024-06-13 20:01:18,-0.4141666293,0.003665191587,-0.05619960278,-7.836222172,-2.425326347,5.125985622,111.77272727272728,-68.3961038961039,-117.33116883116882,-7922.8441558441555,610.538961038961,-524.2012987012987,8
2024-06-13 20:01:18,-0.9236282706,0.04886921868,-0.1392772794,-7.812280178,-2.798821688,5.066130638,-32.40740740740742,-71.11111111111111,-88.62962962962962,-8111.37037037037,610.0,-546.1481481481482,8
2024-06-13 20:01:18,-0.5571091175,0.1783726513,-0.4642575979,-7.558494568,-3.428496838,4.5370121,6.629213483146067,-63.15730337078652,71.95505617977528,-7930.280898876404,418.3707865168539,-638.9550561797753,8
2024-06-13 20:01:18,-0.5571091175,0.1783726513,-0.4642575979,-7.558494568,-3.428496838,4.5370121,-314.8666666666667,-61.04444444444445,60.46666666666667,-7899.288888888889,422.4888888888889,-602.0444444444445,8
2024-06-13 20:01:19,-0.6670648456,0.3958406746,-0.8454375267,-7.194576263,-4.888959885,3.722983599,-19.232876712328768,-34.726027397260275,60.42465753424658,-7934.479452054795,610.9589041095891,-449.2328767123288,8
2024-06-13 20:01:19,-0.1942551434,0.5839871764,-0.9590584636,-6.39251852,-6.275202751,2.97599268,-324.5274725274725,-64.05494505494505,-91.46153846153844,-8208.076923076924,467.4725274725275,-457.912087912088,8
2024-06-13 20:01:19,-0.1942551434,0.5839871764,-0.9590584636,-6.39251852,-6.275202751,2.97599268,-346.70786516853934,-63.73033707865169,-338.4494382022472,-8220.191011235955,561.4494382022472,-459.123595505618,8
2024-06-13 20:01:19,0.2370157093,0.4153883755,-1.186300278,-5.628767967,-7.469909191,2.018311977,-1153.0,-351.48275862068965,-172.0344827586207,-8271.862068965518,482.0,-514.2758620689656,8
2024-06-13 20:01:19,0.2370157093,0.4153883755,-1.186300278,-5.628767967,-7.469909191,2.018311977,-1257.8351648351647,-525.8351648351648,-37.92307692307692,-7969.2307692307695,588.8571428571429,-540.7252747252747,8
2024-06-13 20:01:19,-0.1404990107,0.5436700583,-1.236391306,-4.27125597,-8.204929352,2.382230759,-1308.809523809524,14.61904761904762,-619.047619047619,-8198.952380952382,290.6190476190476,-148.14285714285714,8
2024-06-13 20:01:19,-0.01954768784,0.5216789246,-1.145983219,-2.693476915,-10.33337498,0.6464344859,-858.5,-90.3,-574.8,-7931.5,214.6,-142.4,8
2024-06-13 20:01:19,-0.01954768784,0.5216789246,-1.145983219,-2.693476915,-10.33337498,0.6464344859,-213.73548387096776,-61.9741935483871,-180.9870967741936,-8225.03870967742,343.0838709677419,-150.01290322580644,8
2024-06-13 20:01:19,-0.05986479297,0.2773328125,-0.4642575979,-1.455674648,-10.34295177,1.149216771,-187.283870967742,-59.39354838709677,-179.69677419354838,-8228.909677419355,351.4709677419355,-151.30322580645162,8
2024-06-13 20:01:19,-0.05986479297,0.2773328125,-0.4642575979,-1.197100878,-10.28309631,0.7038952708,-207.45977011494253,-60.27586206896552,-267.4712643678161,-8247.827586206897,326.2528735632184,-200.6436781609196,8
2024-06-13 20:01:20,0.008552113548,0.1246165112,-0.2052507252,-1.197100878,-10.28309631,0.7038952708,-257.0652173913044,86.45652173913044,-137.76086956521738,-8262.565217391304,316.3260869565217,-362.2934782608696,8
2024-06-13 20:01:20,0.248011291,0.09040805697,0.06719517708,-1.082179189,-9.339780807,1.00317049,-280.25786163522014,47.270440251572325,95.25786163522012,-8245.779874213837,372.7547169811321,-303.7358490566038,8
2024-06-13 20:01:20,0.248011291,0.09040805697,0.06719517708,-1.082179189,-9.339780807,1.00317049,-283.4025157232704,55.44654088050314,98.40251572327044,-8257.729559748428,374.6415094339623,-298.07547169811323,8
2024-06-13 20:01:20,-0.08918632567,0.05131268129,0.03420845419,-1.182735682,-10.07240677,1.110909581,-88.94736842105263,-60.26315789473685,-51.31578947368422,-8227.452631578948,222.5157894736842,39.85263157894737,8
2024-06-13 20:01:20,-0.1722639948,0.2748893499,0.01466076635,-1.347935557,-9.751583099,0.6775590777,-202.7906976744186,-80.26744186046511,-120.77906976744184,-8248.581395348838,156.56976744186048,64.11627906976744,8
2024-06-13 20:01:20,-0.1722639948,0.2748893499,0.01466076635,-1.347935557,-9.751583099,0.6775590777,-287.3488372093023,-47.73255813953489,78.95348837209302,-8253.837209302326,175.8372093023256,35.97674418604651,8
2024-06-13 20:01:20,0.3237585723,0.2052507252,0.05864306539,-0.9959878922,-9.390059471,0.7278373241,-327.9431818181818,-37.07954545454545,82.97727272727273,-8258.943181818182,150.9659090909091,-275.02272727272725,8
2024-06-13 20:01:20,0.3237585723,0.2052507252,0.05864306539,-0.6320692301,-10.25675964,-0.1795651317,-305.6666666666667,-45.0,75.46666666666667,-8259.866666666667,154.2,-283.46666666666664,8
2024-06-13 20:01:20,0.9297369123,0.1624901593,0.7098253965,-0.6320692301,-10.25675964,-0.1795651317,-310.14772727272725,-46.32954545454545,97.9090909090909,-8255.90909090909,166.48863636363637,-297.04545454545456,8
2024-06-13 20:01:20,0.9419541955,-0.4105014503,0.4984660447,-4.151545525,-8.805873871,2.15478158,-323.8695652173913,-61.0,-39.1304347826087,-8256.608695652174,179.1304347826087,-301.0,8
2024-06-13 20:01:21,0.9419541955,-0.4105014503,0.4984660447,-4.151545525,-8.805873871,2.15478158,-291.9294117647059,4.576470588235296,94.2235294117647,-8273.141176470588,176.16470588235293,-291.38823529411764,8
2024-06-13 20:01:21,0.9395107627,-0.9395107627,-0.4239404798,-4.153939724,-7.161057472,4.704606533,-85.92134831460675,-26.966292134831463,-108.4494382022472,-8235.14606741573,184.06741573033707,-270.4494382022472,8
2024-06-13 20:01:21,1.186300278,-0.8552113175,-0.7049384713,-1.493981838,-7.80509758,4.833893299,46.93103448275862,-116.24137931034484,-93.35632183908046,-8268.034482758621,235.632183908046,-174.39080459770116,8
2024-06-13 20:01:21,1.186300278,-0.8552113175,-0.7049384713,-1.493981838,-7.80509758,4.833893299,-216.30337078651684,58.21348314606741,-89.14606741573034,-8260.101123595505,218.92134831460675,-32.67415730337078,8
2024-06-13 20:01:21,1.040914416,-0.7269296646,-0.7208209634,1.089361787,-7.800309181,7.575253963,83.84931506849315,-18.86301369863014,-76.87671232876713,-8243.315068493152,193.8219178082192,36.86301369863014,8
2024-06-13 20:01:21,1.040914416,-0.7269296646,-0.7208209634,1.510741234,-6.84023428,7.80509758,196.47727272727272,305.75,86.89772727272727,-8261.181818181818,137.7840909090909,69.79545454545455,8
2024-06-13 20:01:21,0.8185594082,-0.3591887653,-0.3824016452,1.510741234,-6.84023428,7.80509758,1189.8461538461538,547.7472527472528,11.46153846153846,-7943.43956043956,776.8241758241758,-490.9230769230769,8
2024-06-13 20:01:21,-0.8820894361,-0.618195653,-0.4019493461,1.977610588,-7.12993288,6.385335922,755.2307692307693,537.3076923076923,-184.69230769230768,-8063.7692307692305,758.6923076923077,-298.61538461538464,8
2024-06-13 20:01:21,-0.8820894361,-0.618195653,-0.4019493461,1.977610588,-7.12993288,6.385335922,298.4172185430464,475.7615894039735,-315.04635761589407,-8151.17880794702,691.9602649006622,-190.8211920529801,8
2024-06-13 20:01:21,0.5913175344,-0.07330382615,-0.1148426682,3.043030262,-4.680664539,7.527369976,-210.1920529801324,294.9668874172186,-291.8675496688742,-8161.774834437086,511.8278145695364,-280.2251655629139,8
2024-06-13 20:01:22,-0.7550294399,0.1539380401,-0.1783726513,2.547430515,-8.396465302,5.803544998,-3.709497206703908,-292.2290502793296,-214.35195530726256,-8049.441340782123,247.4245810055866,-188.03351955307264,8
2024-06-13 20:01:22,-0.7550294399,0.1539380401,-0.1783726513,2.547430515,-8.396465302,5.803544998,-79.12849162011173,-334.68715083798884,-21.0558659217877,-7948.324022346369,260.2737430167598,-160.10055865921788,8
2024-06-13 20:01:22,-0.1087340117,-0.08063421398,-0.2186897546,3.526659012,-6.703764915,6.593631268,290.48837209302326,51.79069767441861,-203.4418604651163,-8109.6511627906975,328.0232558139535,-184.67441860465115,8
2024-06-13 20:01:22,-0.1087340117,-0.08063421398,-0.2186897546,3.155557871,-8.106766701,5.966350555,586.0674157303371,-326.39325842696627,-185.95505617977528,-8279.696629213484,279.2696629213483,-174.4943820224719,8
2024-06-13 20:01:22,-0.1661553532,0.0,-0.04764748737,3.155557871,-8.106766701,5.966350555,627.0,62.0,-431.0,-8082.0,13.0,-347.5,8
2024-06-13 20:01:22,-0.1136209369,-0.0354301855,-0.02443460934,3.253720045,-7.706935406,5.846640587,167.82758620689654,-0.3333333333333357,-169.51724137931035,-8280.724137931034,-0.8045977011494259,-306.86206896551727,8
2024-06-13 20:01:22,-0.1136209369,-0.0354301855,-0.02443460934,3.253720045,-7.706935406,5.846640587,223.5,31.51086956521739,-474.6630434782609,-8252.804347826086,-364.7065217391304,-50.0,8
2024-06-13 20:01:22,-0.07696902007,-0.006108652335,-0.007330383174,3.502717018,-7.893682957,5.686229229,321.47058823529414,-81.84705882352941,-231.27058823529413,-8256.64705882353,-189.9882352941177,51.67058823529412,8
2024-06-13 20:01:22,-0.3323107064,0.08796459436,0.1087340117,3.347094059,-7.711723804,5.518634796,-110.13483146067416,-63.32584269662921,55.68539325842697,-8235.696629213484,-220.06741573033707,55.2247191011236,8
2024-06-13 20:01:22,-0.3323107064,0.08796459436,0.1087340117,3.347094059,-7.711723804,5.518634796,92.82758620689656,283.3793103448276,59.41379310344828,-8282.413793103447,-184.5862068965517,5.241379310344827,8
2024-06-13 20:01:23,-0.1954768747,0.08429940045,0.07819075137,3.040636063,-8.128314972,5.228936672,-228.3483146067416,45.4494382022472,35.359550561797754,-8313.202247191011,-186.3033707865169,-281.7865168539326,8
2024-06-13 20:01:23,-0.1954768747,0.08429940045,0.07819075137,3.088520288,-8.228871346,5.166687489,228.6190476190476,-119.33333333333334,-50.523809523809526,-8263.047619047618,-427.2380952380952,36.47619047619048,8
2024-06-13 20:01:23,0.0,-0.0232128799,-0.05009094998,3.088520288,-8.228871346,5.166687489,313.8,-113.4,-57.8,-8107.0,69.8,-307.4,8
2024-06-13 20:01:23,0.01588249579,0.04520402849,0.04031710699,3.177105665,-8.135497093,5.231330872,-616.4666666666667,-73.92222222222222,543.5777777777778,-8255.066666666668,-200.9111111111111,78.12222222222222,8
2024-06-13 20:01:23,0.01588249579,0.04520402849,0.04031710699,3.177105665,-8.135497093,5.231330872,100.82183908045975,328.82758620689657,578.6149425287356,-8264.235632183909,75.77011494252874,47.99425287356322,8
2024-06-13 20:01:23,-0.0171042271,0.01466076635,0.00122173049,2.806004286,-8.145073891,5.202600479,55.41954022988506,97.79310344827589,315.9712643678161,-8153.316091954023,1.0574712643678197,33.62643678160919,8
2024-06-13 20:01:23,0.02199114859,-0.00122173049,-0.00244346098,3.165134668,-8.195352554,5.188235283,-406.1411764705882,-8.588235294117645,-287.4,-8246.894117647058,-70.67058823529412,36.117647058823536,8
2024-06-13 20:01:23,0.02199114859,-0.00122173049,-0.00244346098,3.165134668,-8.195352554,5.188235283,-213.23595505617976,-107.03370786516854,-213.17977528089887,-8269.685393258427,-96.15730337078652,111.47191011235957,8
2024-06-13 20:01:23,0.08307767659,-0.00244346098,-0.02443460934,2.868253708,-8.07324791,5.248090267,-417.37209302325584,146.3953488372093,-208.93023255813952,-8232.348837209302,-292.6744186046512,66.48837209302326,8
2024-06-13 20:01:23,-0.3408628106,0.06230825558,-0.01954768784,3.41892004,-8.796297073,5.264849663,-516.8202247191011,282.6966292134832,-314.1348314606741,-8283.730337078652,-353.1123595505618,32.067415730337075,8
2024-06-13 20:01:24,-0.3408628106,0.06230825558,-0.01954768784,3.41892004,-8.796297073,5.264849663,-212.06976744186045,344.2325581395349,-198.0813953488372,-8283.406976744185,-363.0116279069768,-268.01162790697674,8
2024-06-13 20:01:24,-0.05986479297,-0.009773843922,0.1136209369,2.992752075,-8.130708694,5.343858242,-506.6363636363636,326.34090909090907,-225.47727272727272,-8265.227272727272,-373.25,-283.79545454545456,8
2024-06-13 20:01:24,-0.05986479297,-0.009773843922,0.1136209369,2.992752075,-8.130708694,5.343858242,-587.0674157303371,264.7303370786517,-235.6292134831461,-8306.932584269663,-191.19101123595505,-315.0674157303371,8
2024-06-13 20:01:24,0.05009094998,-0.0171042271,-0.09773843735,3.526659012,-7.92001915,5.35104084,-243.67741935483872,50.763440860215056,-176.4193548387097,-8289.881720430107,-233.63440860215053,-317.3010752688172,8
2024-06-13 20:01:24,0.02443460934,0.0354301855,-0.08552113175,2.966415882,-8.070854187,5.193023682,-523.2068965517242,38.44827586206897,-582.448275862069,-8231.413793103447,-271.48275862068965,-306.4482758620689,8
2024-06-13 20:01:24,0.02443460934,0.0354301855,-0.08552113175,2.966415882,-8.070854187,5.193023682,-669.2790697674419,306.16279069767444,-499.8837209302326,-8263.093023255815,-542.1162790697674,-346.8372093023256,8
2024-06-13 20:01:24,0.05864306539,-0.1331686229,-0.1343903542,3.612850428,-7.594407558,5.54257679,-680.5416666666666,123.0,-635.5,-8178.083333333333,-439.2916666666667,-366.375,8
2024-06-13 20:01:24,0.003665191587,-0.003665191587,-0.05375614017,3.763684988,-7.788338184,5.13556242,-830.5510204081633,-194.9795918367347,-787.2857142857143,-8249.102040816326,-860.8571428571429,-339.53061224489795,8
2024-06-13 20:01:24,0.003665191587,-0.003665191587,-0.05375614017,3.763684988,-7.788338184,5.13556242,-825.1088435374149,-203.8231292517007,-796.8095238095239,-8238.21768707483,-856.0952380952381,-342.93197278911566,8
2024-06-13 20:01:24,0.04764748737,-0.00122173049,0.01221730467,3.423708439,-7.817068577,5.257667065,-432.4652406417112,-6.930481283422459,-663.9732620320856,-8233.657754010695,-862.8502673796792,-97.42245989304811,8
2024-06-13 20:01:25,0.04764748737,-0.00122173049,0.01221730467,3.423708439,-7.817068577,5.257667065,-424.4438502673797,-90.88770053475936,-488.572192513369,-8208.524064171123,-1020.6042780748664,-248.75935828877004,8
2024-06-13 20:01:25,-0.1356120855,0.1026253626,0.08552113175,3.224989653,-8.377311707,5.125985622,-1748.319587628866,-329.70103092783506,-570.9278350515464,-8222.422680412372,-1069.9690721649486,-258.2680412371134,8
2024-06-13 20:01:25,-0.1356120855,0.1026253626,0.08552113175,3.224989653,-8.377311707,5.125985622,-726.5,-47.16666666666666,-297.0,-8150.666666666667,-1526.1666666666667,1.833333333333336,8
2024-06-13 20:01:25,0.04520402849,-0.02199114859,0.02687807009,3.325546265,-7.948749542,5.386953831,-302.2758620689655,42.0,-162.68965517241378,-8023.6551724137935,-1256.655172413793,-286.58620689655174,8
2024-06-13 20:01:25,0.04520402849,-0.02199114859,0.02687807009,3.153163671,-8.111555099,5.245696068,-266.3076923076923,466.7692307692308,131.94505494505495,-7851.219780219781,-871.8901098901099,-192.7032967032967,8
2024-06-13 20:01:25,0.01466076635,0.03665191308,0.05742133409,3.153163671,-8.111555099,5.245696068,-748.1666666666666,816.2777777777778,132.27777777777777,-7868.222222222223,-793.3888888888889,-349.6111111111111,8
2024-06-13 20:01:25,0.01221730467,0.0,-0.003665191587,3.217807055,-8.027758598,5.252878666,-1196.5,776.8333333333334,442.8333333333333,-7862.666666666667,-956.1666666666666,-556.8333333333333,8
2024-06-13 20:01:25,0.01221730467,0.0,-0.003665191587,3.217807055,-8.027758598,5.252878666,-284.7887323943662,-252.6197183098592,-355.61971830985914,-8273.901408450703,-1445.8732394366198,-600.4788732394367,8
2024-06-13 20:01:25,0.009773843922,0.00244346098,-0.009773843922,3.368641853,-7.946355343,5.264849663,310.5568181818182,246.2159090909091,524.8181818181818,-7840.056818181818,-1298.4545454545455,-430.0568181818182,8
2024-06-13 20:01:26,-0.09285151958,0.04398229718,0.1820378453,3.34469986,-8.166622162,5.329493046,987.7402597402596,378.6753246753247,581.7012987012987,-7655.623376623376,-1357.5194805194806,-451.012987012987,8
2024-06-13 20:01:26,-0.09285151958,0.04398229718,0.1820378453,3.34469986,-8.166622162,5.329493046,264.5925925925926,-456.2962962962963,589.9506172839506,-8155.975308641975,-447.1234567901234,-446.9259259259259,8
2024-06-13 20:01:26,0.17715092,0.5033529401,0.4630358517,3.277662039,-9.220070839,5.856217384,315.48837209302326,-727.6046511627907,8.348837209302332,-7924.209302325581,-917.279069767442,-226.74418604651163,8
2024-06-13 20:01:26,0.17715092,0.5033529401,0.4630358517,1.335964561,-8.35097599,5.717353821,824.3023255813954,-316.9651162790698,-760.5813953488372,-7966.686046511628,-949.453488372093,57.56976744186046,8
2024-06-13 20:01:26,-0.1759291887,0.9431759119,1.112996459,1.335964561,-8.35097599,5.717353821,751.1304347826087,-71.54347826086956,177.69565217391306,-8005.065217391304,-1134.3260869565215,58.34782608695652,8
2024-06-13 20:01:26,-1.717753053,1.047023058,1.483180761,-2.365471363,-9.50976944,3.435679436,118.78770949720668,-78.26256983240224,-56.162011173184354,-7999.72625698324,-819.6648044692738,-260.1787709497207,8
2024-06-13 20:01:26,-1.717753053,1.047023058,1.483180761,-2.365471363,-9.50976944,3.435679436,-282.468085106383,-75.7872340425532,38.95744680851064,-7862.936170212766,-1092.021276595745,-174.70212765957447,8
2024-06-13 20:01:26,-0.6646214128,0.6352998614,0.7232644558,-3.780444384,-8.142680168,1.498770237,-170.992,401.112,-158.608,-8133.88,-1135.312,-294.088,8
2024-06-13 20:01:26,0.07941248268,0.2015855312,-0.3530801237,-3.016694069,-8.959102631,0.4668693244,-333.1086956521739,224.73913043478265,-807.0652173913044,-7866.782608695652,-1174.608695652174,-520.1739130434783,8
2024-06-13 20:01:26,0.07941248268,0.2015855312,-0.3530801237,-3.016694069,-8.959102631,0.4668693244,-189.63636363636363,-22.238636363636363,-258.20454545454544,-8206.102272727272,-1542.0227272727273,-396.8863636363636,8
2024-06-13 20:01:27,0.2467895597,0.003665191587,-0.3371976018,-2.755726099,-9.141061783,0.9911994934,-150.71428571428572,17.714285714285715,178.85714285714286,-8166.142857142857,-1522.2857142857142,-388.8571428571428,8
2024-06-13 20:01:27,0.2467895597,0.003665191587,-0.3371976018,-2.573766708,-10.11789608,1.407790542,-123.37777777777778,266.1333333333333,744.4666666666667,-7885.955555555555,-1392.977777777778,-437.1555555555556,8
2024-06-13 20:01:27,0.0720821023,-0.04642575979,-0.1747074574,-2.573766708,-10.11789608,1.407790542,106.82022471910112,99.42696629213484,478.5280898876405,-8232.08988764045,-1241.0898876404494,-568.7078651685393,8
2024-06-13 20:01:27,-0.09285151958,0.00244346098,-0.2272418737,-2.334346771,-9.454702377,1.314416766,363.2258064516129,-116.9784946236559,98.3225806451613,-7923.860215053764,-1085.967741935484,-549.5483870967741,8
2024-06-13 20:01:27,-0.09285151958,0.00244346098,-0.2272418737,-2.334346771,-9.454702377,1.314416766,169.45454545454547,-128.27272727272728,-65.63636363636363,-7921.363636363636,-1079.5454545454545,-372.5454545454545,8
2024-06-13 20:01:27,-0.4178318381,-0.03054326214,-0.3042109013,-2.217030764,-9.421183586,1.197100878,32.18181818181818,-106.22727272727272,212.3181818181818,-8185.0,-1050.909090909091,-191.63636363636363,8
2024-06-13 20:01:27,0.1551597714,-0.1148426682,-0.2919935882,-1.158793569,-9.708487511,0.6129156351,-135.29545454545453,-310.7840909090909,351.7613636363636,-7955.272727272727,-1104.9886363636365,-321.02272727272725,8
2024-06-13 20:01:27,0.1551597714,-0.1148426682,-0.2919935882,-1.158793569,-9.708487511,0.6129156351,165.4318181818182,76.125,314.9886363636364,-7868.954545454545,-1102.9204545454545,-290.3181818181818,8
2024-06-13 20:01:27,-0.09285151958,-0.04520402849,-0.06597344577,-0.7038952708,-10.23042393,0.0,511.3212121212121,355.0121212121212,387.4,-8280.757575757576,-664.4969696969697,-335.4,8
2024-06-13 20:01:27,-0.0109955743,-0.08307767659,-0.0232128799,-1.139639974,-9.9526968,0.248996973,677.3818181818182,355.6181818181818,507.4,-8268.636363636364,-789.3454545454546,-355.4,8
2024-06-13 20:01:28,-0.0109955743,-0.08307767659,-0.0232128799,-1.139639974,-9.9526968,0.248996973,318.54761904761904,61.70238095238095,-283.7261904761905,-8255.285714285714,-857.3571428571429,-374.7380952380952,8
2024-06-13 20:01:28,-0.04764748737,-0.02687807009,0.01466076635,-1.015141487,-9.832986832,0.6105214357,290.2613636363636,-117.4659090909091,280.9090909090909,-8213.113636363636,-866.6477272727273,-328.9431818181818,8
2024-06-13 20:01:28,-0.04764748737,-0.02687807009,0.01466076635,-1.015141487,-9.832986832,0.6105214357,166.01342281879195,-53.31543624161074,149.36912751677852,-8219.597315436242,-864.2684563758389,-335.9463087248322,8
2024-06-13 20:01:28,-0.01466076635,0.02809980139,0.008552113548,-0.9121908545,-10.25197124,0.4668693244,-64.18791946308727,106.41610738255034,168.83221476510067,-8225.637583892618,-860.2416107382551,-356.751677852349,8
2024-06-13 20:01:28,0.4728097022,0.03420845419,0.1197295859,-1.458068848,-10.37886429,0.3734954596,26.275862068965523,11.517241379310343,617.6206896551724,-8237.931034482759,-200.82758620689657,-334.13793103448273,8
2024-06-13 20:01:28,0.4728097022,0.03420845419,0.1197295859,-1.458068848,-10.37886429,0.3734954596,-295.3370786516854,-33.50561797752809,612.4157303370787,-8212.191011235955,-310.370786516854,-329.0,8
2024-06-13 20:01:28,-0.01343903504,0.04520402849,0.02199114859,-1.11569798,-9.382876396,1.55862534,-325.4157303370787,-53.82022471910112,450.6629213483146,-8220.23595505618,31.76404494382024,-359.1348314606741,8
2024-06-13 20:01:28,-0.01343903504,0.04520402849,0.02199114859,-1.458068848,-9.734824181,0.720654726,339.79545454545456,24.420454545454547,220.3181818181818,-8290.204545454546,275.3068181818182,13.284090909090908,8
2024-06-13 20:01:28,-0.5791002512,0.02443460934,-0.03909537569,-1.458068848,-9.734824181,0.720654726,-340.8181818181818,104.22727272727272,-384.1818181818182,-8213.272727272728,197.22727272727272,40.95454545454545,8
2024-06-13 20:01:28,0.125838235,-0.1404990107,0.1869247705,-0.6847416759,-10.09874249,0.3782838583,-1672.6309523809523,331.3095238095238,-1375.4761904761904,-8222.190476190477,-349.67857142857144,-348.7857142857143,8
2024-06-13 20:01:29,0.125838235,-0.1404990107,0.1869247705,-0.6847416759,-10.09874249,0.3782838583,-868.6511627906976,-25.08139534883721,-478.6162790697674,-8080.941860465116,-458.9302325581396,-357.27906976744185,8
2024-06-13 20:01:29,-0.1722639948,-0.1075122803,0.3750712574,-1.242590666,-9.672574997,0.7086837292,-484.8777777777778,-61.18888888888889,-109.97777777777776,-8296.7,-492.0111111111111,-312.3333333333333,8
2024-06-13 20:01:29,-0.1710422635,-0.1673770845,0.3909537494,-2.372653961,-9.907206535,-0.4022258818,-553.8390804597701,119.82758620689654,-156.94252873563218,-8062.425287356322,-564.7471264367816,-338.9080459770115,8
2024-06-13 20:01:29,-0.1710422635,-0.1673770845,0.3909537494,-2.372653961,-9.907206535,-0.4022258818,-287.0224719101124,-72.08988764044943,-139.25842696629215,-8035.022471910112,-311.1685393258427,-310.3707865168539,8
2024-06-13 20:01:29,0.08429940045,-0.25167647,0.3054326177,-3.078943491,-9.746794701,0.6105214357,-266.52,-54.24,-510.08,-8239.84,-525.36,-266.0,8
2024-06-13 20:01:29,0.3506366611,-0.2651155293,0.3652974069,-4.13239193,-9.720458984,0.8786720037,-769.6666666666667,358.6666666666667,-714.0,-7993.333333333333,-785.3333333333333,-236.66666666666663,8
2024-06-13 20:01:29,0.3506366611,-0.2651155293,0.3652974069,-4.13239193,-9.720458984,0.8786720037,-584.2666666666667,610.9555555555555,1111.6,-8172.822222222222,-629.1777777777778,-173.06666666666666,8
2024-06-13 20:01:29,0.2895501256,-0.287106663,0.5510004759,-4.352658749,-9.332598686,1.541865945,494.44444444444446,-289.6666666666667,388.6666666666667,-7913.444444444444,221.0,-333.8888888888889,8
2024-06-13 20:01:29,0.2895501256,-0.287106663,0.5510004759,-4.352658749,-9.332598686,1.541865945,-629.3488372093024,315.4767441860465,-728.8953488372093,-7845.174418604651,-31.51162790697674,-396.6627906976744,8
2024-06-13 20:01:29,0.4117231667,-0.4019493461,0.5534439087,-4.616020679,-8.221688271,1.778891921,-617.0568181818182,388.4090909090909,-861.7386363636364,-8232.261363636364,-773.7045454545455,-555.3068181818182,8
2024-06-13 20:01:30,-0.00122173049,-0.3237585723,0.5619960427,-5.185841084,-7.608773232,2.250549555,-15.032258064516128,-55.54838709677419,-709.0322580645161,-8277.806451612903,-704.8709677419355,-621.9032258064516,8
2024-06-13 20:01:30,-0.00122173049,-0.3237585723,0.5619960427,-5.185841084,-7.608773232,2.250549555,49.83529411764706,-155.95294117647057,-308.54117647058825,-8250.95294117647,-457.8,-422.9764705882353,8
2024-06-13 20:01:30,0.1490511149,-0.2602286041,0.719599247,-5.966350555,-7.687781811,2.882618904,-302.47777777777776,-428.55555555555554,-399.8444444444444,-8025.444444444444,-727.9555555555555,-346.6,8
2024-06-13 20:01:30,0.1490511149,-0.2602286041,0.719599247,-6.730101109,-6.552929878,2.846705914,34.604651162790695,-32.720930232558146,-324.6162790697674,-8137.232558139535,-839.2558139534883,-161.77906976744185,8
2024-06-13 20:01:30,0.1490511149,-0.07941248268,0.7990117669,-6.730101109,-6.552929878,2.846705914,-365.0,-20.11111111111111,3.555555555555543,-8220.333333333334,-810.1111111111111,-179.11111111111111,8
2024-06-13 20:01:30,0.3995058835,-0.1441642046,0.6951646209,-6.976703644,-4.989516258,3.79241538,-320.0,1.5,-47.5,-8224.5,-671.0,-137.5,8
2024-06-13 20:01:30,0.3995058835,-0.1441642046,0.6951646209,-6.976703644,-4.989516258,3.79241538,-208.6829268292683,-17.085365853658537,-288.6341463414634,-8217.817073170732,-393.4390243902439,-156.58536585365854,8
2024-06-13 20:01:30,-0.07819075137,-0.2296853364,0.4752531648,-7.623138428,-4.740519524,3.943250179,-193.28235294117647,-284.2,-1048.4,-8127.341176470588,-825.7294117647059,-550.0941176470589,8
2024-06-13 20:01:30,0.2150245607,-0.1502728462,0.4178318381,-7.841010571,-4.13239193,4.237737179,-864.5777777777778,-433.1555555555556,-1401.9333333333334,-8043.777777777777,-1072.4,-200.62222222222223,8
2024-06-13 20:01:30,0.2150245607,-0.1502728462,0.4178318381,-7.841010571,-4.13239193,4.237737179,-500.370786516854,575.5280898876405,-770.056179775281,-8022.4157303370785,-1438.3932584269662,-360.7415730337078,8
2024-06-13 20:01:31,0.2541199327,-0.1624901593,0.4214970171,-7.702147007,-3.179499865,4.393360138,-189.0434782608696,752.0434782608695,-241.0652173913044,-8031.945652173913,-1399.8804347826087,-500.0652173913044,8
2024-06-13 20:01:31,0.2541199327,-0.1624901593,0.4214970171,-7.752425194,-2.583343744,4.814739704,-202.4883720930233,-226.93023255813955,509.4651162790698,-8266.883720930233,-1316.3953488372092,-620.0232558139535,8
2024-06-13 20:01:31,0.1942551434,-0.1478293836,0.2528982162,-7.752425194,-2.583343744,4.814739704,101.2,-359.1294117647059,-6.28235294117647,-8147.988235294118,-1317.035294117647,-297.3176470588235,8
2024-06-13 20:01:31,0.196698606,-0.05864306539,0.109955743,-7.738059998,-2.051830769,5.104437828,244.26136363636363,-299.0,-307.25,-7877.272727272727,-1335.3636363636365,-350.64772727272725,8
2024-06-13 20:01:31,0.1942551434,-0.04520402849,0.05131268129,-7.953537941,-1.987187386,5.305551052,58.87878787878788,358.72727272727275,369.75757575757575,-7906.606060606061,-1180.939393939394,-163.45454545454544,8
2024-06-13 20:01:31,0.2333505303,0.01832595654,0.1233947799,-7.970297337,-1.802833915,5.248090267,849.7272727272727,167.5568181818182,1275.9772727272727,-7931.375,-1315.965909090909,-317.5340909090909,8
2024-06-13 20:01:31,0.2333505303,0.01832595654,0.1233947799,-7.970297337,-1.802833915,5.248090267,666.8089887640449,-267.123595505618,1499.6067415730338,-8021.078651685393,-743.8539325842696,-541.6179775280899,8
2024-06-13 20:01:31,0.2944370508,-0.006108652335,0.06841690838,-7.99423933,-1.37666595,5.384559631,690.7472527472528,-20.51648351648352,1566.7032967032967,-7920.549450549451,-393.1868131868132,-252.1978021978022,8
2024-06-13 20:01:31,0.1795943826,0.009773843922,0.06108652428,-7.939172745,-1.261744261,5.475539207,772.635294117647,135.7058823529412,1312.7058823529412,-8105.317647058823,-134.8470588235294,-361.3882352941176,8
2024-06-13 20:01:32,0.1795943826,0.009773843922,0.06108652428,-7.939172745,-1.261744261,5.475539207,306.8636363636364,322.9090909090909,1066.3977272727273,-8220.556818181818,179.2159090909091,-232.2159090909091,8
2024-06-13 20:01:32,0.2064724565,-0.01954768784,0.04276056588,-7.982268333,-0.9696516991,5.499481201,334.1818181818182,165.54545454545456,1085.090909090909,-7922.0,576.5454545454545,-475.3636363636364,8
2024-06-13 20:01:32,0.2064724565,-0.01954768784,0.04276056588,-7.982268333,-0.9696516991,5.499481201,-92.34426229508196,212.85245901639345,776.4590163934427,-8075.737704918033,642.7213114754098,-561.8196721311475,8
2024-06-13 20:01:32,0.1307251602,0.05497787148,0.03176499158,-7.869740963,-0.6368576288,5.451597214,-122.39890710382514,223.7814207650273,872.0874316939891,-7921.092896174863,826.327868852459,-582.5846994535519,8
2024-06-13 20:01:32,0.1050688252,0.03176499158,0.03665191308,-8.068459511,-0.7565677166,5.451597214,-542.5909090909091,371.3636363636364,412.6136363636364,-7870.068181818182,923.8863636363636,-460.54545454545456,8
2024-06-13 20:01:32,0.1050688252,0.03176499158,0.03665191308,-8.068459511,-0.7565677166,5.451597214,-604.8636363636364,328.04545454545456,813.3409090909091,-7816.715909090909,1059.215909090909,-480.7272727272728,8
2024-06-13 20:01:32,0.1172861308,0.01221730467,0.008552113548,-7.95832634,-0.538695395,5.346252441,-437.6966292134831,358.7977528089888,451.46067415730334,-7898.471910112359,1384.8426966292134,-810.7078651685393,8
2024-06-13 20:01:32,0.1050688252,0.01954768784,0.01466076635,-7.939172745,-0.3950432837,5.391742229,-197.27272727272728,687.9090909090909,583.1818181818182,-8019.636363636364,1323.090909090909,-862.9090909090909,8
2024-06-13 20:01:32,0.1050688252,0.01954768784,0.01466076635,-7.939172745,-0.3950432837,5.391742229,-352.3793103448276,657.2068965517242,564.2068965517242,-8005.482758620689,1343.0,-720.4137931034483,8
2024-06-13 20:01:32,0.08429940045,0.0109955743,0.01343903504,-7.951143742,-0.181959331,5.255272865,-150.55704697986576,255.4697986577181,202.91946308724832,-7958.859060402685,1519.2281879194632,-923.6912751677852,8
2024-06-13 20:01:33,0.08429940045,0.0109955743,0.01343903504,-7.951143742,-0.181959331,5.255272865,-336.7857142857143,332.82142857142856,-28.92857142857143,-7652.571428571428,1864.0357142857144,-1063.928571428571,8
2024-06-13 20:01:33,-0.03665191308,0.02565634064,-0.03665191308,-7.898471355,-0.4333505034,5.319916248,105.89411764705882,287.1764705882353,-75.18823529411765,-7654.694117647059,1832.070588235294,-1106.4470588235297,8
2024-06-13 20:01:33,-0.3310889602,0.03176499158,-0.1111774743,-7.927201748,-0.3088520169,5.264849663,10.0,195.5,194.75,-7619.0,1832.75,-1124.0,8
2024-06-13 20:01:33,-0.3310889602,0.03176499158,-0.1111774743,-7.927201748,-0.3088520169,5.264849663,17.993243243243242,184.7567567567568,-74.18243243243244,-7602.966216216216,1862.9324324324325,-1147.3445945945946,8
2024-06-13 20:01:33,-1.061683774,0.06841690838,-0.4789183438,-7.65186882,-0.6775590777,5.35343504,-122.19753086419752,115.79012345679013,-47.45679012345679,-7675.765432098766,1820.3456790123453,-923.8641975308642,8
2024-06-13 20:01:33,-0.9505063295,0.2406809032,-0.9236282706,-7.702147007,-3.445256233,4.781220913,-303.8089887640449,50.8876404494382,-267.0112359550562,-7744.38202247191,1885.9550561797755,-1089.8539325842696,8
2024-06-13 20:01:33,-0.9505063295,0.2406809032,-0.9236282706,-7.702147007,-3.445256233,4.781220913,202.0,-82.27272727272727,-446.27272727272725,-7888.545454545455,1796.5454545454545,-958.6363636363636,8
2024-06-13 20:01:33,-0.1722639948,0.3310889602,-1.087340117,-7.144298077,-5.015852451,4.077325344,-207.45454545454544,27.5,-365.8295454545455,-7823.784090909091,1813.7613636363635,-795.9772727272727,8
2024-06-13 20:01:33,-0.1722639948,0.3310889602,-1.087340117,-7.144298077,-5.015852451,4.077325344,31.93103448275862,57.41379310344828,-58.48275862068965,-7688.517241379311,1548.1379310344828,-1068.2413793103449,8
2024-06-13 20:01:33,-0.00122173049,0.2785545588,-1.319468975,-6.24168396,-6.622362137,3.406949043,-63.32584269662921,-16.539325842696627,-242.85393258426967,-7884.865168539326,1809.1011235955057,-1030.9325842696628,8
2024-06-13 20:01:34,0.1197295859,0.5045747161,-1.153313637,-5.128379822,-7.931990147,3.186682463,-32.63636363636364,74.9090909090909,-292.6363636363636,-8023.363636363636,1807.1818181818185,-939.9090909090908,8
2024-06-13 20:01:34,0.06597344577,0.2968805134,-1.141096234,-4.072536945,-8.820239067,2.949656487,-824.625,-555.125,-274.75,-8054.25,1554.125,-751.875,8
2024-06-13 20:01:34,-0.09040805697,0.2272418737,-1.026253581,-2.49236393,-9.495404243,3.107673883,-1323.3333333333333,-722.4222222222222,-298.6666666666667,-8013.133333333333,1801.0666666666666,-696.2888888888889,8
2024-06-13 20:01:34,-0.09040805697,0.2272418737,-1.026253581,-2.49236393,-9.495404243,3.107673883,-819.2608695652174,-452.2173913043478,-405.60869565217394,-7724.173913043478,1313.0434782608695,-201.8695652173913,8
2024-06-13 20:01:34,0.04031710699,0.2040289938,-0.6792821288,-1.158793569,-10.16099167,2.86107111,-655.9068322981366,-213.70807453416148,-429.2111801242236,-7896.223602484472,1302.4844720496894,-190.6894409937888,8
2024-06-13 20:01:34,0.04031710699,0.2040289938,-0.6792821288,-1.158793569,-10.16099167,2.86107111,-107.0,-339.1818181818182,-425.54545454545456,-7857.727272727273,1261.7272727272727,-181.1818181818182,8
2024-06-13 20:01:34,0.0293215327,0.1710422635,-0.2345722616,-1.089361787,-10.02931118,2.760514498,-48.29213483146067,-292.5730337078652,-462.46067415730334,-7876.966292134832,1082.8202247191011,-312.9438202247191,8
2024-06-13 20:01:34,0.0720821023,0.05131268129,0.009773843922,-0.8762778044,-9.287108421,2.432508945,-200.75,44.09090909090909,-462.9318181818182,-7883.045454545455,933.1590909090908,-136.5909090909091,8
2024-06-13 20:01:34,0.0720821023,0.05131268129,0.009773843922,-0.8762778044,-9.287108421,2.432508945,-152.62130177514794,-106.89349112426036,-411.7455621301775,-7925.751479289941,899.3905325443786,-376.7100591715976,8
2024-06-13 20:01:35,-0.05131268129,0.06719517708,0.02687807009,-0.8451532125,-9.35654068,2.940079689,-305.5280898876405,18.34831460674157,-186.3820224719101,-7917.853932584269,655.8539325842696,-378.9325842696629,8
2024-06-13 20:01:35,-0.09285151958,0.06963863969,-0.0232128799,-1.015141487,-9.536105156,2.640804529,-113.13333333333334,297.6333333333333,-482.1222222222222,-7925.022222222222,893.2888888888889,-351.0,8
2024-06-13 20:01:35,-0.09285151958,0.06963863969,-0.0232128799,-1.015141487,-9.536105156,2.640804529,-100.1046511627907,206.2674418604651,-190.7093023255814,-8205.220930232557,730.4186046511628,-327.8255813953488,8
2024-06-13 20:01:35,-0.2736676335,0.1185078546,0.00122173049,-0.7422025204,-10.21366405,2.296039343,296.0731707317073,183.6219512195122,-144.1707317073171,-8226.353658536585,430.2926829268293,-192.85365853658536,8
2024-06-13 20:01:35,-0.2736676335,0.1185078546,0.00122173049,-0.7422025204,-10.21366405,2.296039343,551.2553191489362,69.53191489361703,22.02127659574468,-8230.446808510638,593.7446808510638,-548.9148936170213,8
2024-06-13 20:01:35,0.1918116808,0.2199114859,0.2125810981,-0.3327940404,-10.09634876,1.620874524,316.3033707865169,63.7752808988764,135.3370786516854,-8210.213483146068,844.1123595505618,-577.5842696629213,8
2024-06-13 20:01:35,0.7929030657,-0.1441642046,1.233947754,-2.106897593,-9.411606789,1.630451322,-123.8901098901099,-31.978021978021985,363.74725274725273,-7901.296703296703,672.1978021978022,-560.8241758241759,8
2024-06-13 20:01:35,0.7929030657,-0.1441642046,1.233947754,-2.106897593,-9.411606789,1.630451322,-158.64044943820224,-74.30337078651685,95.53932584269664,-8134.314606741573,703.3258426966293,-546.2247191011236,8
2024-06-13 20:01:35,1.367116451,-1.194852471,0.7721336484,-3.143586874,-5.983109951,3.138798475,-65.54545454545455,115.27272727272728,-25.727272727272748,-7922.818181818182,675.1818181818181,-556.6363636363636,8
2024-06-13 20:01:35,0.1661553532,-1.183856845,-0.3213151097,-2.288856745,-5.46596241,6.672640324,-109.23595505617978,-104.76404494382022,119.80898876404494,-7929.977528089887,674.7640449438202,-520.8426966292135,8
2024-06-13 20:01:36,0.1661553532,-1.183856845,-0.3213151097,-2.288856745,-5.46596241,6.672640324,81.18181818181819,102.0909090909091,46.72727272727273,-8170.0,857.1363636363636,-239.54545454545453,8
2024-06-13 20:01:36,-0.2748893499,-0.7611380816,-1.299921274,0.02633621916,-7.491456985,8.106766701,-18.417582417582423,102.93406593406591,22.85714285714285,-7996.318681318681,843.7472527472528,-241.4175824175824,8
2024-06-13 20:01:36,-0.2748893499,-0.7611380816,-1.299921274,0.02633621916,-7.491456985,8.106766701,-292.0382165605096,99.828025477707,30.980891719745223,-8160.503184713376,860.1528662420383,-521.3630573248407,8
2024-06-13 20:01:36,-0.538783133,-0.8246681094,-1.452637553,2.073378563,-7.991845131,8.846575737,-336.62420382165607,99.19108280254775,8.687898089171973,-7980.885350318471,738.4968152866243,-544.9299363057324,8
2024-06-13 20:01:36,-0.68539083,-0.1698205322,-0.7318165898,4.642356873,-8.394071579,5.98789835,-961.6704545454544,-362.1136363636364,-1079.4545454545455,-8201.306818181818,661.7386363636364,-293.29545454545456,8
2024-06-13 20:01:36,-0.68539083,-0.1698205322,-0.7318165898,4.642356873,-8.394071579,5.98789835,-732.6363636363636,-311.3181818181818,-799.5,-8228.272727272728,322.59090909090907,-82.5909090909091,8
2024-06-13 20:01:36,0.02809980139,-0.03176499158,-0.1160643995,4.240131378,-7.872135162,5.640739441,-119.48765432098764,76.54320987654322,-230.1172839506173,-8225.654320987655,341.6111111111111,-122.27777777777776,8
2024-06-13 20:01:36,-0.00122173049,0.0720821023,0.1857030392,4.680664539,-7.855375767,5.288791656,-77.0,115.0,-286.5,-8263.5,262.5,-282.5,8
2024-06-13 20:01:36,-0.00122173049,0.0720821023,0.1857030392,4.680664539,-7.855375767,5.288791656,-304.0,108.5111111111111,-517.3777777777777,-8299.511111111111,-6.333333333333333,-259.7333333333333,8
2024-06-13 20:01:36,0.125838235,0.05986479297,0.1295034289,3.876212597,-7.479485989,5.226542473,-304.3956043956044,88.31868131868131,-156.94505494505495,-8276.681318681318,-18.89010989010989,18.63736263736264,8
2024-06-13 20:01:37,0.125838235,0.05986479297,0.1295034289,3.876212597,-7.479485989,5.226542473,-205.4883720930233,117.25581395348836,66.30232558139535,-8268.790697674418,287.30232558139534,55.25581395348837,8
2024-06-13 20:01:37,-0.03420845419,0.009773843922,0.004886921961,3.811569214,-6.438008308,5.181052685,-82.2127659574468,50.51063829787235,73.97872340425532,-8265.95744680851,307.2340425531915,56.93617021276596,8
2024-06-13 20:01:37,-0.6035348773,0.1661553532,-0.196698606,3.892971992,-9.03571701,4.699818134,6.305882352941176,-66.90588235294118,-107.89411764705883,-8260.929411764706,309.8705882352941,53.64705882352941,8
2024-06-13 20:01:37,-0.6035348773,0.1661553532,-0.196698606,3.892971992,-9.03571701,4.699818134,43.98876404494382,-58.19101123595506,-345.86516853932585,-8254.685393258427,264.5056179775281,35.19101123595506,8
2024-06-13 20:01:37,-0.2211332172,-0.006108652335,-0.1209513173,4.168305397,-7.888894558,5.149928093,24.49438202247191,-95.07865168539324,-142.13483146067415,-8278.550561797752,-67.66292134831461,11.764044943820224,8
2024-06-13 20:01:37,-0.1087340117,0.003665191587,0.05131268129,4.295197964,-8.056488991,4.486733913,14.204545454545457,-82.38636363636363,-354.65909090909093,-8271.795454545454,67.9090909090909,16.81818181818182,8
2024-06-13 20:01:37,-0.1087340117,0.003665191587,0.05131268129,4.295197964,-8.056488991,4.486733913,-240.8,-73.6,-312.9,-8290.7,101.9,12.9,8
2024-06-13 20:01:37,-0.1368338168,-0.1270599663,-0.2590068579,4.663905144,-7.711723804,4.683058739,-331.3707865168539,-109.98876404494382,4.247191011235955,-8274.292134831461,81.48314606741573,18.35955056179776,8
2024-06-13 20:01:37,-0.1368338168,-0.1270599663,-0.2590068579,4.663905144,-7.711723804,4.683058739,-114.11111111111111,24.22222222222222,-303.1111111111111,-8259.277777777777,75.61111111111111,77.0,8
2024-06-13 20:01:37,-0.09773843735,-0.0109955743,-0.006108652335,4.654327869,-7.910442352,4.09169054,-115.34567901234568,37.80246913580247,-315.4567901234568,-8273.475308641975,-39.82098765432099,77.0,8
2024-06-13 20:01:38,-0.09896016866,-0.1136209369,-0.07452555746,4.903325081,-8.166622162,4.187458992,-209.123595505618,19.39325842696629,-245.31460674157304,-8255.977528089888,-331.5280898876405,-98.26966292134831,8
2024-06-13 20:01:38,-0.09896016866,-0.1136209369,-0.07452555746,4.903325081,-8.166622162,4.187458992,31.07692307692308,-110.46153846153844,-124.76923076923076,-8086.384615384615,-374.61538461538464,-86.84615384615384,8
2024-06-13 20:01:38,-0.1832595766,0.1246165112,0.2602286041,4.515464306,-8.47786808,3.895366192,461.5977011494253,-400.0114942528736,-222.2528735632184,-8244.28735632184,43.96551724137931,98.29885057471265,8
2024-06-13 20:01:38,0.03787364438,0.02076941915,-0.1136209369,4.656722069,-8.410830498,4.316745758,-259.75,204.4090909090909,-476.9318181818182,-8288.113636363636,-101.1818181818182,-40.90909090909091,8
2024-06-13 20:01:38,0.03787364438,0.02076941915,-0.1136209369,4.656722069,-8.410830498,4.316745758,-544.3333333333333,44.71111111111111,-516.6,-8286.58888888889,-368.8444444444444,218.48888888888888,8
2024-06-13 20:01:38,-0.1197295859,0.08185594529,0.1246165112,4.659116745,-7.972691536,4.007893562,8.627906976744185,-19.46511627906976,276.5348837209302,-8088.418604651163,-280.4418604651163,279.4418604651163,8
2024-06-13 20:01:38,-0.1197295859,0.08185594529,0.1246165112,4.659116745,-7.972691536,4.007893562,44.83157894736842,272.7473684210526,367.10526315789474,-8283.052631578947,-235.44210526315788,258.69473684210527,8
2024-06-13 20:01:38,-0.06108652428,0.00122173049,-0.1111774743,4.75249052,-8.003816605,3.948038578,-276.6629213483146,230.438202247191,-19.146067415730336,-8294.168539325843,-167.30337078651684,-78.88764044943821,8
2024-06-13 20:01:38,-0.004886921961,0.05619960278,0.1123992056,4.764461517,-7.623138428,4.201824188,4.478260869565218,-20.41304347826087,282.4130434782609,-8285.152173913044,-331.67391304347825,-94.80434782608695,8
2024-06-13 20:01:38,-0.004886921961,0.05619960278,0.1123992056,4.764461517,-7.623138428,4.201824188,38.14285714285714,572.7142857142857,483.7857142857143,-8243.380952380952,-316.1190476190476,-110.23809523809524,8
2024-06-13 20:01:39,0.06230825558,0.01588249579,-0.08429940045,4.635174274,-7.663839817,4.19464159,13.056179775280896,434.4494382022472,545.3370786516854,-8275.247191011236,-210.0337078651685,-26.1685393258427,8
2024-06-13 20:01:39,0.0354301855,0.04031710699,0.0,4.65193367,-7.714118004,4.237737179,-605.9277108433735,132.2289156626506,478.6927710843373,-8264.5421686747,60.16867469879519,41.86144578313253,8
2024-06-13 20:01:39,0.0354301855,0.04031710699,0.0,4.65193367,-7.714118004,4.237737179,-599.9036144578313,134.63855421686748,478.0903614457831,-8259.722891566265,240.89156626506025,21.98192771084337,8
2024-06-13 20:01:39,-0.03176499158,-0.009773843922,0.1368338168,4.65193367,-8.025363922,4.141968727,-324.8735632183908,190.95402298850576,403.0,-8250.045977011494,573.9655172413793,-184.48275862068965,8
2024-06-13 20:01:39,-0.03176499158,-0.009773843922,0.1368338168,4.65193367,-8.025363922,4.141968727,-246.7032967032967,347.86813186813185,587.7472527472528,-8235.78021978022,485.0769230769231,-187.7142857142857,8
2024-06-13 20:01:39,0.1233947799,0.04520402849,0.09407325089,4.601655483,-8.341399193,4.426878929,-170.8409090909091,309.15909090909093,312.09090909090907,-8210.34090909091,846.6363636363636,-519.0227272727273,8
2024-06-13 20:01:39,0.1233947799,0.04520402849,0.09407325089,4.601655483,-8.341399193,4.426878929,-302.0253164556962,217.2278481012658,283.65822784810126,-8204.54430379747,692.0379746835443,-541.2151898734177,8
2024-06-13 20:01:39,-0.02076941915,0.0354301855,-0.03054326214,4.556165695,-7.855375767,4.352658749,-287.7717391304348,-27.836956521739133,155.95652173913044,-8200.20652173913,712.5869565217391,-550.8695652173913,8
2024-06-13 20:01:39,0.0109955743,0.06352998316,0.05375614017,4.635174274,-7.845798969,4.570530891,-197.4418604651163,-108.65116279069768,-98.44186046511628,-7913.162790697675,707.9767441860465,-539.4883720930233,8
2024-06-13 20:01:40,0.0109955743,0.06352998316,0.05375614017,4.635174274,-7.845798969,4.570530891,-41.046511627906966,-120.27906976744184,-117.04651162790698,-7916.069767441861,725.4186046511628,-523.2093023255813,8
2024-06-13 20:01:40,0.2296853364,0.1172861308,-0.08429940045,4.922478676,-7.390900612,4.975151062,-282.7111111111111,25.855555555555554,76.32222222222222,-7928.066666666667,720.9,-254.7111111111111,8
2024-06-13 20:01:40,0.2296853364,0.1172861308,-0.08429940045,4.922478676,-7.390900612,4.975151062,-57.98837209302326,100.23255813953487,124.34883720930232,-7917.220930232558,705.7790697674419,-225.32558139534885,8
2024-06-13 20:01:40,-0.06352998316,0.05619960278,-0.008552113548,3.921702385,-7.931990147,4.503493309,-256.25,117.58333333333331,-113.75,-7950.25,751.9166666666666,-218.5833333333333,8
2024-06-13 20:01:40,-0.06719517708,0.04886921868,0.06719517708,4.369418144,-7.723694801,4.855441093,-366.8131868131868,122.73626373626374,99.50549450549453,-8195.868131868132,751.3076923076923,-196.5604395604396,8
2024-06-13 20:01:40,-0.06719517708,0.04886921868,0.06719517708,4.369418144,-7.723694801,4.855441093,-112.183908045977,14.71264367816092,-86.49425287356323,-7905.770114942528,762.8850574712644,-176.7816091954023,8
2024-06-13 20:01:40,0.0,-0.01466076635,-0.08063421398,4.247313976,-7.55131197,4.735731125,-71.47191011235955,-271.24719101123594,-198.41573033707863,-7930.247191011236,730.3595505617977,-191.56179775280896,8
2024-06-13 20:01:40,0.1649336219,-0.1441642046,-0.1356120855,4.563348293,-7.704541206,4.929661274,100.46666666666668,9.022222222222222,-333.5777777777778,-8016.977777777778,672.1555555555556,-370.1333333333333,8
2024-06-13 20:01:40,0.1649336219,-0.1441642046,-0.1356120855,4.563348293,-7.704541206,4.929661274,100.0,118.79775280898878,-353.23595505617976,-7924.38202247191,881.4719101123595,-268.75280898876406,8
2024-06-13 20:01:40,0.4532620013,0.2223549485,0.4972442985,4.86741209,-9.390059471,5.494692802,-206.6136363636364,170.77272727272728,-25.13636363636364,-8213.022727272728,777.3181818181818,-148.3409090909091,8
2024-06-13 20:01:41,0.4532620013,0.2223549485,0.4972442985,4.86741209,-9.390059471,5.494692802,-345.6179775280899,299.8988764044944,92.80898876404494,-8016.775280898876,731.3595505617977,-200.93258426966293,8
2024-06-13 20:01:41,-2.179567099,1.571145415,1.808161139,2.315192938,-9.756371498,5.98789835,-273.27659574468083,341.8936170212766,-58.46808510638297,-7932.063829787234,653.6382978723404,-443.0851063829787,8
2024-06-13 20:01:41,-0.05253441259,1.170417786,1.385442376,-2.284068346,-7.999027729,4.316745758,-196.3023255813953,288.5581395348837,-118.32558139534883,-8177.883720930233,649.2790697674419,-538.4883720930233,8
2024-06-13 20:01:41,-0.05253441259,1.170417786,1.385442376,-2.284068346,-7.999027729,4.316745758,-350.8383233532934,-42.08383233532934,-99.7245508982036,-7928.005988023952,643.0898203592815,-547.0898203592815,8
2024-06-13 20:01:41,-0.008552113548,0.6536257863,-0.1563815027,-2.140416384,-8.28633213,2.422932148,6.114942528735632,109.41379310344828,60.71264367816092,-8178.586206896552,662.7011494252873,-519.6551724137931,8
2024-06-13 20:01:41,-0.7562511563,-0.1282816976,-0.3335324228,-1.489193439,-10.0460701,0.4860229492,50.97752808988764,109.85393258426966,83.30337078651685,-7916.213483146067,656.9213483146067,-244.7865168539326,8
2024-06-13 20:01:41,-0.7562511563,-0.1282816976,-0.3335324228,-1.489193439,-10.0460701,0.4860229492,103.65116279069768,-117.5813953488372,1.662790697674419,-7926.0,669.6162790697674,-235.65116279069767,8
2024-06-13 20:01:41,0.04398229718,-0.01343903504,-0.2382374406,-1.106121182,-9.658209801,1.355118155,96.02352941176471,-57.8,40.188235294117646,-7907.976470588235,668.9882352941177,-237.49411764705883,8
2024-06-13 20:01:41,0.04398229718,-0.01343903504,-0.2382374406,-1.106121182,-9.658209801,1.355118155,91.31764705882352,-47.8,52.54117647058824,-7912.682352941177,671.3411764705883,-238.6705882352941,8
2024-06-13 20:01:41,-0.3567453027,-0.03665191308,-0.06719517708,-1.666364431,-11.03966427,-0.02633621916,85.66666666666667,82.33333333333333,88.66666666666667,-8022.0,684.3333333333334,-241.0,8
2024-06-13 20:01:42,-0.4495968223,-0.2235766798,0.3946189582,-1.479616642,-10.94389629,0.2609679997,-72.92222222222222,93.22222222222224,36.08888888888889,-7919.644444444444,655.9111111111112,-199.8777777777778,8
2024-06-13 20:01:42,-0.4495968223,-0.2235766798,0.3946189582,-1.479616642,-10.94389629,0.2609679997,-127.125,-106.92045454545456,-257.07954545454544,-7921.397727272727,667.0,-216.3636363636364,8
2024-06-13 20:01:42,0.05009094998,-0.389732033,0.9199630618,-1.78368032,-9.418789864,0.1915361285,95.11111111111111,-129.04444444444445,52.8,-8192.955555555556,648.7555555555556,-218.0222222222222,8
2024-06-13 20:01:42,-0.3090978265,-0.6120869517,0.48014009,-2.846705914,-7.99663353,0.5985504389,64.875,-265.5,-18.5,-7964.25,851.625,-174.375,8
2024-06-13 20:01:42,-0.3090978265,-0.6120869517,0.48014009,-2.846705914,-7.99663353,0.5985504389,-367.2758620689655,47.62068965517241,123.06896551724138,-8215.103448275862,710.2068965517242,-221.6551724137931,8
2024-06-13 20:01:42,-0.483805269,-0.4361577928,0.03420845419,-4.039018154,-9.064447403,0.3878606856,-265.35555555555555,-333.8888888888889,516.5777777777778,-7882.466666666666,1030.5777777777778,-357.46666666666664,8
2024-06-13 20:01:42,-0.483805269,-0.4361577928,0.03420845419,-4.039018154,-9.064447403,0.3878606856,-131.0,138.58426966292134,279.2584269662921,-7876.314606741573,1089.7752808988764,-351.2696629213483,8
2024-06-13 20:01:42,-0.4190535545,-0.2553416789,0.1539380401,-4.340687752,-9.469067574,0.3112462163,367.6590909090909,526.3181818181819,-525.8522727272727,-8100.909090909091,1111.3295454545455,-157.4318181818182,8
2024-06-13 20:01:42,0.4361577928,-0.669508338,0.25167647,-4.932055473,-9.940725327,0.605733037,87.97777777777779,166.04444444444445,-155.84444444444443,-8212.444444444445,1039.9333333333334,-234.04444444444445,8
2024-06-13 20:01:42,0.4361577928,-0.669508338,0.25167647,-4.932055473,-9.940725327,0.605733037,-178.29032258064518,-433.9569892473118,-432.8064516129032,-8296.978494623656,790.9247311827957,-308.741935483871,8
2024-06-13 20:01:43,0.2492330223,-0.6279694438,0.4886921942,-4.548983097,-8.161833763,1.45088625,106.64117647058823,-246.2764705882353,-543.8823529411765,-7749.041176470589,709.6705882352941,-168.4,8
2024-06-13 20:01:43,0.1869247705,-0.5693264008,0.6023131609,-5.363011837,-8.051700592,1.853112102,-168.14606741573033,9.235955056179776,-509.2584269662921,-8079.044943820225,784.5393258426966,-539.2584269662922,8
2024-06-13 20:01:43,0.1869247705,-0.5693264008,0.6023131609,-5.363011837,-8.051700592,1.853112102,-162.4494382022472,312.7415730337079,-284.5056179775281,-7881.258426966292,542.7078651685393,-211.08988764044943,8
2024-06-13 20:01:43,0.1514945775,-0.5497786999,0.7000515461,-5.844246387,-7.627926826,3.098097086,73.31818181818181,-16.75,-762.6590909090909,-8220.363636363636,193.42045454545456,-276.3181818181818,8
2024-06-13 20:01:43,0.1514945775,-0.5497786999,0.7000515461,-5.844246387,-7.627926826,3.098097086,-39.53571428571429,-22.57142857142857,-426.4285714285714,-8258.089285714286,232.1071428571429,-467.4107142857143,8
2024-06-13 20:01:43,0.25167647,-0.4300491214,0.632856369,-6.124367714,-6.586448669,3.428496838,-316.9166666666667,-294.0,-455.0,-8243.208333333334,180.91666666666669,-298.95833333333337,8
2024-06-13 20:01:43,0.381179899,-0.2638937831,0.389732033,-6.497863293,-5.46596241,4.106055737,-320.88235294117646,-423.3882352941176,-566.1058823529412,-8042.105882352941,-38.91764705882352,-56.78823529411764,8
2024-06-13 20:01:43,0.381179899,-0.2638937831,0.389732033,-6.497863293,-5.46596241,4.106055737,101.38202247191012,-223.61797752808988,-2066.449438202247,-8274.887640449439,-359.1685393258427,-98.92134831460676,8
2024-06-13 20:01:43,0.05009094998,-0.2443460971,0.1368338168,-6.540958881,-5.176264286,4.71657753,-235.2134831460674,-597.438202247191,-1476.191011235955,-8096.033707865168,-715.629213483146,243.2921348314607,8
2024-06-13 20:01:43,0.1502728462,-0.1685988009,0.05497787148,-6.39491272,-4.958391666,5.202600479,-1024.1555555555556,-98.35555555555555,-1357.4,-8228.755555555555,-1966.2222222222224,450.9555555555555,8
2024-06-13 20:01:44,0.1502728462,-0.1685988009,0.05497787148,-6.39491272,-4.958391666,5.202600479,1071.483870967742,798.5483870967741,-3065.064516129032,-7865.064516129032,-1826.741935483871,274.93548387096774,8
2024-06-13 20:01:44,0.2895501256,-0.008552113548,0.08918632567,-6.418854713,-5.006275654,5.219359875,1163.867469879518,728.0120481927711,335.9156626506024,-8288.578313253012,-1740.2409638554218,-291.66265060240966,8
2024-06-13 20:01:44,0.2895501256,-0.008552113548,0.08918632567,-6.418854713,-5.006275654,5.219359875,198.9890109890109,-17.032967032967033,837.1648351648352,-8174.153846153846,-1305.5054945054944,-202.3736263736264,8
2024-06-13 20:01:44,0.4923573732,0.03420845419,0.03420845419,-6.749254704,-4.663905144,5.418078423,347.0,92.29113924050633,1036.392405063291,-7865.987341772152,-1213.73417721519,-376.2278481012658,8
2024-06-13 20:01:44,0.6279694438,0.03420845419,0.0232128799,-6.856993675,-3.778050184,5.810727596,-106.86363636363636,73.18181818181819,432.0681818181818,-8232.84090909091,-709.0681818181819,-154.5909090909091,8
2024-06-13 20:01:44,0.6279694438,0.03420845419,0.0232128799,-6.856993675,-3.778050184,5.810727596,-926.9096385542168,-364.2650602409639,533.777108433735,-8152.204819277108,-824.2048192771084,-171.7831325301205,8
2024-06-13 20:01:44,0.3371976018,-0.006108652335,0.04886921868,-6.727706909,-3.38061285,5.817910194,-1344.379518072289,-519.6867469879518,523.5361445783133,-8185.939759036145,-857.9397590361446,-153.710843373494,8
2024-06-13 20:01:44,0.2467895597,0.0354301855,0.03909537569,-6.864176273,-2.920926094,6.002263546,-711.3076923076924,-529.7692307692307,-555.0769230769231,-7853.384615384615,-1333.4615384615386,-9.923076923076923,8
2024-06-13 20:01:44,0.2467895597,0.0354301855,0.03909537569,-6.864176273,-2.920926094,6.002263546,-416.9285714285714,36.78571428571428,-684.2142857142858,-7917.714285714285,-1371.928571428571,-19.857142857142858,8
2024-06-13 20:01:44,0.1123992056,0.05131268129,-0.01954768784,-6.902483463,-3.270479441,6.112396717,-301.84375,6.0,-514.10625,-8221.09375,-1252.75,-28.95625,8
2024-06-13 20:01:45,0.1123992056,0.05131268129,-0.01954768784,-6.902483463,-3.270479441,6.112396717,-286.21875,6.0,-424.73125,-8230.46875,-1227.75,-24.58125,8
2024-06-13 20:01:45,0.09162978828,0.008552113548,-0.05131268129,-7.204153061,-2.870647907,6.323086739,-270.367816091954,-612.1609195402299,41.70114942528736,-8220.494252873563,-1257.0229885057472,159.95402298850576,8
2024-06-13 20:01:45,-0.03420845419,0.0,0.004886921961,-7.02937603,-2.913743496,6.289567947,-581.3908045977012,-531.471264367816,121.80459770114942,-8143.172413793103,-1110.8275862068965,214.04597701149424,8
2024-06-13 20:01:45,-0.03420845419,0.0,0.004886921961,-7.02937603,-2.913743496,6.289567947,-1292.7272727272727,1.3636363636363669,279.72727272727275,-7895.818181818182,-1579.1818181818182,505.1818181818182,8
2024-06-13 20:01:45,0.1404990107,-0.009773843922,0.06475171447,-6.449979305,-2.901772499,6.124367714,-129.67073170731706,162.4878048780488,262.4512195121951,-8267.743902439024,-1359.280487804878,235.9878048780488,8
2024-06-13 20:01:45,0.106290549,0.2296853364,-0.06108652428,-6.50983429,-2.808398485,5.913678169,107.45054945054945,309.0659340659341,-92.4065934065934,-8254.252747252747,-1002.5494505494504,161.42857142857142,8
2024-06-13 20:01:45,0.106290549,0.2296853364,-0.06108652428,-6.50983429,-2.808398485,5.913678169,-193.41379310344823,37.11494252873564,98.26436781609196,-8265.16091954023,-1231.2758620689656,360.17241379310343,8
2024-06-13 20:01:45,0.01588249579,0.2345722616,-0.1563815027,-7.086836815,-3.177105665,5.566518784,-351.6363636363636,-73.45454545454545,356.9090909090909,-8266.363636363636,-949.0,363.9090909090909,8
2024-06-13 20:01:45,0.01588249579,0.2345722616,-0.1563815027,-7.086836815,-3.177105665,5.566518784,-91.5568181818182,267.2386363636364,260.1136363636364,-8277.829545454546,-1149.5795454545455,373.9772727272728,8
2024-06-13 20:01:45,0.02076941915,0.145385921,-0.02199114859,-7.496245384,-3.335123062,5.734113216,340.0,286.42857142857144,69.28571428571428,-8266.285714285714,-1109.428571428571,368.7142857142857,8
2024-06-13 20:01:46,0.03787364438,-0.00244346098,0.1722639948,-7.314286232,-2.741360903,5.509057999,-302.2758620689655,-29.448275862068964,-93.79310344827586,-8274.896551724138,-1098.5862068965516,364.6206896551725,8
2024-06-13 20:01:46,0.03787364438,-0.00244346098,0.1722639948,-7.314286232,-2.741360903,5.509057999,-547.0795454545455,-101.27272727272728,105.5568181818182,-8285.420454545454,-1055.7727272727273,372.1818181818182,8
2024-06-13 20:01:46,-0.6401867867,-0.2590068579,0.0720821023,-7.661445618,-2.794033289,5.978321552,-474.8060606060606,-95.15757575757576,209.7939393939394,-8268.921212121211,-1058.9454545454546,361.0060606060606,8
2024-06-13 20:01:46,-0.4019493461,-0.287106663,-0.03420845419,-6.859387875,-2.612074137,6.002263546,-220.86666666666667,-32.733333333333334,-16.26666666666665,-8250.133333333333,-1084.4,347.06666666666666,8
2024-06-13 20:01:46,-0.4019493461,-0.287106663,-0.03420845419,-6.859387875,-2.612074137,6.002263546,72.51724137931035,-118.55172413793105,-335.41379310344826,-8274.551724137931,-1060.1379310344828,312.9310344827586,8
2024-06-13 20:01:46,-1.722640038,-0.1295034289,-0.4911356568,-5.918466568,-4.639962673,5.396530628,32.15,-92.3875,-143.4,-8264.8625,-1072.9125,306.1375,8
2024-06-13 20:01:46,-1.722640038,-0.1295034289,-0.4911356568,-5.918466568,-4.639962673,5.396530628,-348.58620689655174,-85.0,-147.48275862068965,-8259.068965517241,-1006.6206896551724,326.41379310344826,8
2024-06-13 20:01:46,-0.5888741016,0.1551597714,-0.48014009,-6.114790916,-6.335057735,4.400542736,-159.125,-35.875,34.125,-8276.375,-1002.25,284.375,8
2024-06-13 20:01:46,-0.08796459436,0.3213151097,-0.2761110961,-5.669469833,-7.06768322,4.395754337,45.71428571428572,78.71428571428571,-44.142857142857146,-8266.857142857143,-943.4285714285714,300.85714285714283,8
2024-06-13 20:01:46,-0.08796459436,0.3213151097,-0.2761110961,-5.669469833,-7.06768322,4.395754337,47.11904761904762,77.0,-60.94047619047619,-8244.452380952382,-1141.4166666666667,328.5833333333333,8
2024-06-13 20:01:47,-0.01221730467,0.2101376504,-0.2419026345,-5.403713226,-7.17063427,4.062960148,19.837209302325583,31.36046511627908,-4.686046511627907,-8260.511627906977,-1125.6279069767445,333.9418604651163,8
2024-06-13 20:01:47,-0.07086037099,0.483805269,-0.1404990107,-5.54018259,-6.758831501,3.229778051,26.2439024390244,-96.1951219512195,-45.58536585365854,-8263.439024390244,-1091.5365853658536,349.5853658536585,8
2024-06-13 20:01:47,-0.07086037099,0.483805269,-0.1404990107,-5.54018259,-6.758831501,3.229778051,-130.75555555555556,-22.33333333333333,-4.711111111111109,-8302.533333333333,-883.5333333333333,367.3333333333333,8
2024-06-13 20:01:47,-0.08185594529,0.4972442985,-0.2040289938,-5.738901615,-7.47469759,2.794033289,-535.2272727272727,-271.39772727272725,-55.20454545454545,-8272.454545454546,-943.9318181818182,142.86363636363637,8
2024-06-13 20:01:47,-0.08185594529,0.4972442985,-0.2040289938,-5.738901615,-7.47469759,2.794033289,-280.5164835164835,-25.813186813186803,-37.43956043956044,-8253.417582417582,-1057.1538461538462,175.24175824175825,8
2024-06-13 20:01:47,-0.1038470939,0.3481931984,-0.3494149148,-5.724536419,-8.049305916,2.183511972,-363.14772727272725,-97.17045454545452,364.5113636363636,-8280.079545454546,-686.5,191.3068181818182,8
2024-06-13 20:01:47,0.06475171447,0.4923573732,-0.1392772794,-5.35343504,-7.553706169,2.054224968,-519.1153846153846,-16.5,270.3076923076923,-8314.97435897436,-685.6794871794872,196.2179487179488,8
2024-06-13 20:01:47,0.06475171447,0.4923573732,-0.1392772794,-5.35343504,-7.553706169,2.054224968,-374.3809523809524,300.32142857142856,-154.27380952380952,-8085.988095238095,-925.5,176.04761904761904,8
2024-06-13 20:01:47,-0.2101376504,0.4581489265,-0.3860668242,-5.214571476,-8.255207062,1.908178806,-408.7236842105263,-9.894736842105264,-117.35526315789474,-8257.302631578947,-882.9605263157895,362.2894736842105,8
2024-06-13 20:01:47,-0.5986479521,0.4483750761,-0.6829473376,-3.912125587,-8.609549522,0.4405331016,-1081.3333333333333,-117.33333333333331,-97.33333333333331,-8310.333333333334,-641.0,340.3333333333333,8
2024-06-13 20:01:48,-0.5986479521,0.4483750761,-0.6829473376,-3.912125587,-8.609549522,0.4405331016,-985.131868131868,-67.23076923076923,-44.27472527472528,-8135.373626373626,-708.2087912087912,202.43956043956044,8
2024-06-13 20:01:48,-0.3213151097,0.6780604124,-0.6291912198,-3.993528366,-9.900024414,-0.5195417404,-1007.9787234042552,27.90780141843972,-22.42553191489361,-7989.553191489362,-436.1489361702128,55.60283687943263,8
2024-06-13 20:01:48,-0.3213151097,0.6780604124,-0.6291912198,-3.993528366,-9.900024414,-0.5195417404,-1065.4255319148936,-89.82269503546098,26.510638297872347,-8195.936170212766,-434.0212765957447,294.6099290780142,8
2024-06-13 20:01:48,-0.1075122803,0.3860668242,-0.2932153046,-3.926490784,-9.842563629,-0.9241618514,-747.9230769230769,44.82417582417583,-356.1208791208791,-7962.065934065934,-934.3626373626372,335.7912087912088,8
2024-06-13 20:01:48,-0.2211332172,-0.04031710699,-0.01588249579,-3.478775024,-9.184157372,-0.8164227605,283.5,-296.47727272727275,-596.8636363636364,-8091.977272727273,-1289.2727272727273,189.5681818181818,8
2024-06-13 20:01:48,-0.2211332172,-0.04031710699,-0.01588249579,-3.478775024,-9.184157372,-0.8164227605,369.3932584269663,-248.95505617977528,203.8314606741573,-7911.011235955056,-856.3370786516854,486.5168539325843,8
2024-06-13 20:01:48,-0.6365215778,-0.1160643995,0.05497787148,-2.908955097,-9.30386734,-1.872265697,27.138297872340427,-298.1276595744681,484.8829787234043,-8094.095744680851,-740.5744680851063,760.1914893617021,8
2024-06-13 20:01:48,-0.2736676335,-0.09407325089,-0.05131268129,-2.796427488,-9.244012833,-2.063801765,86.6829268292683,337.0975609756098,922.5853658536586,-8284.048780487805,-103.78048780487804,458.5853658536585,8
2024-06-13 20:01:48,-0.2736676335,-0.09407325089,-0.05131268129,-2.796427488,-9.244012833,-2.063801765,65.67441860465117,211.02325581395348,340.1046511627907,-8128.883720930233,-55.0,573.4883720930233,8
2024-06-13 20:01:48,-0.1649336219,-0.09773843735,-0.06230825558,-2.875436306,-9.234436035,-2.597708941,-156.05747126436782,187.26436781609195,-423.35632183908046,-8457.781609195403,-354.2528735632184,183.54022988505747,8
2024-06-13 20:01:49,-0.1649336219,-0.09773843735,-0.06230825558,-2.875436306,-9.234436035,-2.597708941,-123.13636363636364,345.90909090909093,-473.8181818181818,-8264.431818181818,-246.3636363636364,372.52272727272725,8
2024-06-13 20:01:49,0.0109955743,-0.05619960278,0.02199114859,-2.983175278,-9.428366661,-1.886630893,-15.325581395348848,567.7209302325581,-659.6279069767442,-8127.116279069767,-614.1860465116279,202.67441860465115,8
2024-06-13 20:01:49,0.7684684992,-0.06352998316,-0.0171042271,-2.703053713,-9.481039047,-1.319205165,267.9462365591398,308.4623655913979,7.215053763440835,-8114.881720430108,-815.4193548387096,374.1290322580645,8
2024-06-13 20:01:49,0.7684684992,-0.06352998316,-0.0171042271,-2.703053713,-9.481039047,-1.319205165,199.04761904761904,-104.1904761904762,-61.333333333333336,-8319.619047619048,-592.5714285714286,368.4285714285714,8
2024-06-13 20:01:49,0.1869247705,0.04398229718,-0.03176499158,-2.868253708,-9.641449928,-0.6703764796,252.0235294117647,159.65882352941176,1148.7058823529412,-8242.152941176471,-807.0823529411765,372.9529411764706,8
2024-06-13 20:01:49,0.1869247705,0.04398229718,-0.03176499158,-2.868253708,-9.641449928,-0.6703764796,177.9310344827586,551.9655172413793,1245.8620689655172,-8163.0344827586205,-95.9655172413793,316.0,8
2024-06-13 20:01:49,0.1319468915,0.1368338168,0.2785545588,-3.512293816,-9.981427193,-0.4141969085,152.65116279069767,491.9186046511628,816.8953488372093,-8169.872093023256,74.8953488372093,327.5,8
2024-06-13 20:01:49,0.1319468915,0.1368338168,0.2785545588,-3.512293816,-9.981427193,-0.4141969085,127.2247191011236,194.91011235955057,282.97752808988764,-8298.359550561798,-2.1235955056179776,135.38202247191012,8
2024-06-13 20:01:49,0.2406809032,0.08063421398,0.4080579877,-3.416525841,-8.911218643,-0.5147533417,-342.45454545454544,357.8181818181818,532.0,-8502.59090909091,211.0909090909091,-215.13636363636363,8
2024-06-13 20:01:50,-0.1637118906,0.08796459436,-0.05864306539,-3.41892004,-8.453926086,-0.2585737705,-337.9325842696629,322.59550561797755,-95.1011235955056,-7882.876404494382,314.4494382022472,-264.3707865168539,8
2024-06-13 20:01:50,-0.1637118906,0.08796459436,-0.05864306539,-3.41892004,-8.453926086,-0.2585737705,200.13953488372093,230.6860465116279,-531.0581395348837,-7895.918604651163,83.84883720930233,69.30232558139535,8
2024-06-13 20:01:50,-0.9407324791,-0.1050688252,-0.5326744914,-3.110068083,-9.038111687,-0.895431459,-207.35164835164835,325.1428571428572,392.68131868131866,-8436.835164835165,211.7252747252748,-159.47252747252747,8
2024-06-13 20:01:50,-0.2443460971,-0.07574728876,-0.4630358517,-2.815581083,-10.0556469,-1.953668594,64.61538461538461,110.17582417582418,-879.1758241758242,-8280.296703296703,132.52747252747253,-270.1758241758242,8
2024-06-13 20:01:50,-0.2443460971,-0.07574728876,-0.4630358517,-2.815581083,-10.0556469,-1.953668594,-327.93023255813955,325.37209302325584,-524.5581395348837,-8248.697674418605,273.72093023255815,28.186046511627907,8
2024-06-13 20:01:50,0.5326744914,-0.2260201424,-0.00122173049,-2.803610086,-10.79545593,-0.9792284966,-208.0,-10.134831460674157,-704.4606741573034,-7926.7191011235955,9.943820224719104,64.5505617977528,8
2024-06-13 20:01:50,0.5326744914,-0.2260201424,-0.00122173049,-2.803610086,-10.79545593,-0.9792284966,-464.38947368421054,100.4,-1084.6,-8025.978947368421,-254.83157894736843,26.45263157894737,8
2024-06-13 20:01:50,0.03909537569,-0.1502728462,0.4019493461,-2.724601507,-9.337387085,-0.653617084,53.43678160919541,44.103448275862064,-837.1264367816092,-8285.908045977012,-505.5632183908046,32.83908045977012,8
2024-06-13 20:01:50,0.1111774743,0.09896016866,0.299323976,-2.908955097,-8.808267593,-0.605733037,-134.65882352941176,-249.94117647058823,-196.6235294117647,-8284.423529411764,-594.1764705882352,106.6470588235294,8
2024-06-13 20:01:50,0.1111774743,0.09896016866,0.299323976,-2.908955097,-8.808267593,-0.605733037,-329.1264367816092,185.9712643678161,-266.867816091954,-8247.494252873563,-567.8045977011494,58.37931034482759,8
2024-06-13 20:01:51,0.07819075137,0.1576032341,-0.1527163088,-2.942473888,-9.153033257,0.0287304204,-355.5632183908046,307.235632183908,-184.683908045977,-8241.747126436781,-572.4022988505748,37.689655172413794,8
2024-06-13 20:01:51,0.08307767659,0.1991420686,0.05253441259,-3.227383852,-9.294290543,-0.6416460276,-213.5,-298.7142857142857,-150.57142857142858,-8310.857142857143,-700.9285714285714,44.35714285714286,8
2024-06-13 20:01:51,0.08307767659,0.1991420686,0.05253441259,-3.227383852,-9.294290543,-0.6416460276,119.6306818181818,103.0965909090909,-344.7386363636364,-8311.619318181818,-445.2556818181818,54.23295454545455,8
2024-06-13 20:01:51,0.1380555481,0.1282816976,0.0415388383,-3.555389643,-10.01255131,-0.3639186621,120.52272727272728,-56.81818181818182,-181.25,-8261.363636363636,-655.8636363636364,101.11363636363636,8
2024-06-13 20:01:51,0.1380555481,0.1282816976,0.0415388383,-3.555389643,-10.01255131,-0.3639186621,-2.8033707865168545,-28.50561797752809,487.6966292134832,-8249.17415730337,-841.1516853932584,78.3932584269663,8
2024-06-13 20:01:51,-0.2455678284,0.2528982162,0.4202753007,-3.888183594,-9.533711433,-0.5458779931,-111.06666666666666,-104.9,153.43333333333334,-8255.033333333333,-596.4,-126.73333333333332,8
2024-06-13 20:01:51,0.7183775306,0.3445279896,0.4080579877,-3.766079187,-8.844181061,-0.6033388376,-14.16470588235294,89.09411764705882,347.964705882353,-8270.2,-811.3294117647059,-104.78823529411764,8
2024-06-13 20:01:51,0.7183775306,0.3445279896,0.4080579877,-3.766079187,-8.844181061,-0.6033388376,156.1123595505618,-196.06741573033707,-222.2247191011236,-8040.4157303370785,-885.9213483146068,151.0,8
2024-06-13 20:01:51,0.1014036313,0.1123992056,-0.1698205322,-4.120420933,-8.195352554,-0.4668693244,470.8488372093024,269.1860465116279,693.8953488372093,-7949.488372093023,-941.9302325581396,298.2674418604651,8
2024-06-13 20:01:51,-0.4874704778,-0.1661553532,-0.3115412891,-4.225766182,-9.224859238,-0.5698199868,-524.3966480446927,1142.8715083798884,2231.8659217877093,-7934.072625698324,82.75977653631287,-301.8379888268156,8
2024-06-13 20:01:52,-0.4874704778,-0.1661553532,-0.3115412891,-4.225766182,-9.224859238,-0.5698199868,-1173.558659217877,1460.7486033519554,2598.346368715084,-8402.22905027933,472.7039106145252,-611.3351955307263,8
2024-06-13 20:01:52,-0.2235766798,-0.4667010605,-0.4117231667,-3.746925592,-9.337387085,-0.2537853718,66.97777777777777,130.73333333333332,917.8444444444444,-7388.066666666667,1224.1777777777777,271.64444444444445,8
2024-06-13 20:01:52,-0.2235766798,-0.4667010605,-0.4117231667,-3.746925592,-9.337387085,-0.2537853718,-1239.9,1468.7,134.4,-8100.9,990.2,-758.6,8
2024-06-13 20:01:52,-0.2028072625,-0.1942551434,-0.08918632567,-3.320757866,-9.308655739,-0.3998316824,-98.49411764705884,311.77647058823527,62.34117647058824,-8169.247058823529,1150.3647058823528,-977.3176470588236,8
2024-06-13 20:01:52,-0.1673770845,-0.2553416789,-0.1918116808,-2.877830505,-9.63666153,-0.1316810995,177.91011235955057,-238.40449438202248,103.02247191011236,-8037.550561797752,1384.2134831460671,-799.5393258426966,8
2024-06-13 20:01:52,-0.1673770845,-0.2553416789,-0.1918116808,-2.877830505,-9.63666153,-0.1316810995,-38.477272727272734,-149.2840909090909,37.61363636363637,-7789.318181818182,927.7045454545456,-440.34090909090907,8
2024-06-13 20:01:52,-0.05742133409,-0.1087340117,0.03298672289,-2.590526342,-9.555258751,-0.8978256583,579.6666666666666,337.3333333333333,-302.02222222222224,-8042.8,1158.7111111111112,-850.5555555555555,8
2024-06-13 20:01:52,-0.008552113548,0.2724458873,0.05864306539,-2.777273893,-9.732429504,0.01675941236,617.888,247.504,-553.064,-8246.52,1250.128,-703.224,8
2024-06-13 20:01:52,-0.008552113548,0.2724458873,0.05864306539,-2.777273893,-9.732429504,0.01675941236,208.92307692307693,-67.33333333333334,-623.7179487179487,-8035.615384615385,835.2307692307693,-749.6153846153846,8
2024-06-13 20:01:52,0.2883284092,0.4899139404,0.01343903504,-3.23456645,-9.813833237,-0.7613561153,363.0217391304348,-179.3695652173913,-675.9782608695652,-7891.869565217391,860.0,-502.9891304347826,8
2024-06-13 20:01:53,0.235793978,0.2895501256,0.03909537569,-3.138798475,-9.31823349,-0.9385270476,-568.6183206106871,-90.29007633587788,-4.137404580152673,-8223.984732824427,626.5496183206106,-532.0076335877862,8
2024-06-13 20:01:53,-0.007330383174,0.01466076635,0.07086037099,-3.01190567,-9.117119789,-0.8499416113,-548.7709923664122,90.6259541984733,244.7175572519084,-8207.190839694656,631.1297709923664,-540.4045801526718,8
2024-06-13 20:01:53,-0.007330383174,0.01466076635,0.07086037099,-3.01190567,-9.117119789,-0.8499416113,-541.3478260869565,264.19565217391306,217.0760869565217,-7885.076086956522,460.7826086956522,-582.804347826087,8
2024-06-13 20:01:53,-0.1160643995,-0.1343903542,-0.09040805697,-2.949656487,-9.56004715,-0.4644751251,-200.43023255813952,-75.69767441860465,3.2441860465116275,-7904.895348837209,816.7674418604652,-624.2558139534884,8
2024-06-13 20:01:53,-0.1038470939,-0.1392772794,-0.1356120855,-3.193865061,-9.607931137,-0.4525041282,-351.7977528089888,-52.4494382022472,-273.85393258426967,-8197.438202247191,793.7078651685393,-496.4719101123595,8
2024-06-13 20:01:53,-0.1038470939,-0.1392772794,-0.1356120855,-3.193865061,-9.607931137,-0.4525041282,149.04545454545456,34.363636363636374,-211.4090909090909,-7927.363636363636,823.4545454545455,-423.59090909090907,8
2024-06-13 20:01:53,-0.006108652335,-0.2174680233,0.05497787148,-3.028665066,-9.658209801,-0.7541735172,52.71910112359549,98.0,-326.07865168539325,-7904.539325842697,858.3258426966293,-403.9213483146068,8
2024-06-13 20:01:53,-0.006108652335,-0.2174680233,0.05497787148,-3.028665066,-9.658209801,-0.7541735172,-170.66666666666666,-77.04444444444445,-281.26666666666665,-7912.088888888888,497.4888888888889,-616.6222222222223,8
2024-06-13 20:01:54,0.25167647,-0.6878342628,0.8967501521,-4.544194698,-9.708487511,-0.1508347094,89.80232558139535,24.98837209302326,-346.06976744186045,-8233.848837209302,439.9418604651163,-603.4186046511628,8
2024-06-13 20:01:54,0.25167647,-0.6878342628,0.8967501521,-4.544194698,-9.708487511,-0.1508347094,-311.82758620689657,-261.2413793103448,-282.62068965517244,-8201.068965517241,622.0689655172414,-558.551724137931,8
2024-06-13 20:01:54,0.3506366611,-0.668286562,0.908967495,-5.035006046,-8.319850922,0.7326257229,-303.1720430107527,-268.5806451612903,-348.23655913978496,-8214.075268817205,610.1505376344086,-530.1720430107526,8
2024-06-13 20:01:54,0.04642575979,-0.7464773059,0.7024950385,-5.877765179,-7.429207802,1.565807939,69.59302325581396,-215.62790697674416,-205.36627906976744,-8232.151162790698,575.4941860465116,-220.49418604651163,8
2024-06-13 20:01:54,0.04642575979,-0.7464773059,0.7024950385,-5.877765179,-7.429207802,1.565807939,84.70930232558139,-55.16279069767441,-211.7616279069768,-8237.96511627907,571.4244186046511,-216.42441860465115,8
2024-06-13 20:01:54,0.2712241709,-0.58276546,0.531452775,-6.143521786,-6.476315498,2.506729126,-308.47058823529414,83.89411764705882,-268.08235294117645,-8206.917647058823,253.68235294117648,-143.6235294117647,8
2024-06-13 20:01:54,0.2712241709,-0.58276546,0.531452775,-6.143521786,-6.476315498,2.506729126,-312.4,-105.4,-263.0,-8234.2,471.0,-146.6,8
2024-06-13 20:01:54,0.37751472,-0.3469714522,0.3726277947,-6.409277916,-6.126761913,3.521870613,-278.02777777777777,-74.38888888888889,-325.85,-8233.316666666668,209.4388888888889,-149.24444444444444,8
2024-06-13 20:01:54,0.1869247705,-0.2822197378,0.3860668242,-6.895300865,-5.142745018,4.290409565,-264.1388888888889,-79.94444444444444,-340.85,-8234.983333333334,209.99444444444444,-147.0222222222222,8
2024-06-13 20:01:54,0.1869247705,-0.2822197378,0.3860668242,-6.895300865,-5.142745018,4.290409565,-292.375,104.75,-151.5,-8225.125,343.5,-370.875,8
2024-06-13 20:01:55,0.2174680233,-0.2223549485,0.2748893499,-6.866570473,-4.343081951,4.888959885,45.17777777777778,299.4222222222222,-238.8,-8252.133333333333,297.2888888888889,-147.9111111111111,8
2024-06-13 20:01:55,-0.009773843922,-0.1356120855,0.07452555746,-6.775590897,-4.42209053,4.958391666,265.9555555555556,-15.4,-289.53333333333336,-8247.622222222222,261.85555555555555,-177.62222222222223,8
2024-06-13 20:01:55,-0.009773843922,-0.1356120855,0.07452555746,-6.775590897,-4.42209053,4.958391666,276.3636363636364,-94.36363636363636,-348.6363636363636,-8241.545454545454,139.0,-174.0909090909091,8
2024-06-13 20:01:55,0.0,-0.05375614017,0.1014036313,-7.024587631,-4.735731125,4.965574265,53.49425287356322,-10.264367816091948,57.45977011494253,-8241.402298850575,291.67816091954023,-174.1264367816092,8
2024-06-13 20:01:55,0.0,-0.05375614017,0.1014036313,-7.024587631,-4.735731125,4.965574265,-198.46666666666667,-124.0,-25.04444444444445,-8265.422222222222,337.3111111111112,-144.2888888888889,8
2024-06-13 20:01:55,0.1844813079,-0.09896016866,0.08674286306,-6.907271862,-4.237737179,5.410895824,-652.25,-233.1590909090909,299.1818181818182,-8004.272727272727,135.63636363636363,-364.75,8
2024-06-13 20:01:55,0.3017674387,-0.06597344577,0.05742133409,-6.818686485,-3.998316765,5.499481201,-354.24719101123594,218.3932584269663,341.48314606741576,-7913.752808988764,368.5730337078652,-379.0112359550562,8
2024-06-13 20:01:55,0.3017674387,-0.06597344577,0.05742133409,-6.818686485,-3.998316765,5.499481201,-300.7191011235955,552.0674157303371,212.97752808988764,-8200.1797752809,202.6629213483146,-184.31460674157304,8
2024-06-13 20:01:55,0.228463605,-0.0171042271,0.03909537569,-6.959944248,-3.725377798,5.671864033,-228.1604938271605,162.2716049382716,583.8765432098766,-8246.222222222223,193.22222222222223,-565.5308641975308,8
2024-06-13 20:01:55,0.4593706727,0.01832595654,0.03176499158,-6.950367451,-3.371036053,5.928043365,-136.0222222222222,205.2333333333333,463.52222222222224,-8209.955555555556,315.22222222222223,-541.8444444444444,8
2024-06-13 20:01:56,0.4593706727,0.01832595654,0.03176499158,-6.950367451,-3.371036053,5.928043365,20.367346938775512,207.53061224489795,175.68367346938777,-7926.510204081633,526.5408163265306,-419.0102040816327,8
2024-06-13 20:01:56,0.3714060783,0.02199114859,0.02443460934,-6.998251438,-2.82036972,6.157886982,-102.13414634146342,238.7560975609756,308.0,-7899.5609756097565,900.329268292683,-456.5487804878049,8
2024-06-13 20:01:56,0.3714060783,0.02199114859,0.02443460934,-6.998251438,-2.82036972,6.157886982,-91.561797752809,154.98876404494382,501.2022471910112,-7844.29213483146,964.6067415730336,-499.0449438202247,8
