Timestamp,Gyro_x_x,Gyro_y_x,Gyro_z_x,Acc_x_x,Acc_y_x,Acc_z_x,Gyro_x_y,Gyro_y_y,Gyro_z_y,Acc_x_y,Acc_y_y,Acc_z_y,combined_action_num
2024-06-13 19:55:46,0.1905899495,0.1722639948,-0.3237585723,-3.323152065,-7.886500359,5.595249176,221.994623655914,-216.04301075268816,-94.53763440860214,-7642.209677419355,-96.9516129032258,-1097.6290322580646,7
2024-06-13 19:55:46,-0.2199114859,0.2125810981,-0.1404990107,-3.08133769,-8.463502884,4.592078686,285.9731182795699,-304.2150537634409,3.311827956989248,-7647.048387096775,-72.75806451612902,-1112.145161290323,7
2024-06-13 19:55:46,-0.2199114859,0.2125810981,-0.1404990107,-3.08133769,-8.463502884,4.592078686,-676.1234567901234,-169.97530864197532,-445.6666666666666,-7797.728395061728,-177.320987654321,-768.4320987654321,7
2024-06-13 19:55:46,0.4581489265,0.09651670605,-0.04398229718,-2.576161146,-8.638279915,5.008669853,8.375,529.625,-253.0,-8142.625,-220.5,-1133.0,7
2024-06-13 19:55:46,0.4581489265,0.09651670605,-0.04398229718,-2.576161146,-8.638279915,5.008669853,162.3695652173913,-339.86956521739125,253.3043478260869,-7983.760869565217,-77.60869565217394,-726.6521739130435,7
2024-06-13 19:55:46,0.06352998316,-0.03665191308,-0.06475171447,-2.863465309,-8.274360657,7.079654217,-149.23863636363637,-562.2613636363636,-431.7840909090909,-7644.75,56.09090909090909,-655.4886363636364,7
2024-06-13 19:55:46,-1.183856845,1.292590857,-0.2614503205,-1.371877551,-7.115567684,5.846640587,-852.1290322580645,524.6774193548388,-451.5483870967742,-8149.193548387097,-249.67741935483872,-706.3548387096774,7
2024-06-13 19:55:46,-1.183856845,1.292590857,-0.2614503205,-1.371877551,-7.115567684,5.846640587,-10.659259259259272,230.8740740740741,-594.4888888888889,-7939.066666666667,-413.1703703703704,-681.9851851851852,7
2024-06-13 19:55:46,1.617571115,0.5448917747,-1.137431145,-5.286397457,-9.260771751,3.078943491,82.15384615384616,-156.15384615384616,-29.07692307692308,-8113.384615384615,-560.3846153846154,-981.6923076923076,7
2024-06-13 19:55:47,1.144761443,-0.6988298297,-0.3640756905,-3.600879431,-8.279149055,6.370970726,-49.25581395348837,-203.7906976744186,20.686046511627907,-7863.802325581395,-558.8604651162791,-1080.0813953488373,7
2024-06-13 19:55:47,1.144761443,-0.6988298297,-0.3640756905,-3.600879431,-8.279149055,6.370970726,99.27586206896552,-370.0,82.6896551724138,-7917.862068965517,-426.1724137931034,-796.3103448275862,7
2024-06-13 19:55:47,0.6059783101,-0.3726277947,-0.006108652335,-0.6703764796,-5.193023682,8.365341187,80.80898876404494,196.4943820224719,146.6966292134831,-7918.550561797752,-549.6741573033707,-665.3932584269663,7
2024-06-13 19:55:47,0.6059783101,-0.3726277947,-0.006108652335,-0.6703764796,-5.193023682,8.365341187,194.7078651685393,-125.8988764044944,635.1460674157304,-8006.134831460674,-319.85393258426967,-451.0674157303371,7
2024-06-13 19:55:47,-1.30480814,0.4642575979,0.6560692787,-2.281674147,-7.635109425,8.944737434,155.38888888888889,132.22222222222223,183.0,-7750.888888888889,33.16666666666667,-718.4444444444445,7
2024-06-13 19:55:47,0.6389650702,0.1588249654,1.134987593,-3.945644379,-6.900089264,8.305485725,-180.90804597701148,876.4022988505748,-477.4827586206897,-7836.540229885058,-227.3563218390805,-972.6551724137933,7
2024-06-13 19:55:47,0.6389650702,0.1588249654,1.134987593,-3.945644379,-6.900089264,8.305485725,-239.53846153846155,489.84615384615387,-499.1538461538462,-8017.373626373626,-419.8351648351649,-1205.989010989011,7
2024-06-13 19:55:47,1.243721604,0.1466076523,0.9871582389,-4.733336926,-5.695806026,5.760449409,-505.9767441860465,-319.5232558139535,-873.7558139534884,-8191.616279069767,-749.1046511627907,-1197.8837209302326,7
2024-06-13 19:55:47,1.207069755,-0.5485569835,0.9382890463,-4.340687752,-2.724601507,7.841010571,-533.1685393258427,-831.5730337078652,-991.4719101123596,-7878.393258426966,-720.2359550561798,-966.3595505617976,7
2024-06-13 19:55:47,1.207069755,-0.5485569835,0.9382890463,-4.340687752,-2.724601507,7.841010571,-1136.686567164179,-385.0746268656716,-301.23880597014926,-7991.059701492537,-732.0,-719.4328358208955,7
2024-06-13 19:55:48,-0.03420845419,-0.7147123218,0.3946189582,-3.538630009,-1.8579005,8.621520042,-1080.7164179104475,-262.6865671641791,-29.59701492537312,-8023.149253731343,-732.0,-689.5820895522388,7
2024-06-13 19:55:48,-0.03420845419,-0.7147123218,0.3946189582,-3.538630009,-1.8579005,8.621520042,-49.5,70.0,214.0,-8057.5,-441.0,-715.0,7
2024-06-13 19:55:48,0.8393288255,-0.4471533597,0.2590068579,-1.798045516,1.130063176,10.40998936,335.4157303370786,239.2808988764045,307.7415730337079,-8096.550561797752,-587.1011235955057,-995.2247191011236,7
2024-06-13 19:55:48,0.5021312237,-0.3714060783,0.05742133409,-2.209848166,2.887407303,7.592013359,976.0909090909092,-158.36363636363637,191.0,-8121.454545454545,-247.0909090909091,-835.909090909091,7
2024-06-13 19:55:48,0.5021312237,-0.3714060783,0.05742133409,-2.209848166,2.887407303,7.592013359,489.95402298850576,-911.8850574712644,-21.51724137931035,-8121.218390804598,-24.1264367816092,-660.5862068965517,7
2024-06-13 19:55:48,0.1429424733,-0.03054326214,-0.5693264008,-1.395819545,5.54257679,7.28555584,-1198.4942528735633,-785.5977011494253,-1048.6206896551723,-7816.448275862069,-770.2988505747126,19.229885057471265,7
2024-06-13 19:55:48,0.4251621962,-0.2247984111,-0.3604104817,-1.460463047,1.458068848,9.493009567,-741.6470588235294,-370.52941176470586,25.80392156862745,-8190.35294117647,-1079.5882352941176,368.5882352941176,7
2024-06-13 19:55:48,0.4251621962,-0.2247984111,-0.3604104817,-1.460463047,1.458068848,9.493009567,-696.5490196078431,-321.5098039215686,252.6013071895425,-8368.78431372549,-899.1960784313726,354.8627450980392,7
2024-06-13 19:55:48,-0.9737191796,1.125213742,-0.4923573732,-1.924938202,5.094861031,9.076418877,-3382.055555555556,1997.388888888889,961.3333333333334,-7781.833333333333,-164.55555555555554,-422.27777777777777,7
2024-06-13 19:55:48,-0.9737191796,1.125213742,-0.4923573732,-1.924938202,5.094861031,9.076418877,-2202.833333333333,1583.0,721.8333333333334,-8178.166666666667,-433.1666666666667,-1045.3333333333333,7
2024-06-13 19:55:49,-3.760486364,0.7049384713,0.3628539443,-4.034229755,-6.110002518,8.683769226,804.8314606741574,431.3820224719101,523.6966292134832,-8061.752808988764,-163.48314606741573,-1689.629213483146,7
2024-06-13 19:55:49,3.671300173,-1.565036774,0.2981022298,-2.442085743,1.934514999,7.647080421,1355.2727272727273,-795.6818181818182,-292.1363636363636,-7794.977272727273,-16.613636363636374,-1400.6136363636365,7
2024-06-13 19:55:49,3.671300173,-1.565036774,0.2981022298,-2.442085743,1.934514999,7.647080421,-834.2777777777778,684.0555555555557,-466.72222222222223,-7558.611111111111,-20.22222222222223,-1120.611111111111,7
2024-06-13 19:55:49,1.971873045,-0.1954768747,-0.4092797041,-3.512293816,1.807622313,5.688623428,-2101.168539325842,1397.123595505618,222.2584269662921,-8619.292134831461,-530.5505617977528,-1410.876404494382,7
2024-06-13 19:55:49,-1.674992561,0.618195653,-0.4776966274,0.8140285611,8.374917984,9.63666153,-917.7931034482758,-1604.6896551724135,-1239.896551724138,-7951.758620689655,334.9655172413793,-1618.7586206896551,7
2024-06-13 19:55:49,-1.674992561,0.618195653,-0.4776966274,0.8140285611,8.374917984,9.63666153,3910.9545454545455,299.3636363636364,-2529.0,-7862.454545454545,-1622.4545454545455,-1137.0,7
2024-06-13 19:55:49,-2.328618288,-0.3750712574,0.1246165112,-3.325546265,-7.110779285,7.943961143,3037.0,-1340.857142857143,-1780.857142857143,-7865.428571428572,-1239.0,-126.42857142857144,7
2024-06-13 19:55:49,-2.328618288,-0.3750712574,0.1246165112,-3.325546265,-7.110779285,7.943961143,3016.435294117647,-935.470588235294,-2800.6,-7597.988235294118,-2069.929411764706,99.4235294117647,7
2024-06-13 19:55:49,3.929085255,0.3543018401,-0.5070181489,-3.632004023,3.454833031,7.369352818,2268.5625,-548.4583333333334,-4301.625,-7790.020833333333,-2772.2291666666665,303.8125,7
2024-06-13 19:55:49,-2.370157242,0.4373795092,0.1404990107,-4.496310711,2.473210335,6.567295074,2391.4791666666665,-583.1805555555555,-4464.125,-7747.659722222223,-2939.590277777778,318.3958333333333,7
2024-06-13 19:55:50,-2.370157242,0.4373795092,0.1404990107,-4.496310711,2.473210335,6.567295074,1881.142857142857,-530.0,-5693.428571428572,-6682.0,-4805.0,207.28571428571428,7
2024-06-13 19:55:50,0.09407325089,-0.009773843922,0.2125810981,-2.26970315,-4.218583584,6.567295074,608.0,-1170.6235294117646,-4689.282352941176,-5956.6,-5512.941176470588,735.8,7
2024-06-13 19:55:50,-3.301115751,1.345125318,-0.6866125464,-2.865859509,5.710171223,8.463502884,355.1489361702128,-1560.2978723404256,-4511.446808510638,-5717.04255319149,-6037.340425531915,1304.063829787234,7
2024-06-13 19:55:50,-3.301115751,1.345125318,-0.6866125464,-2.865859509,5.710171223,8.463502884,67.80952380952381,-1214.2857142857142,-3916.428571428572,-4744.666666666667,-6809.333333333333,1438.6190476190477,7
2024-06-13 19:55:50,2.544864655,-0.8503243923,0.3616322279,-4.8314991,1.776497602,5.746084213,134.9120879120879,-252.63736263736263,-2370.725274725274,-3526.120879120879,-7736.923076923077,1684.6043956043957,7
2024-06-13 19:55:50,2.544864655,-0.8503243923,0.3616322279,-4.8314991,1.776497602,5.746084213,211.7209302325581,-33.13953488372093,-1684.139534883721,-3659.255813953489,-7432.162790697675,1887.6511627906973,7
2024-06-13 19:55:50,0.2247984111,0.07696902007,0.07452555746,-2.616862535,2.23139596,8.573636055,106.28813559322036,96.41242937853109,-1244.276836158192,-3244.74011299435,-7765.734463276836,1742.6158192090395,7
2024-06-13 19:55:50,-0.1160643995,-0.09040805697,-0.3518583775,-2.865859509,0.2633621991,9.421183586,75.77966101694915,66.46892655367232,-1322.80790960452,-3352.6497175141244,-7778.163841807909,1749.9604519774011,7
2024-06-13 19:55:50,-0.1160643995,-0.09040805697,-0.3518583775,-2.865859509,0.2633621991,9.421183586,-144.04761904761904,118.58333333333331,-870.1785714285714,-2965.2261904761904,-7604.607142857143,1917.357142857143,7
2024-06-13 19:55:50,-0.1490511149,0.8503243923,-0.7696902156,1.414973259,2.19308877,7.311892033,-224.72727272727272,16.90909090909091,-675.1590909090909,-2858.068181818182,-7661.272727272727,1769.8636363636365,7
2024-06-13 19:55:51,-2.627942324,1.468520045,0.08796459436,-4.338293552,-3.284844637,4.850652695,-535.5862068965517,-91.33333333333331,-863.6091954022988,-2451.0459770114944,-8031.229885057472,1720.8735632183907,7
2024-06-13 19:55:51,-2.627942324,1.468520045,0.08796459436,-4.338293552,-3.284844637,4.850652695,-332.70068027210885,2.6190476190476204,-603.8639455782313,-2552.619047619048,-7835.455782312925,1697.9795918367347,7
2024-06-13 19:55:51,-0.7586946487,-0.5106833577,-1.871691108,-5.94719696,-6.294356346,5.650316238,-328.27272727272725,111.8181818181818,-557.4545454545455,-2301.818181818182,-7861.727272727273,1693.3636363636365,7
2024-06-13 19:55:51,-0.7586946487,-0.5106833577,-1.871691108,-5.94719696,-6.294356346,5.650316238,-283.0235294117647,123.11764705882354,-181.9058823529412,-2402.8823529411766,-7852.211764705882,1700.9529411764706,7
2024-06-13 19:55:51,1.689653277,-1.624901533,-2.520430088,-3.878606796,-9.081207275,8.106766701,-272.1136363636364,-84.6590909090909,-185.27272727272728,-2373.3863636363635,-7858.318181818182,1699.7727272727273,7
2024-06-13 19:55:51,-1.567480206,0.228463605,0.8185594082,-0.7733271718,-12.92629528,19.08178711,-282.2613636363636,-82.6590909090909,-347.875,-2373.875,-7861.556818181818,1664.8522727272727,7
2024-06-13 19:55:51,-1.567480206,0.228463605,0.8185594082,-0.7733271718,-12.92629528,19.08178711,-289.4574468085106,-14.893617021276595,-329.7659574468085,-2359.308510638298,-7875.478723404255,1676.0531914893618,7
2024-06-13 19:55:51,-0.3921754956,-0.2651155293,0.01221730467,2.370259762,-5.262455463,7.915230751,-302.1038961038961,9.272727272727266,20.4025974025974,-2329.3506493506493,-7858.688311688312,1716.2077922077922,7
2024-06-13 19:55:51,-0.1038470939,-0.04764748737,0.01588249579,2.837129116,-6.347028732,7.292738438,-340.375,-90.875,-161.75,-2326.375,-7874.375,1689.875,7
2024-06-13 19:55:51,-0.1038470939,-0.04764748737,0.01588249579,2.837129116,-6.347028732,7.292738438,-355.02564102564105,-26.56410256410257,25.64102564102564,-2034.102564102564,-7901.615384615385,1673.1538461538462,7
2024-06-13 19:55:52,-0.1551597714,0.3054326177,0.1795943826,2.387019157,-5.968744755,7.295132637,-307.5,-106.66666666666669,38.833333333333336,-2026.3333333333333,-7877.166666666667,1671.8333333333333,7
2024-06-13 19:55:52,-0.1551597714,0.3054326177,0.1795943826,2.387019157,-5.968744755,7.295132637,-311.2228260869565,-80.46195652173913,16.918478260869566,-2046.5380434782608,-7897.91847826087,1667.4619565217392,7
2024-06-13 19:55:52,-0.538783133,-0.02687807009,-0.2663372457,1.611297727,-7.053318024,7.091625214,-345.2173913043478,73.08695652173913,-276.3478260869565,-2018.8260869565213,-7884.652173913043,1873.0434782608693,7
2024-06-13 19:55:52,-0.538783133,-0.02687807009,-0.2663372457,1.611297727,-7.053318024,7.091625214,-201.8705882352941,-93.51764705882351,-279.29411764705884,-1954.6823529411763,-8198.258823529412,1887.1882352941177,7
2024-06-13 19:55:52,0.09651670605,-0.0293215327,0.04398229718,2.518700123,-6.050147533,6.890512466,127.79310344827586,-96.0344827586207,-264.41379310344826,-2156.448275862069,-8220.48275862069,1796.655172413793,7
2024-06-13 19:55:52,0.1246165112,-0.06963863969,-0.04031710699,2.458845139,-6.959944248,6.842628479,311.4606741573034,-81.57303370786516,-345.7977528089888,-2114.089887640449,-7904.573033707865,1749.9775280898875,7
2024-06-13 19:55:52,0.1246165112,-0.06963863969,-0.04031710699,2.458845139,-6.959944248,6.842628479,-106.9438202247191,-17.235955056179776,-64.79775280898876,-2105.505617977528,-7855.303370786517,1763.1685393258426,7
2024-06-13 19:55:52,0.02443460934,0.06230825558,-0.03176499158,2.236184359,-7.026981831,6.947973251,-538.5747126436781,-287.95402298850576,64.95402298850576,-1992.3563218390805,-8219.137931034482,1884.436781609196,7
2024-06-13 19:55:52,0.02443460934,0.06230825558,-0.03176499158,2.236184359,-7.026981831,6.947973251,-520.4057142857143,32.80571428571429,-47.53714285714285,-1974.622857142857,-8004.828571428571,1839.028571428572,7
2024-06-13 19:55:53,-0.05864306539,0.0354301855,-0.00244346098,1.927332401,-6.955155849,7.031770229,-521.9130434782609,73.47826086956522,-40.60869565217392,-1976.8260869565213,-8182.652173913044,1841.304347826087,7
2024-06-13 19:55:53,-0.05009094998,-0.04764748737,0.007330383174,2.205059767,-6.880935669,7.007828236,82.7890625,203.609375,-213.6328125,-1992.625,-8103.7890625,1867.3515625,7
2024-06-13 19:55:53,-0.05009094998,-0.04764748737,0.007330383174,2.205059767,-6.880935669,7.007828236,504.25274725274727,357.08791208791206,-198.3296703296704,-1963.3736263736264,-7869.43956043956,1700.901098901099,7
2024-06-13 19:55:53,-0.04642575979,0.03787364438,0.04642575979,2.401384354,-6.861782074,6.87614727,-177.475,-34.825,-195.55,-1940.275,-7883.35,1774.425,7
2024-06-13 19:55:53,0.04031710699,0.02076941915,-0.00244346098,2.181117773,-6.892906666,6.936002254,-367.21232876712327,-296.6506849315069,-122.33561643835615,-1995.4109589041093,-7963.109589041096,1764.458904109589,7
2024-06-13 19:55:53,0.04031710699,0.02076941915,-0.00244346098,2.181117773,-6.892906666,6.936002254,-325.43150684931504,-313.7739726027397,37.253424657534254,-2069.3835616438355,-8202.835616438357,1787.0616438356165,7
2024-06-13 19:55:53,-0.02565634064,0.03054326214,-0.03054326214,2.003946781,-6.883329868,6.940790653,-523.3854748603352,-63.33519553072625,53.452513966480446,-2128.893854748603,-7847.949720670391,1779.1787709497207,7
2024-06-13 19:55:53,-0.02565634064,0.03054326214,-0.03054326214,2.003946781,-6.883329868,6.940790653,-702.1564245810056,-84.00558659217877,-23.642458100558656,-2150.68156424581,-7889.849162011174,1763.536312849162,7
2024-06-13 19:55:53,-0.0109955743,-0.0293215327,0.00244346098,2.164358377,-6.880935669,6.890512466,351.7283950617284,86.49382716049382,-301.25925925925924,-2099.9506172839506,-8206.58024691358,1715.9506172839506,7
2024-06-13 19:55:53,0.00244346098,-0.006108652335,-0.01221730467,2.346317768,-7.000645638,6.852205276,322.4175824175824,-76.76923076923077,-323.1208791208791,-2066.4835164835163,-7890.516483516483,1762.637362637363,7
2024-06-13 19:55:54,0.00244346098,-0.006108652335,-0.01221730467,2.346317768,-7.000645638,6.852205276,-956.5333333333332,-288.26666666666665,-16.6,-2076.4,-8250.2,1720.9333333333334,7
2024-06-13 19:55:54,-0.01588249579,-0.01954768784,-0.01954768784,2.173935175,-6.995857239,6.871358871,7.689655172413793,97.27586206896552,-280.8965517241379,-2067.896551724138,-7953.413793103448,1892.551724137931,7
2024-06-13 19:55:54,-0.02443460934,-0.02809980139,-0.0109955743,2.202665567,-6.959944248,6.842628479,46.94318181818182,96.72727272727272,-311.5,-1983.159090909091,-8120.488636363636,1836.625,7
2024-06-13 19:55:54,-0.02443460934,-0.02809980139,-0.0109955743,2.202665567,-6.959944248,6.842628479,-379.44444444444446,-125.22222222222224,-311.1666666666667,-1759.8333333333333,-8215.944444444445,1763.3333333333333,7
2024-06-13 19:55:54,-0.00244346098,0.01466076635,0.02199114859,2.205059767,-7.017405033,6.861782074,-181.9655172413793,55.58620689655172,-257.0,-1673.7241379310344,-8248.448275862069,1824.0689655172407,7
2024-06-13 19:55:54,-0.00244346098,0.01466076635,0.02199114859,2.205059767,-7.017405033,6.861782074,-71.40909090909093,-75.68181818181819,-78.36363636363637,-1786.5227272727273,-8284.318181818182,1858.6818181818185,7
2024-06-13 19:55:54,0.009773843922,-0.00244346098,-0.00244346098,2.284068346,-7.10599041,6.816292286,209.11111111111111,223.3888888888889,75.94444444444444,-1773.611111111111,-8163.722222222223,1764.0555555555557,7
2024-06-13 19:55:54,0.008552113548,-0.004886921961,-0.009773843922,2.19308877,-7.098807812,6.818686485,343.4367816091954,211.44827586206893,100.22988505747126,-1713.103448275862,-8204.689655172413,1737.7011494252874,7
2024-06-13 19:55:54,0.008552113548,-0.004886921961,-0.009773843922,2.19308877,-7.098807812,6.818686485,-356.5629139072848,250.10596026490063,-66.97350993377484,-1719.092715231788,-8104.503311258278,1745.3774834437086,7
2024-06-13 19:55:55,-0.01466076635,0.0,0.01588249579,2.329558372,-6.957550049,6.84023428,-86.62068965517241,-66.03448275862068,-3.931034482758619,-2016.551724137931,-7885.931034482759,1686.5172413793102,7
2024-06-13 19:55:55,-0.01466076635,0.0,0.01588249579,2.329558372,-6.957550049,6.84023428,-138.02747252747253,-85.68681318681318,-287.42857142857144,-1760.2472527472528,-7919.978021978022,1696.2747252747254,7
2024-06-13 19:55:55,0.00122173049,0.006108652335,-0.004886921961,2.367865562,-7.02937603,6.777985096,-178.13736263736263,-88.43406593406593,-273.1428571428572,-1721.2362637362637,-8107.89010989011,1697.3736263736264,7
2024-06-13 19:55:55,0.00122173049,0.006108652335,-0.004886921961,2.367865562,-7.02937603,6.777985096,-98.48101265822784,-6.341772151898738,3.569620253164558,-1818.2278481012656,-8179.316455696203,1857.379746835443,7
2024-06-13 19:55:55,-0.0171042271,0.03787364438,0.01466076635,2.245761156,-6.986280441,6.856993675,112.2,276.8,51.0,-1729.6,-8233.0,1852.0,7
2024-06-13 19:55:55,0.2333505303,-0.06963863969,0.02076941915,2.401384354,-7.182605267,7.319074631,339.264367816092,-41.83908045977012,-150.71264367816093,-1726.16091954023,-8211.586206896553,1911.551724137931,7
2024-06-13 19:55:55,0.2333505303,-0.06963863969,0.02076941915,2.401384354,-7.182605267,7.319074631,-21.4942528735632,-43.86206896551724,-308.45977011494256,-1704.057471264368,-8205.183908045978,1697.1149425287356,7
2024-06-13 19:55:55,-1.335351467,0.7318165898,0.4764748812,2.219424963,-7.180211067,13.9055233,-382.0689655172414,-9.93103448275862,24.13793103448276,-1911.9655172413795,-8206.068965517241,1740.6206896551723,7
2024-06-13 19:55:55,-0.9004153609,1.65544486,2.744006634,-2.956839085,-12.07635307,4.357447147,-234.2022471910112,-104.42696629213484,81.15730337078652,-1905.23595505618,-8194.269662921348,1735.1573033707866,7
2024-06-13 19:55:55,-0.9004153609,1.65544486,2.744006634,-2.956839085,-12.07635307,4.357447147,-570.0,23.43820224719101,-104.93258426966293,-1912.7865168539329,-8201.52808988764,1737.2696629213483,7
2024-06-13 19:55:56,1.025031924,0.2406809032,2.105041742,-4.469974518,-5.102043629,3.256114244,-481.6896551724138,14.620689655172413,78.37931034482759,-1881.0344827586207,-8266.103448275862,1818.4137931034484,7
2024-06-13 19:55:56,1.025031924,0.2406809032,2.105041742,-4.469974518,-5.102043629,3.256114244,-237.3111111111111,71.62222222222222,331.53333333333336,-1689.9333333333334,-8300.68888888889,1719.2888888888888,7
2024-06-13 19:55:56,2.269975185,-1.136209369,0.4544837475,-5.013458252,-2.911349297,5.303156853,-95.5287356321839,257.32183908045977,350.5287356321839,-1714.5632183908046,-8284.229885057472,1663.5172413793102,7
2024-06-13 19:55:56,1.409876943,-1.236391306,-0.006108652335,-2.343923569,-0.2011129409,7.855375767,233.15384615384616,194.53846153846155,328.3076923076923,-1968.692307692308,-8054.7692307692305,1531.2307692307693,7
2024-06-13 19:55:56,1.409876943,-1.236391306,-0.006108652335,-2.343923569,-0.2011129409,7.855375767,-0.4285714285714306,92.28571428571428,83.28571428571429,-2095.714285714286,-8248.0,1860.2857142857144,7
2024-06-13 19:55:56,0.1893682331,-0.6108652353,0.3970624208,-1.431732655,1.565807939,9.660603523,-102.07734806629836,-109.40331491712708,35.30939226519337,-2111.9116022099447,-7856.701657458563,1898.0386740331487,7
2024-06-13 19:55:56,0.4300491214,-0.2944370508,0.5595525503,-2.039859772,1.812410712,9.334992409,-331.9116022099448,-122.11049723756906,54.646408839779006,-2106.386740331492,-7813.055248618784,1912.9558011049724,7
2024-06-13 19:55:56,0.4300491214,-0.2944370508,0.5595525503,-2.039859772,1.812410712,9.334992409,-378.2068965517241,269.0344827586207,667.6551724137931,-1767.655172413793,-8154.3448275862065,1874.103448275862,7
2024-06-13 19:55:56,-1.127657294,-0.1368338168,0.0720821023,-1.218648672,-0.248996973,11.99734497,-650.4651162790698,758.3953488372093,2581.6976744186045,-2238.3488372093025,-8213.43023255814,1771.7674418604652,7
2024-06-13 19:55:56,-1.127657294,-0.1368338168,0.0720821023,-1.218648672,-0.248996973,11.99734497,-1487.7222222222222,1122.861111111111,4324.111111111111,-2774.4444444444443,-7911.277777777777,1428.736111111111,7
2024-06-13 19:55:57,-0.8600982428,0.1624901593,-0.1539380401,-1.838746905,-1.26413846,9.909601212,-1826.611111111111,1042.3055555555557,4768.555555555556,-3052.222222222222,-7672.388888888889,1235.6805555555557,7
2024-06-13 19:55:57,0.2638937831,0.9590584636,0.05253441259,-2.363077164,3.224989653,9.229647636,-5580.77108433735,395.81927710843377,9600.843373493975,-5673.759036144578,-5477.855421686747,205.6265060240964,7
2024-06-13 19:55:57,0.2638937831,0.9590584636,0.05253441259,-2.363077164,3.224989653,9.229647636,-7983.8,823.0,8813.6,-6603.8,-3530.8,-988.2,7
2024-06-13 19:55:57,3.477045059,-0.7403686643,-0.145385921,-2.659958124,5.27682066,7.381323814,-6801.552941176471,-277.7058823529412,6496.823529411765,-7652.941176470588,-2082.5529411764705,-1917.741176470588,7
2024-06-13 19:55:57,-2.406809092,0.4960225821,-0.1869247705,-3.004723072,5.360617638,7.046135426,-6004.913043478261,-727.9130434782609,6435.086956521739,-7835.913043478261,-1874.608695652174,-1954.8260869565213,7
2024-06-13 19:55:57,-2.406809092,0.4960225821,-0.1869247705,-3.004723072,5.360617638,7.046135426,200.32926829268283,-2196.4634146341464,954.939024390244,-7487.512195121952,-1475.2682926829268,-1178.560975609756,7
2024-06-13 19:55:57,-0.8955284357,0.6035348773,-0.3921754956,-3.033453465,-2.030282974,8.300697327,957.6153846153846,-432.0,1913.3076923076924,-7871.153846153846,-727.9230769230769,-700.3076923076923,7
2024-06-13 19:55:57,-0.8955284357,0.6035348773,-0.3921754956,-3.033453465,-2.030282974,8.300697327,-1112.0,-130.72727272727272,1277.909090909091,-7611.818181818182,-369.27272727272725,-1242.4545454545455,7
2024-06-13 19:55:57,1.298699498,-0.9786061049,0.2089159191,-1.553836942,2.786850691,9.016563416,-166.27272727272725,-50.909090909090935,118.45454545454544,-7610.454545454545,-435.09090909090907,-1233.5454545454545,7
2024-06-13 19:55:57,-3.36464572,0.3946189582,-0.06597344577,-2.516305923,-0.3447650373,7.374141216,1878.2,544.0,1567.0,-8728.2,608.4,-2015.8,7
2024-06-13 19:55:58,-3.36464572,0.3946189582,-0.06597344577,-2.516305923,-0.3447650373,7.374141216,1331.186046511628,297.06976744186045,2313.279069767442,-7308.720930232558,1851.3023255813955,-1340.186046511628,7
2024-06-13 19:55:58,-0.3543018401,0.4386012554,-0.1954768747,-1.836352706,-2.609679937,9.191340446,194.48275862068965,-295.7241379310345,1405.2413793103449,-7195.724137931034,1255.344827586207,-1367.7586206896551,7
2024-06-13 19:55:58,0.5766568184,-0.7037167549,0.3799581826,-1.134851575,3.787626982,9.370905876,997.4388489208632,-400.1798561151079,-1075.7482014388488,-7414.841726618705,1116.0,-1604.7194244604316,7
2024-06-13 19:55:58,0.5766568184,-0.7037167549,0.3799581826,-1.134851575,3.787626982,9.370905876,1114.875,-840.125,274.0,-8198.5,1596.875,-1496.75,7
2024-06-13 19:55:58,-1.058018565,0.2638937831,0.07330382615,-0.9121908545,1.314416766,9.255983353,1862.617021276596,-975.936170212766,1134.276595744681,-8000.063829787234,1845.212765957447,-1195.4255319148936,7
2024-06-13 19:55:58,-1.058018565,0.2638937831,0.07330382615,-0.9121908545,1.314416766,9.255983353,1553.888888888889,-1109.5,-397.6388888888889,-7314.472222222223,990.3055555555557,-817.8611111111111,7
2024-06-13 19:55:58,-0.5351179838,-0.09896016866,0.1661553532,-1.216254473,-0.6129156351,9.165003777,1301.111111111111,-947.0,-538.6111111111111,-7351.277777777777,972.9444444444443,-789.3888888888889,7
2024-06-13 19:55:58,0.2211332172,0.2956587672,-0.09285151958,-2.061407566,-0.3375824392,9.746794701,664.5176470588235,272.6470588235294,428.8588235294118,-7675.447058823529,1588.5176470588235,-755.8823529411765,7
2024-06-13 19:55:58,0.2211332172,0.2956587672,-0.09285151958,-2.061407566,-0.3375824392,9.746794701,-257.5483870967742,831.9032258064516,665.7096774193549,-7760.967741935484,1521.6774193548388,-722.8387096774194,7
2024-06-13 19:55:58,-0.3677408695,1.233947754,-0.01954768784,-1.659181833,-0.1532289088,8.817844391,-56.25581395348837,853.8139534883721,201.86046511627907,-7780.744186046511,1279.6511627906978,-900.3953488372093,7
2024-06-13 19:55:59,-1.400103092,0.9456194043,-0.6145304441,-2.473210335,-1.905784607,5.72214222,-68.33333333333334,610.7222222222222,152.61111111111111,-7746.166666666667,1112.888888888889,-1655.5555555555557,7
2024-06-13 19:55:59,-1.400103092,0.9456194043,-0.6145304441,-2.473210335,-1.905784607,5.72214222,583.0344827586207,-326.0,801.5862068965517,-7699.3448275862065,1337.2758620689656,-2046.5517241379312,7
2024-06-13 19:55:59,-2.486221552,0.428827405,-1.345125318,-3.988739967,-6.050147533,5.394136429,834.7613636363636,-1736.6704545454545,1.181818181818187,-8065.431818181818,2381.25,-976.3977272727273,7
2024-06-13 19:55:59,-0.1783726513,-0.2663372457,-1.412320495,-3.871424198,-10.57279491,6.282385349,-1086.086956521739,-446.695652173913,-949.804347826087,-7858.95652173913,1732.2391304347825,-5.695652173913061,7
2024-06-13 19:55:59,-0.1783726513,-0.2663372457,-1.412320495,-3.871424198,-10.57279491,6.282385349,-1022.5909090909092,454.59090909090907,-487.8636363636364,-7789.590909090909,512.8181818181819,-857.8636363636364,7
2024-06-13 19:55:59,0.9981538057,-0.3567453027,-0.3225368559,-1.948880196,-9.22725296,6.402095318,-384.83333333333337,175.33333333333334,458.5,-8094.833333333333,1086.8333333333333,-905.6666666666666,7
2024-06-13 19:55:59,0.9981538057,-0.3567453027,-0.3225368559,-1.948880196,-9.22725296,6.402095318,460.6791443850268,-765.0320855614973,72.14973262032086,-8244.0,1342.8181818181818,-674.6684491978609,7
2024-06-13 19:55:59,0.1673770845,-0.03054326214,-0.1136209369,-1.391031146,-6.962338448,6.739677906,579.3957219251337,-713.1604278074866,-103.25133689839572,-8244.0,1270.090909090909,-477.3422459893048,7
2024-06-13 19:55:59,0.3103195429,0.0293215327,-0.04642575979,-0.940921247,-6.624756336,7.508216381,-660.5537190082645,805.8925619834711,-662.6446280991736,-7996.504132231405,786.5867768595041,-462.1404958677686,7
2024-06-13 19:55:59,0.3103195429,0.0293215327,-0.04642575979,-0.940921247,-6.624756336,7.508216381,-628.3223140495868,670.3553719008264,424.1322314049587,-8194.02479338843,434.5206611570248,-777.8429752066115,7
2024-06-13 19:56:00,0.8112290502,0.6511823535,-0.01221730467,-1.108515382,-7.156269073,8.056488991,-477.68888888888887,11.222222222222229,1023.3777777777776,-7984.622222222222,1597.977777777778,-1061.111111111111,7
2024-06-13 19:56:00,-0.6230825782,1.081231475,1.055575132,-5.202600479,-7.046135426,8.892065048,-275.3571428571429,-142.6904761904762,54.26190476190476,-7640.75,1622.8809523809523,-770.452380952381,7
2024-06-13 19:56:00,-0.6230825782,1.081231475,1.055575132,-5.202600479,-7.046135426,8.892065048,-318.7142857142857,74.07142857142857,48.71428571428572,-7573.892857142857,1464.5,-718.4285714285714,7
2024-06-13 19:56:00,-2.907718658,-0.6084218025,1.528384805,-5.367800236,-6.246472359,2.480392933,-371.6823529411765,209.2117647058824,-216.9294117647059,-7986.976470588235,1802.2235294117647,-1134.3058823529411,7
2024-06-13 19:56:00,-2.907718658,-0.6084218025,1.528384805,-5.367800236,-6.246472359,2.480392933,-153.46666666666667,-49.4,-174.82222222222222,-8022.088888888888,1457.7111111111112,-1137.9555555555555,7
2024-06-13 19:56:00,-1.082453251,-0.5461135507,-0.4569272101,-1.575384736,-6.009446144,4.546588898,-277.47222222222223,-329.0,89.80555555555556,-7963.25,1675.7222222222222,-990.8055555555557,7
2024-06-13 19:56:00,1.661553502,-0.1307251602,-0.3115412891,-5.018246651,-8.73404789,4.611232281,-271.3611111111111,-249.0,137.02777777777777,-7988.25,1754.611111111111,-818.0277777777778,7
2024-06-13 19:56:00,1.661553502,-0.1307251602,-0.3115412891,-5.018246651,-8.73404789,4.611232281,369.4814814814815,-398.9629629629629,-319.48148148148147,-7752.814814814815,1374.888888888889,-672.925925925926,7
2024-06-13 19:56:00,0.08063421398,-0.1820378453,-0.3213151097,-4.493916512,-7.860164165,4.963180065,-250.8850574712644,-483.2298850574713,-474.4712643678161,-8251.436781609196,1715.3563218390805,-417.367816091954,7
2024-06-13 19:56:00,0.08063421398,-0.1820378453,-0.3213151097,-3.505111217,-9.124302864,6.739677906,-1070.4545454545455,-197.27272727272728,-1100.4545454545455,-7767.818181818182,1581.2727272727273,-611.6363636363636,7
2024-06-13 19:56:01,0.01343903504,0.08552113175,0.8271115422,-3.505111217,-9.124302864,6.739677906,-741.3103448275862,-321.55172413793105,-2313.689655172414,-7636.620689655172,1339.103448275862,-286.55172413793105,7
2024-06-13 19:56:01,0.283441484,0.2101376504,1.514945865,-5.425261021,-6.323086739,5.137956619,-1237.3595505617975,528.0674157303371,-1449.7191011235957,-8242.943820224718,720.5168539325842,-623.4269662921348,7
2024-06-13 19:56:01,0.283441484,0.2101376504,1.514945865,-5.425261021,-6.323086739,5.137956619,-462.1333333333333,-22.066666666666663,-906.3333333333334,-8087.4,160.0,-610.1333333333333,7
2024-06-13 19:56:01,0.5925393105,0.1038470939,1.43064642,-6.155492783,-4.563348293,4.953603268,369.0,281.3333333333333,-390.1666666666667,-7908.833333333333,-65.66666666666667,-513.1666666666666,7
2024-06-13 19:56:01,0.7916813493,0.006108652335,1.093448758,-7.304709435,-2.195482969,5.71974802,816.9213483146067,562.0449438202247,-218.247191011236,-7905.5842696629215,-64.50561797752809,-393.2134831460674,7
2024-06-13 19:56:01,0.7916813493,0.006108652335,1.093448758,-7.304709435,-2.195482969,5.71974802,-320.36423841059604,253.81456953642385,771.7019867549669,-8114.556291390729,202.9337748344371,-874.9271523178808,7
2024-06-13 19:56:01,0.4642575979,-0.04642575979,1.105666041,-7.194576263,-0.3543418646,5.889736176,-277.317880794702,112.09271523178808,879.6490066225166,-8239.721854304637,238.03311258278143,-883.5364238410596,7
2024-06-13 19:56:01,0.4642575979,-0.04642575979,1.105666041,-7.702147007,1.697489023,5.712565422,252.0,-296.2926829268293,913.1219512195122,-7872.951219512195,544.0,-733.829268292683,7
2024-06-13 19:56:01,0.03787364438,0.1392772794,1.094670534,-7.702147007,1.697489023,5.712565422,-1188.2444444444443,-674.3333333333334,-205.7555555555556,-8150.355555555556,802.3111111111111,-685.4888888888888,7
2024-06-13 19:56:01,0.2944370508,-0.09040805697,1.036027431,-7.192182064,3.550601006,5.786785603,-353.248322147651,-1332.2751677852348,-576.751677852349,-7892.073825503356,307.5436241610738,-65.38255033557047,7
2024-06-13 19:56:02,0.2944370508,-0.09040805697,1.036027431,-7.192182064,3.550601006,5.786785603,1039.888888888889,284.6296296296296,477.7407407407408,-8421.814814814816,992.6666666666666,-368.8518518518519,7
2024-06-13 19:56:02,0.5302310586,-0.2419026345,0.6072000265,-6.172252178,4.041412354,5.480327606,-306.123595505618,28.0561797752809,202.8202247191012,-7788.033707865168,688.5393258426966,-274.40449438202245,7
2024-06-13 19:56:02,0.5204572082,-0.1392772794,0.3738495409,-5.810727596,5.128379822,5.23611927,-226.44827586206893,550.264367816092,250.5862068965517,-8155.6551724137935,641.9540229885057,-531.4137931034483,7
2024-06-13 19:56:02,0.5204572082,-0.1392772794,0.3738495409,-5.810727596,5.128379822,5.23611927,-446.4666666666667,432.8666666666667,11.0,-8617.466666666667,466.53333333333336,-236.86666666666667,7
2024-06-13 19:56:02,0.3616322279,-0.1392772794,0.2333505303,-5.391742229,5.497087002,5.015852451,232.1529411764706,-48.45882352941177,-68.07058823529411,-8149.788235294118,1205.1764705882354,-575.8588235294118,7
2024-06-13 19:56:02,0.3616322279,-0.1392772794,0.2333505303,-5.391742229,5.497087002,5.015852451,-136.93258426966293,408.3707865168539,469.6179775280899,-7424.516853932584,1159.7752808988764,-242.370786516854,7
2024-06-13 19:56:02,0.2089159191,-0.06719517708,0.1001819,-5.245696068,6.253654957,4.879383087,-344.3333333333333,809.6666666666667,788.6666666666666,-7721.611111111111,1493.8333333333333,-468.1111111111111,7
2024-06-13 19:56:02,0.1734857261,-0.05619960278,0.07819075137,-5.264849663,6.387730122,4.781220913,-1040.225806451613,530.1397849462365,675.752688172043,-8358.021505376344,1307.0537634408602,-670.7311827956989,7
2024-06-13 19:56:02,0.1734857261,-0.05619960278,0.07819075137,-5.264849663,6.387730122,4.781220913,-1118.797619047619,236.73809523809524,708.5952380952381,-7972.75,1265.607142857143,-832.9404761904761,7
2024-06-13 19:56:02,0.2382374406,-0.08185594529,0.05375614017,-5.023035049,6.605602264,4.690241337,153.07865168539325,351.4943820224719,289.3932584269663,-7937.112359550561,1215.3370786516855,-815.5842696629213,7
2024-06-13 19:56:03,0.1869247705,-0.06230825558,0.008552113548,-4.994304657,6.885724068,4.393360138,289.6666666666667,-112.77777777777776,315.8333333333333,-7989.833333333333,1812.388888888889,-895.5555555555555,7
2024-06-13 19:56:03,0.1869247705,-0.06230825558,0.008552113548,-4.994304657,6.885724068,4.393360138,-350.97080291970804,83.58394160583941,-123.36496350364963,-8013.102189781021,1466.4014598540143,-820.1167883211679,7
2024-06-13 19:56:03,0.07086037099,-0.03909537569,-0.00244346098,-4.86980629,6.830657482,4.364629745,-307.9051094890511,44.8978102189781,-111.68613138686132,-8013.832116788321,1433.5547445255474,-792.3795620437957,7
2024-06-13 19:56:03,0.06352998316,-0.03054326214,-0.00122173049,-4.920084476,7.077260017,4.362235546,-50.28571428571428,-254.5833333333333,-91.8095238095238,-7893.166666666667,1505.809523809524,-699.1785714285714,7
2024-06-13 19:56:03,0.06352998316,-0.03054326214,-0.00122173049,-4.920084476,7.077260017,4.362235546,-378.8444444444444,301.6666666666667,-3.799999999999997,-8013.577777777778,1493.911111111111,-660.6666666666666,7
2024-06-13 19:56:03,0.006108652335,-0.009773843922,0.0,-4.876988888,6.904877663,4.388571739,278.2037037037037,-17.11111111111111,315.8703703703704,-7735.907407407408,1831.6851851851848,-961.9074074074074,7
2024-06-13 19:56:03,0.006108652335,-0.009773843922,0.0,-4.876988888,6.904877663,4.388571739,315.858024691358,-46.74074074074074,364.6358024691358,-7927.882716049383,1697.7345679012346,-787.216049382716,7
2024-06-13 19:56:03,0.007330383174,-0.05253441259,-0.007330383174,-4.881777287,6.921637058,4.438849926,321.6792452830189,-134.80188679245282,289.3962264150944,-7985.943396226415,2039.0,-671.4433962264151,7
2024-06-13 19:56:03,0.03787364438,0.0232128799,-0.01832595654,-4.893748283,6.854599476,4.388571739,-360.9473684210526,-316.5263157894737,-210.15789473684208,-8018.578947368421,1276.7368421052631,-196.73684210526315,7
2024-06-13 19:56:03,0.03787364438,0.0232128799,-0.01832595654,-4.893748283,6.854599476,4.388571739,42.27586206896552,593.2068965517242,159.89655172413794,-7871.3448275862065,1907.896551724138,-833.8620689655172,7
2024-06-13 19:56:04,0.05375614017,-0.02687807009,-0.01588249579,-4.826710701,6.962338448,4.311957359,24.235955056179776,261.86516853932585,214.7977528089888,-7798.168539325843,1731.9887640449438,-855.9213483146067,7
2024-06-13 19:56:04,0.0109955743,-0.0171042271,-0.0109955743,-4.879383087,7.031770229,4.211400986,227.5347593582888,52.05347593582888,-0.5828877005347621,-7617.877005347594,1743.1283422459894,-819.4705882352941,7
2024-06-13 19:56:04,0.0109955743,-0.0171042271,-0.0109955743,-4.879383087,7.031770229,4.211400986,-247.33155080213908,44.56684491978609,-198.97860962566844,-7775.096256684492,1805.1604278074867,-813.5882352941177,7
2024-06-13 19:56:04,0.004886921961,0.0293215327,-0.03298672289,-4.970362663,6.924031258,4.395754337,-753.873417721519,-738.8227848101266,-387.1012658227848,-7797.189873417721,1385.4430379746836,-193.27848101265823,7
2024-06-13 19:56:04,0.004886921961,0.0293215327,-0.03298672289,-4.970362663,6.924031258,4.395754337,94.44444444444444,163.27777777777777,-142.27777777777777,-8126.611111111111,1350.0555555555557,-223.16666666666669,7
2024-06-13 19:56:04,-0.004886921961,0.00244346098,-0.02565634064,-4.891354084,6.926425457,4.220977783,278.10227272727275,467.95454545454544,-88.2840909090909,-7743.954545454545,1978.647727272728,-597.2954545454545,7
2024-06-13 19:56:04,-0.1588249654,0.07086037099,-0.06719517708,-4.94642067,6.708553314,4.326322556,90.56521739130434,568.695652173913,30.75,-7603.391304347826,1815.0978260869565,-547.6413043478261,7
2024-06-13 19:56:04,-0.1588249654,0.07086037099,-0.06719517708,-4.94642067,6.708553314,4.326322556,-532.5897435897436,-158.71794871794873,-228.0769230769231,-8241.102564102564,1404.076923076923,-272.43589743589746,7
2024-06-13 19:56:04,-0.3970624208,0.01954768784,-0.1185078546,-5.128379822,6.397306919,4.601655483,-66.0909090909091,-4.0,-750.8181818181819,-7921.727272727273,1442.909090909091,-350.1818181818182,7
2024-06-13 19:56:04,-0.7257078886,0.07330382615,-0.3127630055,-5.035006046,6.042964935,5.013458252,-261.3820224719101,425.91011235955057,-338.6292134831461,-7643.426966292135,1526.887640449438,-581.7303370786517,7
2024-06-13 19:56:05,-0.7257078886,0.07330382615,-0.3127630055,-5.035006046,6.042964935,5.013458252,-215.92134831460675,521.8202247191011,107.49438202247192,-7679.5842696629215,1543.0224719101125,-300.7191011235955,7
2024-06-13 19:56:05,-1.147204876,0.2113593817,-1.059240341,-5.499481201,4.8291049,5.080495834,-519.5882352941177,264.8235294117647,220.1764705882353,-8104.529411764706,1488.1764705882354,-763.7647058823529,7
2024-06-13 19:56:05,-1.147204876,0.2113593817,-1.059240341,-5.499481201,4.8291049,5.080495834,-433.4919786096257,18.83422459893046,293.4385026737968,-8124.31550802139,1279.6203208556149,-678.2032085561498,7
2024-06-13 19:56:05,-1.210734963,0.008552113548,-1.822821856,-6.43321991,2.602497339,6.078877926,-378.4814814814815,-30.51851851851852,162.62962962962962,-8178.728395061728,1065.9135802469136,-576.9135802469136,7
2024-06-13 19:56:05,-0.813672483,-0.2638937831,-2.240653753,-6.481103897,-1.302445769,6.370970726,-463.4318181818182,718.6818181818182,-86.59090909090907,-7683.090909090909,1464.7045454545455,-997.75,7
2024-06-13 19:56:05,-0.813672483,-0.2638937831,-2.240653753,-6.481103897,-1.302445769,6.370970726,-767.4285714285714,573.2261904761905,742.5,-8212.261904761905,1668.8333333333333,-1262.0,7
2024-06-13 19:56:05,-0.4899139404,-0.3995058835,-1.904677868,-5.410895824,-5.15950489,6.514622688,-249.9090909090909,-170.4090909090909,21.68181818181813,-7866.727272727273,2107.2727272727275,-924.5909090909092,7
2024-06-13 19:56:05,-0.2076941878,-0.2883284092,-1.241278172,-3.327940464,-7.096413612,6.974309444,872.2173913043479,-385.39130434782606,76.52173913043478,-7786.826086956522,766.9130434782609,-206.2608695652173,7
2024-06-13 19:56:05,-0.2076941878,-0.2883284092,-1.241278172,-3.327940464,-7.096413612,6.974309444,-519.8023255813954,1074.0,-235.56976744186048,-8239.127906976744,850.7325581395348,-772.8720930232558,7
2024-06-13 19:56:05,-0.1722639948,0.0,-0.4679227769,-2.827552319,-7.812280178,6.670246124,-450.27906976744185,-151.34883720930233,6.04651162790698,-8178.976744186047,825.0,-706.7674418604652,7
2024-06-13 19:56:06,-0.1722639948,0.0,-0.4679227769,-2.827552319,-7.812280178,6.670246124,211.11111111111111,-703.5555555555555,181.16666666666663,-7835.111111111111,1511.611111111111,-833.1666666666666,7
2024-06-13 19:56:06,-0.04642575979,-0.0232128799,-0.145385921,-2.559401512,-7.723694801,6.327875137,-666.1176470588235,-187.05882352941177,72.29411764705883,-7838.235294117647,1845.2941176470588,-440.11764705882354,7
2024-06-13 19:56:06,0.1295034289,0.08429940045,-0.02687807009,-2.391807556,-7.141903877,6.58405447,-743.6577540106952,-166.7379679144385,25.23529411764705,-7875.133689839572,1725.5080213903743,-554.0213903743315,7
2024-06-13 19:56:06,0.1295034289,0.08429940045,-0.02687807009,-2.391807556,-7.141903877,6.58405447,-540.3918918918919,-29.445945945945937,-1240.2837837837835,-7902.72972972973,1363.0945945945946,-265.0405405405405,7
2024-06-13 19:56:06,0.09896016866,-0.03298672289,-0.1747074574,-2.284068346,-7.094019413,7.204153061,-323.2173913043478,292.17391304347825,-1457.5217391304348,-7856.652173913043,1102.8260869565215,-170.3913043478261,7
2024-06-13 19:56:06,-1.668883801,1.262047648,0.1221730486,-0.3184288144,-4.553771496,5.035006046,-196.1818181818182,-316.97727272727275,-1192.1363636363635,-8087.045454545455,661.4318181818181,-360.5,7
2024-06-13 19:56:06,-1.668883801,1.262047648,0.1221730486,-0.3184288144,-4.553771496,5.035006046,-494.3333333333333,-36.0,-618.6666666666667,-8167.0,699.0,-325.0,7
2024-06-13 19:56:06,1.222952247,0.8429940343,-1.8875736,-4.34787035,-8.820239067,3.009511471,-1138.4512195121952,-80.42682926829268,1273.4024390243903,-8278.134146341463,689.7317073170732,-230.3780487804878,7
2024-06-13 19:56:06,1.222952247,0.8429940343,-1.8875736,-4.34787035,-8.820239067,3.009511471,-104.021978021978,-86.79120879120879,1620.8461538461538,-7855.054945054945,1034.3736263736264,70.7032967032967,7
2024-06-13 19:56:06,0.7415903807,-0.5864306092,-0.4422664344,-2.63601613,-10.60870743,7.175422668,398.1148648648648,310.1891891891892,967.4932432432432,-8042.439189189189,1587.3986486486488,-46.69594594594594,7
2024-06-13 19:56:07,0.05619960278,-0.2443460971,-0.00244346098,0.2777273953,-5.805939198,7.299921036,392.0337837837838,323.7027027027027,688.4391891891892,-8030.9527027027025,1601.587837837838,-239.26351351351352,7
2024-06-13 19:56:07,0.05619960278,-0.2443460971,-0.00244346098,0.2777273953,-5.805939198,7.299921036,-531.7078651685393,12.595505617977528,-48.87640449438202,-7999.449438202248,1535.6067415730338,-170.96629213483146,7
2024-06-13 19:56:07,-1.340238333,0.5949827433,0.6963863969,-1.091755986,-9.200917244,8.125920296,562.5,-496.8333333333333,-860.8888888888889,-7859.055555555556,911.8333333333334,89.83333333333334,7
2024-06-13 19:56:07,-1.340238333,0.5949827433,0.6963863969,-3.596091032,-8.851364136,6.088454723,730.6043956043956,349.16483516483515,-779.4725274725274,-8027.923076923077,1117.043956043956,54.65934065934066,7
2024-06-13 19:56:07,-1.104444385,0.3469714522,1.0531317,-3.596091032,-8.851364136,6.088454723,-238.44444444444449,1006.4777777777778,-2053.333333333333,-7615.833333333333,1393.3111111111111,-152.7888888888889,7
2024-06-13 19:56:07,0.976162672,-0.1343903542,0.7684684992,-3.881000996,-6.660669327,5.125985622,-738.5393258426966,842.8202247191011,-1799.2247191011236,-7886.61797752809,266.0,-503.0561797752809,7
2024-06-13 19:56:07,0.976162672,-0.1343903542,0.7684684992,-3.881000996,-6.660669327,5.125985622,-953.0689655172414,-29.517241379310345,-219.0,-8366.448275862069,495.5517241379311,-664.9310344827586,7
2024-06-13 19:56:07,1.095892191,-0.5045747161,0.6035348773,-4.237737179,-5.595249176,6.232107162,-472.5384615384616,-464.8241758241758,-411.4065934065934,-7938.615384615385,-52.08791208791209,-488.8351648351649,7
2024-06-13 19:56:07,2.305405378,-0.7000515461,0.4434881806,-4.285621166,-3.754108191,7.841010571,-164.56976744186045,276.8255813953488,55.80232558139535,-7974.53488372093,43.72093023255814,-482.40697674418607,7
2024-06-13 19:56:07,2.305405378,-0.7000515461,0.4434881806,-4.285621166,-3.754108191,7.841010571,-5.0,340.5,-102.5,-7882.0,92.5,-787.5,7
2024-06-13 19:56:08,1.82770884,-0.5094616413,0.4056145251,-2.178723574,0.5985504389,9.35654068,-179.04494382022472,289.24719101123594,-75.75280898876406,-8259.460674157302,110.08988764044943,-720.2471910112359,7
2024-06-13 19:56:08,1.003040791,-0.3824016452,0.2577851415,-2.281674147,2.664746523,8.406042099,-288.9767441860465,212.93023255813952,280.5581395348837,-7833.302325581395,-53.3953488372093,-705.6744186046511,7
2024-06-13 19:56:08,1.003040791,-0.3824016452,0.2577851415,-2.281674147,2.664746523,8.406042099,-289.725,216.4625,117.3375,-7853.15,-108.125,-721.675,7
2024-06-13 19:56:08,-0.2822197378,-0.1869247705,-0.2663372457,-1.63763392,2.042253971,8.312667847,-259.46153846153845,79.23076923076923,66.61538461538461,-8123.384615384615,217.53846153846155,-956.5384615384615,7
2024-06-13 19:56:08,-0.2822197378,-0.1869247705,-0.2663372457,-1.63763392,2.042253971,8.312667847,-917.0344827586208,-366.3103448275862,-213.1379310344828,-7893.310344827586,-56.96551724137931,-495.9310344827586,7
2024-06-13 19:56:08,0.5180137157,-0.1209513173,-0.08552113175,-2.664746523,1.467645645,8.128314972,-169.0955414012739,84.21019108280255,-328.312101910828,-7883.08280254777,73.87261146496814,-403.61146496815286,7
2024-06-13 19:56:08,-0.2419026345,0.008552113548,0.145385921,-1.788468719,6.770802498,10.41238308,-244.89171974522293,110.96178343949045,-322.5796178343949,-7875.4394904458595,-60.52229299363057,-408.7070063694268,7
2024-06-13 19:56:08,-0.2419026345,0.008552113548,0.145385921,-1.788468719,6.770802498,10.41238308,-196.0,45.0,-304.5,-7886.5,-82.5,-411.0,7
2024-06-13 19:56:08,-0.7147123218,0.1307251602,-0.09896016866,-2.00873518,1.692700624,8.226476669,-23.967741935483872,-36.38709677419355,-116.74193548387098,-7916.483870967741,-83.19354838709677,-521.8064516129032,7
2024-06-13 19:56:08,0.728151381,-0.1356120855,-0.08307767659,-2.092532396,2.11647439,9.133879662,-106.6829268292683,-283.3536585365854,-195.67073170731703,-8011.170731707317,365.390243902439,-541.4268292682927,7
2024-06-13 19:56:09,0.728151381,-0.1356120855,-0.08307767659,-2.092532396,2.11647439,9.133879662,197.1935483870968,-53.53763440860215,-520.3440860215054,-7886.440860215053,354.752688172043,-604.3010752688172,7
2024-06-13 19:56:09,-0.4691445231,0.03054326214,-0.1246165112,-1.031900883,6.39491272,12.76827812,295.81395348837214,281.4418604651163,-267.62790697674416,-7979.930232558139,307.2093023255814,-430.1860465116279,7
2024-06-13 19:56:09,-0.4691445231,0.03054326214,-0.1246165112,-1.031900883,6.39491272,12.76827812,-299.68888888888887,-91.55555555555556,8.155555555555566,-7853.233333333334,-116.67777777777778,-449.3777777777778,7
2024-06-13 19:56:09,-1.011592865,0.1075122803,0.05864306539,-2.391807556,0.5195417404,8.59278965,-275.04545454545456,-111.20454545454544,82.89772727272727,-8280.204545454546,54.52272727272727,-765.7954545454545,7
2024-06-13 19:56:09,1.781283021,-0.2981022298,-0.09407325089,-3.12203908,0.2561795712,5.585672379,-269.8333333333333,-11.5,75.5,-8271.833333333334,123.33333333333331,-496.3333333333333,7
2024-06-13 19:56:09,1.781283021,-0.2981022298,-0.09407325089,-3.12203908,0.2561795712,5.585672379,-87.1685393258427,-291.4719101123595,-353.0449438202247,-8007.696629213483,-58.02247191011236,-435.9213483146068,7
2024-06-13 19:56:09,-0.1368338168,0.01954768784,0.1221730486,-1.692700624,5.808333397,11.63821411,90.48275862068964,57.88505747126437,12.942528735632184,-8213.689655172413,63.22988505747127,-242.31034482758625,7
2024-06-13 19:56:09,-0.1368338168,0.01954768784,0.1221730486,-1.505952835,-0.09816227108,8.214506149,-82.34482758620689,-28.86206896551724,39.03448275862069,-8220.057471264368,18.080459770114945,-222.0919540229885,7
2024-06-13 19:56:09,-0.9798278809,0.02687807009,0.0171042271,-1.505952835,-0.09816227108,8.214506149,2.88111888111888,-5.65034965034965,26.930069930069934,-8212.552447552447,37.671328671328666,-541.1888111888112,7
2024-06-13 19:56:09,1.296256065,-0.5778785348,-0.03787364438,-2.841917515,-0.3782838583,6.421248913,78.4390243902439,-41.31707317073171,-167.85365853658536,-8208.878048780487,-41.24390243902439,-583.3658536585366,7
2024-06-13 19:56:10,1.296256065,-0.5778785348,-0.03787364438,-2.841917515,-0.3782838583,6.421248913,-173.45882352941177,48.7764705882353,-44.858823529411765,-8262.188235294117,-78.75294117647059,-454.36470588235295,7
2024-06-13 19:56:10,-0.1392772794,-0.08063421398,0.1563815027,-0.6129156351,4.723760128,11.40358257,-530.5340909090909,-295.57954545454544,18.761363636363622,-8232.96590909091,57.07954545454547,-612.7272727272727,7
2024-06-13 19:56:10,0.5057964325,0.7745771408,-0.2076941878,-3.069366693,7.20894146,7.211335659,-125.24836601307187,-300.1111111111111,-386.90849673202615,-8075.16339869281,82.32679738562092,-369.0849673202614,7
2024-06-13 19:56:10,0.5057964325,0.7745771408,-0.2076941878,-3.069366693,7.20894146,7.211335659,-138.17241379310346,87.86206896551724,-336.48275862068965,-8259.551724137931,-293.1034482758621,-175.31034482758622,7
2024-06-13 19:56:10,-1.946216702,-0.17715092,0.04031710699,0.6177040339,2.109291792,10.56800652,-171.27272727272725,-211.27272727272725,-6.181818181818187,-8222.90909090909,-196.0,8.727272727272727,7
2024-06-13 19:56:10,1.576032281,-0.5192354321,0.1893682331,-1.953668594,1.00556469,6.009446144,-292.6923076923077,32.53846153846153,-199.92307692307693,-8036.846153846154,-367.84615384615387,-289.3076923076923,7
2024-06-13 19:56:10,1.576032281,-0.5192354321,0.1893682331,-1.953668594,1.00556469,6.009446144,-354.6931818181818,132.625,-23.59090909090909,-8086.397727272727,-173.73863636363637,-251.72727272727275,7
2024-06-13 19:56:10,2.765997887,-0.1795943826,-0.3628539443,-1.735796213,5.916072369,7.280767441,17.730337078651672,84.37078651685394,110.38202247191012,-7982.483146067416,-90.79775280898878,-182.08988764044943,7
2024-06-13 19:56:10,2.765997887,-0.1795943826,-0.3628539443,-1.735796213,5.916072369,7.280767441,-82.82954545454547,217.13636363636363,142.07954545454544,-8157.238636363636,98.67045454545456,-230.02272727272728,7
2024-06-13 19:56:10,-4.473977089,0.7269296646,-0.5778785348,-4.096478939,3.677493811,3.873818398,-241.83854166666669,306.4010416666667,10.166666666666671,-8231.583333333334,85.13020833333333,-354.4947916666667,7
2024-06-13 19:56:11,1.047023058,-0.4056145251,0.2125810981,-0.6177040339,-4.601655483,9.181763649,-361.109375,306.921875,-106.5,-8223.25,50.234375,-501.890625,7
2024-06-13 19:56:11,1.047023058,-0.4056145251,0.2125810981,-0.6177040339,-4.601655483,9.181763649,85.7159090909091,-33.54545454545455,-349.59090909090907,-8259.761363636364,-338.7613636363636,-558.1704545454545,7
2024-06-13 19:56:11,-1.825265408,1.381777167,-0.6609562039,-1.953668594,6.696582317,9.859322548,105.34782608695652,-47.369565217391305,-282.72826086956525,-8248.760869565218,-329.8804347826087,-563.4891304347826,7
2024-06-13 19:56:11,0.2296853364,-0.6805039048,0.2883284092,-2.341529369,-3.117250681,6.368576527,68.4186046511628,-10.313953488372093,63.41860465116279,-8222.0,-308.3837209302326,-572.9069767441861,7
2024-06-13 19:56:11,0.2296853364,-0.6805039048,0.2883284092,-2.341529369,-3.117250681,6.368576527,-299.4871794871795,-48.30769230769231,84.82051282051282,-8232.564102564103,-56.1025641025641,-613.5641025641025,7
2024-06-13 19:56:11,3.606548309,-0.5656611919,0.5962044597,-0.2561795712,11.25514221,8.726864815,-309.7435897435897,-52.15384615384615,78.41025641025641,-8231.28205128205,-224.05128205128204,-612.2820512820513,7
2024-06-13 19:56:11,3.606548309,-0.5656611919,0.5962044597,-0.2561795712,11.25514221,8.726864815,-295.7555555555556,-82.35555555555555,-29.677777777777777,-8219.7,1.8222222222222224,-625.4555555555555,7
2024-06-13 19:56:11,-2.271197081,0.1844813079,0.3885102868,-3.722983599,-5.114014626,8.46589756,-340.3793103448276,-53.31034482758622,-51.02298850574712,-8209.988505747126,37.11494252873563,-631.4137931034483,7
2024-06-13 19:56:11,2.171015024,0.1148426682,-0.04764748737,-4.548983097,1.690306425,8.793902397,-326.45454545454544,-75.75,54.09090909090909,-8236.78409090909,37.68181818181818,-389.8522727272728,7
2024-06-13 19:56:11,2.171015024,0.1148426682,-0.04764748737,-4.548983097,1.690306425,8.793902397,64.61538461538461,-121.0,-238.0,-8243.692307692309,-286.84615384615387,-606.6923076923077,7
2024-06-13 19:56:12,-1.484402537,1.200961113,0.03787364438,-2.552218914,2.882618904,10.26154804,13.898876404494382,283.561797752809,-38.831460674157306,-7933.685393258427,51.0,-614.3595505617977,7
2024-06-13 19:56:12,0.7342600226,-0.8002334833,0.3860668242,-3.239354849,0.2346317619,5.032611847,-241.7802197802198,13.494505494505496,184.021978021978,-8259.582417582418,54.46153846153846,-620.6813186813187,7
2024-06-13 19:56:12,0.7342600226,-0.8002334833,0.3860668242,-3.239354849,0.2346317619,5.032611847,41.2183908045977,-95.88505747126436,281.0919540229885,-8205.436781609196,101.4942528735632,-613.5862068965517,7
2024-06-13 19:56:12,-0.06597344577,0.06230825558,-0.06108652428,-3.296815634,1.589749932,9.765948296,-49.61538461538461,-83.07692307692308,30.23076923076924,-8214.846153846154,-80.6923076923077,-623.3076923076923,7
2024-06-13 19:56:12,-0.06597344577,0.06230825558,-0.06108652428,-3.296815634,1.589749932,9.765948296,21.62222222222222,-111.24444444444444,-16.95555555555555,-8040.766666666666,-9.811111111111115,-368.6444444444445,7
2024-06-13 19:56:12,-0.01466076635,-0.1087340117,-0.3628539443,-2.908955097,0.2513911724,8.846575737,-214.9647058823529,468.3764705882353,-79.5529411764706,-8061.411764705882,9.635294117647064,-458.3882352941176,7
2024-06-13 19:56:12,-2.30174017,1.330464482,-0.37751472,-1.731007814,1.199495077,6.543353081,-220.1073825503356,94.38255033557049,226.48322147651007,-8091.738255033557,60.59731543624161,-647.2818791946308,7
2024-06-13 19:56:12,-2.30174017,1.330464482,-0.37751472,-1.731007814,1.199495077,6.543353081,246.9642857142857,-147.85714285714286,399.6071428571429,-7888.464285714285,266.6428571428572,-398.7857142857143,7
2024-06-13 19:56:12,-1.69209671,0.7367035151,0.02687807009,-4.42448473,-4.71657753,8.125920296,113.45454545454548,-63.90909090909091,360.8522727272728,-8207.522727272728,502.1136363636364,-391.0568181818182,7
2024-06-13 19:56:12,-0.5644394755,-0.1429424733,-0.326202035,-5.310339451,-5.449203014,6.157886982,-268.9555555555556,77.31111111111112,66.88888888888889,-8208.222222222223,161.37777777777777,-524.4666666666667,7
2024-06-13 19:56:13,-0.5644394755,-0.1429424733,-0.326202035,-5.310339451,-5.449203014,6.157886982,37.86206896551724,18.172413793103445,-367.2988505747126,-7850.793103448276,147.09195402298852,-518.2413793103449,7
2024-06-13 19:56:13,-0.5253441334,-0.4948008358,-0.712268889,-4.441244125,-5.856217384,5.521028996,-295.1336898395722,357.52941176470586,-333.19786096256684,-8200.005347593584,152.05882352941177,-558.6256684491979,7
2024-06-13 19:56:13,-0.5253441334,-0.4948008358,-0.712268889,-4.441244125,-5.856217384,5.521028996,-195.66844919786087,351.6470588235294,-329.98930481283423,-8208.026737967915,240.29411764705884,-597.1283422459893,7
2024-06-13 19:56:13,-0.8246681094,-0.25167647,-1.220508814,-4.508281708,-7.685387611,6.68700552,-238.02564102564105,79.94871794871796,-22.256410256410263,-8224.615384615385,97.6153846153846,-627.5384615384615,7
2024-06-13 19:56:13,1.336573124,-0.5021312237,-1.066570759,-3.162740469,-7.61595583,6.859387875,317.2696629213483,79.32584269662921,-104.6629213483146,-7890.337078651685,358.8089887640449,-556.1123595505618,7
2024-06-13 19:56:13,1.336573124,-0.5021312237,-1.066570759,-3.162740469,-7.61595583,6.859387875,-197.01298701298705,-59.15584415584416,-51.35064935064935,-7837.350649350649,171.57142857142858,-599.1168831168832,7
2024-06-13 19:56:13,1.13254416,-0.669508338,-0.8820894361,0.9744400978,-5.588066578,7.611167431,-560.0,-21.53846153846154,-185.84615384615384,-7954.538461538462,188.7692307692308,-562.9230769230769,7
2024-06-13 19:56:13,0.6548475623,-0.3921754956,0.08918632567,0.8307880163,-3.124433279,7.546523571,291.1818181818182,83.52272727272727,282.6363636363636,-7830.704545454545,272.34090909090907,-602.4545454545455,7
2024-06-13 19:56:13,0.6548475623,-0.3921754956,0.08918632567,0.8307880163,-3.124433279,7.546523571,203.95652173913044,317.5652173913044,-361.5652173913044,-8111.565217391304,558.0434782608696,-636.1739130434783,7
2024-06-13 19:56:13,0.2064724565,-0.3445279896,0.2431243658,1.984793186,-4.972756863,7.484274387,132.67741935483872,535.0322580645161,-353.0752688172043,-8211.462365591398,399.0430107526882,-810.3655913978495,7
2024-06-13 19:56:14,0.2064724565,-0.3445279896,0.2431243658,1.984793186,-4.972756863,7.484274387,17.07142857142857,-34.07142857142857,-319.1428571428571,-8241.642857142857,-148.5,-550.7857142857143,7
2024-06-13 19:56:14,0.1209513173,-0.02565634064,-0.09040805697,2.068590164,-6.117185116,7.750030994,-266.26666666666665,302.7111111111111,149.15555555555557,-8117.733333333334,478.8666666666667,-641.2666666666667,7
2024-06-13 19:56:14,-0.8845328689,0.2467895597,-0.4117231667,1.460463047,-6.435614109,8.056488991,-541.1954022988506,330.71264367816093,-76.66666666666666,-8036.103448275862,235.8735632183908,-671.0,7
2024-06-13 19:56:14,-0.8845328689,0.2467895597,-0.4117231667,1.460463047,-6.435614109,8.056488991,-255.44827586206893,29.37931034482756,293.1724137931035,-8332.931034482759,-4.5862068965517295,-471.4827586206897,7
2024-06-13 19:56:14,-0.06352998316,0.01466076635,-0.393397212,2.707842112,-6.730101109,6.734889507,203.01075268817203,-30.354838709677423,-127.59139784946234,-7967.10752688172,435.3010752688172,-598.4086021505376,7
2024-06-13 19:56:14,0.2638937831,-0.3652974069,0.01221730467,2.837129116,-6.95276165,6.548141479,-125.63636363636364,116.9090909090909,-176.9090909090909,-7936.636363636364,268.8181818181818,-470.0,7
2024-06-13 19:56:14,0.2638937831,-0.3652974069,0.01221730467,2.837129116,-6.95276165,6.548141479,-497.2,-21.055555555555543,13.23333333333332,-8162.433333333333,120.75555555555556,-747.911111111111,7
2024-06-13 19:56:14,-0.1490511149,0.02076941915,-0.04764748737,2.8969841,-6.806715488,6.888118267,260.4146341463415,-154.4451219512195,10.23170731707317,-8281.018292682927,201.90243902439025,-549.6036585365854,7
2024-06-13 19:56:14,-0.1490511149,0.02076941915,-0.04764748737,2.8969841,-6.806715488,6.888118267,128.70731707317074,-23.34756097560976,-125.1341463414634,-8241.384146341463,179.9512195121951,-541.6768292682926,7
2024-06-13 19:56:14,-0.02565634064,-0.01588249579,0.01343903504,2.774879694,-6.806715488,6.854599476,-295.52941176470586,312.29411764705884,316.1411764705882,-7984.670588235294,554.9882352941177,-541.8588235294118,7
2024-06-13 19:56:15,0.01588249579,0.00122173049,0.006108652335,2.839523315,-6.744466305,6.873753071,-306.6,252.90526315789475,129.46315789473684,-7919.578947368421,559.421052631579,-527.5684210526316,7
2024-06-13 19:56:15,0.01588249579,0.00122173049,0.006108652335,2.839523315,-6.744466305,6.873753071,-193.6951219512195,129.1341463414634,84.85365853658536,-8138.609756097561,114.609756097561,-846.0731707317074,7
2024-06-13 19:56:15,0.0415388383,-0.0171042271,-0.003665191587,2.846705914,-6.758831501,6.806715488,272.6390532544379,54.35502958579882,-45.573964497041416,-8270.218934911243,56.06508875739645,-801.7159763313609,7
2024-06-13 19:56:15,-0.1673770845,0.1209513173,0.09040805697,2.640804529,-7.019799232,6.7612257,280.9230769230769,47.84615384615385,-73.38461538461539,-8204.538461538461,236.53846153846155,-786.9230769230769,7
2024-06-13 19:56:15,-0.1673770845,0.1209513173,0.09040805697,2.640804529,-7.019799232,6.7612257,-241.0681818181818,308.4318181818182,443.0681818181818,-7914.227272727273,483.3636363636364,-457.29545454545456,7
2024-06-13 19:56:15,0.00244346098,0.06597344577,0.08429940045,2.518700123,-7.175422668,6.813898087,-359.2631578947368,310.2105263157895,290.42105263157896,-7893.842105263157,418.8421052631579,-776.2631578947369,7
2024-06-13 19:56:15,0.00244346098,0.06597344577,0.08429940045,2.518700123,-7.175422668,6.813898087,287.3888888888889,-335.3333333333333,-465.77777777777777,-7827.166666666667,504.1666666666667,-580.5555555555555,7
2024-06-13 19:56:15,0.3836233616,0.4434881806,0.2858849466,1.999158382,-7.735665798,9.10036087,-41.8876404494382,-42.12359550561798,-1284.3932584269662,-7978.011235955056,128.61797752808988,-455.7191011235955,7
2024-06-13 19:56:15,-0.6047565937,1.481959105,1.75196147,-1.482010841,-10.05325317,8.006210327,-374.964705882353,255.2117647058824,-968.2588235294118,-8321.494117647058,190.74117647058824,-798.8705882352941,7
2024-06-13 19:56:15,-0.6047565937,1.481959105,1.75196147,-1.482010841,-10.05325317,8.006210327,-407.0561797752809,39.78651685393258,-544.2696629213483,-8103.5842696629215,-17.853932584269664,-726.6966292134831,7
2024-06-13 19:56:16,0.618195653,1.066570759,2.657263756,-4.649539471,-6.768408298,6.047753334,649.0930232558139,275.04651162790697,-228.62790697674416,-8226.837209302326,43.34883720930233,-740.046511627907,7
2024-06-13 19:56:16,2.57296443,-0.2101376504,1.25838244,-5.056553841,-3.339911461,5.655104637,677.6111111111111,-120.16666666666669,-152.22222222222223,-8147.111111111111,358.94444444444446,-650.5555555555555,7
2024-06-13 19:56:16,2.57296443,-0.2101376504,1.25838244,-5.056553841,-3.339911461,5.655104637,-37.56179775280901,-495.5842696629213,-485.5842696629214,-8120.775280898876,104.62921348314606,-401.7415730337078,7
2024-06-13 19:56:16,1.809382915,-1.532050014,0.1857030392,-1.618480325,1.510741234,6.215347767,-794.6,-579.8,-480.3333333333333,-8061.933333333333,-223.2888888888889,28.22222222222223,7
2024-06-13 19:56:16,1.809382915,-1.532050014,0.1857030392,-1.618480325,1.510741234,6.215347767,-649.3103448275863,74.51724137931035,-243.4942528735632,-8246.310344827587,-426.5977011494253,-150.45977011494253,7
2024-06-13 19:56:16,0.6291912198,-0.4996877611,0.7464773059,-1.89620769,0.03351882473,8.990227699,543.5098039215686,-293.37254901960785,-333.921568627451,-8080.705882352941,4.254901960784314,-178.2156862745098,7
2024-06-13 19:56:16,-0.5119050741,-0.1649336219,0.1136209369,-3.088520288,1.199495077,7.972691536,527.1699346405229,-272.4575163398693,-197.9738562091503,-7937.568627450981,-187.2483660130719,-218.73856209150327,7
2024-06-13 19:56:16,-0.5119050741,-0.1649336219,0.1136209369,-3.088520288,1.199495077,7.972691536,-173.96666666666667,217.3,-840.1333333333333,-8229.466666666667,-767.6333333333333,-472.56666666666666,7
2024-06-13 19:56:16,-0.7012733221,-0.4471533597,0.01832595654,-1.675941229,-6.035782337,7.788338184,331.50632911392404,-358.1898734177215,-858.1392405063291,-8081.544303797468,-1111.2784810126582,-229.36708860759487,7
2024-06-13 19:56:16,2.765997887,0.2590068579,-0.03909537569,-3.538630009,-1.247379065,6.110002518,584.4064516129032,-318.06451612903226,-855.825806451613,-7893.219354838709,-717.8516129032258,-341.36129032258066,7
2024-06-13 19:56:17,2.765997887,0.2590068579,-0.03909537569,-3.538630009,-1.247379065,6.110002518,592.1483870967742,-195.48387096774192,-1066.7935483870967,-7916.445161290322,-719.7870967741935,-314.9096774193548,7
2024-06-13 19:56:17,0.09529497474,-0.6096435189,0.5106833577,-1.063025594,7.038952827,10.01494598,67.34482758620689,-572.4137931034483,-1915.379310344828,-8027.931034482759,-1425.4482758620688,185.9310344827586,7
2024-06-13 19:56:17,0.09529497474,-0.6096435189,0.5106833577,-1.063025594,7.038952827,10.01494598,255.9058823529412,-572.7058823529412,-3095.658823529412,-7975.988235294118,-2328.0941176470587,340.9294117647059,7
2024-06-13 19:56:17,-0.7134906054,-0.1111774743,-0.3714060783,-1.625662923,-0.6679822803,10.78587818,710.3103448275862,-528.8505747126437,-3909.977011494253,-7789.551724137931,-3397.287356321839,144.01149425287358,7
2024-06-13 19:56:17,1.739744186,-0.1246165112,-0.7415903807,-3.303998232,2.93529129,8.339004517,1211.9354838709678,-798.4301075268817,-4422.537634408603,-7463.8387096774195,-3247.956989247312,262.4516129032258,7
2024-06-13 19:56:17,1.739744186,-0.1246165112,-0.7415903807,-3.303998232,2.93529129,8.339004517,430.34939759036143,-918.1204819277108,-4599.855421686747,-6766.349397590361,-4862.578313253012,800.8072289156627,7
2024-06-13 19:56:17,0.5131267905,-0.3433062732,0.6072000265,-0.8762778044,2.700659513,11.45146656,741.9214659685864,-945.0157068062828,-4243.350785340314,-6266.068062827225,-5268.717277486911,1098.1989528795812,7
2024-06-13 19:56:17,0.6609562039,-0.04398229718,-0.4593706727,-1.8579005,-0.14844051,9.746794701,401.607329842932,-913.0785340314136,-4096.753926701571,-6094.340314136126,-5443.586387434555,1226.9947643979058,7
2024-06-13 19:56:17,0.6609562039,-0.04398229718,-0.4593706727,-1.8579005,-0.14844051,9.746794701,168.0120481927711,-471.855421686747,-2958.9638554216867,-5245.012048192771,-6486.481927710844,1310.5060240963855,7
2024-06-13 19:56:17,4.225965977,-0.05742133409,-0.08918632567,-2.396595955,1.18991828,7.809885979,-233.1707317073171,-252.4878048780488,-1861.439024390244,-4609.926829268293,-6797.268292682927,1619.4878048780488,7
2024-06-13 19:56:18,4.225965977,-0.05742133409,-0.08918632567,-2.396595955,1.18991828,7.809885979,105.58620689655172,35.689655172413794,-1355.896551724138,-4410.793103448276,-7240.137931034483,1437.3793103448277,7
2024-06-13 19:56:18,-1.824043632,0.2956587672,0.393397212,-2.068590164,1.869871497,10.58476543,57.74157303370785,116.02247191011236,-919.7865168539324,-4379.70786516854,-7085.662921348315,1494.1573033707866,7
2024-06-13 19:56:18,-0.9260717034,0.3323107064,-0.3017674387,-1.764526606,-1.074996591,9.43315506,-267.03592814371257,-101.52694610778444,-844.2275449101796,-4014.820359281437,-7147.329341317365,1488.8922155688622,7
2024-06-13 19:56:18,-0.9260717034,0.3323107064,-0.3017674387,-1.764526606,-1.074996591,9.43315506,-360.8901098901099,-78.73626373626374,-232.36263736263737,-3978.164835164835,-7412.912087912088,1634.7912087912089,7
2024-06-13 19:56:18,0.17715092,-0.4948008358,0.3543018401,-1.120486379,4.089296341,10.60391903,-228.7471264367816,-66.49425287356321,-352.08045977011494,-3986.471264367816,-7110.793103448276,1611.103448275862,7
2024-06-13 19:56:18,-2.299296856,0.1148426682,-0.3237585723,-1.802833915,0.1795651317,8.844181061,-336.264367816092,87.52873563218391,-340.17241379310343,-3977.471264367816,-7103.114942528736,1598.264367816092,7
2024-06-13 19:56:18,-2.299296856,0.1148426682,-0.3237585723,-1.802833915,0.1795651317,8.844181061,-327.0,93.88888888888889,-326.94444444444446,-4198.666666666667,-7117.333333333333,1614.8333333333333,7
2024-06-13 19:56:18,-0.7538077235,0.02809980139,-0.01954768784,-2.542642117,-2.968810081,8.245630264,-266.2584269662921,-92.13483146067416,-275.9550561797753,-4159.067415730337,-7135.853932584269,1628.1460674157304,7
2024-06-13 19:56:18,-0.7538077235,0.02809980139,-0.01954768784,-2.542642117,-2.968810081,8.245630264,-357.6136363636364,-95.27272727272728,-291.09090909090907,-4180.704545454545,-7268.227272727273,1599.6818181818182,7
2024-06-13 19:56:18,0.04764748737,0.7110471725,0.4276056588,-1.501164436,-4.659116745,12.18648624,-297.39325842696627,-89.08988764044943,-53.6629213483146,-4137.516853932584,-7143.202247191011,1603.191011235955,7
2024-06-13 19:56:19,-1.546710849,0.9908234477,0.125838235,-0.8116343617,-1.197100878,6.442796707,-333.7173913043478,-79.93478260869566,39.52173913043478,-4136.663043478261,-7133.663043478261,1588.695652173913,7
2024-06-13 19:56:19,-1.546710849,0.9908234477,0.125838235,-0.8116343617,-1.197100878,6.442796707,-336.16279069767444,-112.67441860465117,18.046511627906977,-4132.046511627907,-7448.46511627907,1583.906976744186,7
2024-06-13 19:56:19,-2.313957453,1.215621829,-0.4667010605,-1.833958507,-5.487510204,2.477998734,-326.5268817204301,-77.3763440860215,41.86021505376344,-4115.784946236559,-7147.10752688172,1601.5698924731182,7
2024-06-13 19:56:19,-2.313957453,1.215621829,-0.4667010605,-4.553771496,-12.31816769,1.594538331,-344.9310344827586,-85.93103448275862,63.89655172413793,-4112.0,-7189.0,1588.7586206896551,7
2024-06-13 19:56:19,0.538783133,0.916297853,-1.681101203,-4.553771496,-12.31816769,1.594538331,-335.6508875739645,-40.366863905325445,76.40828402366864,-4107.047337278106,-7452.0,1537.5443786982248,7
2024-06-13 19:56:19,2.018298864,-0.4776966274,-0.7379252315,-2.82036972,-10.6206789,5.894524574,-303.698224852071,-33.26627218934911,78.18343195266272,-4102.905325443787,-7452.0,1539.9112426035504,7
2024-06-13 19:56:19,2.018298864,-0.4776966274,-0.7379252315,-2.82036972,-10.6206789,5.894524574,26.292134831460675,350.30337078651684,305.6741573033708,-3899.9438202247193,-7163.876404494382,1571.056179775281,7
2024-06-13 19:56:19,0.5656611919,-0.009773843922,-0.2138028294,-0.6416460276,-6.58405447,10.15141487,24.60674157303371,358.1685393258427,178.7078651685393,-4052.191011235955,-7158.820224719101,1568.808988764045,7
2024-06-13 19:56:19,-1.225395679,0.8991936445,2.155132532,-7.182605267,-9.3685112,5.240907669,-306.85714285714283,306.1428571428571,491.57142857142856,-4027.0,-7119.142857142857,1547.7142857142858,7
2024-06-13 19:56:19,-1.225395679,0.8991936445,2.155132532,-7.182605267,-9.3685112,5.240907669,-528.6404494382023,349.1685393258427,1110.3483146067415,-4344.29213483146,-7071.61797752809,1567.6404494382025,7
2024-06-13 19:56:20,-0.7721336484,-1.343903542,0.5338962078,-2.248155355,-5.245696068,2.851494312,-459.3804347826087,734.5869565217391,2910.108695652174,-4541.597826086956,-7075.413043478261,1285.5434782608695,7
2024-06-13 19:56:20,0.6206390858,-0.216246292,-0.2528982162,-3.047818661,-6.596025467,6.129156113,-186.8636363636364,1382.7272727272727,5318.045454545455,-5665.772727272727,-6390.590909090909,1006.5,7
2024-06-13 19:56:20,0.6206390858,-0.216246292,-0.2528982162,-3.047818661,-6.596025467,6.129156113,-168.14285714285714,1557.904761904762,6969.916666666667,-6743.595238095239,-4872.523809523809,764.3809523809524,7
2024-06-13 19:56:20,0.008552113548,0.03665191308,0.616973877,-2.956839085,-10.79306126,5.552153587,-597.1034482758621,1479.103448275862,6753.931034482759,-7208.068965517241,-3388.4827586206898,426.9310344827586,7
2024-06-13 19:56:20,0.008552113548,0.03665191308,0.616973877,-2.956839085,-10.79306126,5.552153587,-1110.62,1196.7,5513.94,-7686.66,-2541.3,-62.08,7
2024-06-13 19:56:20,0.6560692787,0.1160643995,2.223549604,-5.667075634,-6.390124321,4.75249052,-1101.9533333333334,1293.3666666666668,5493.2733333333335,-7913.993333333334,-2411.3,-100.74666666666668,7
2024-06-13 19:56:20,0.3457497358,-0.2467895597,2.057394028,-6.770802498,-2.885013103,5.288791656,-944.8214285714286,592.4285714285714,2321.8571428571427,-8216.857142857143,-823.3214285714286,-150.03571428571428,7
2024-06-13 19:56:20,0.3457497358,-0.2467895597,2.057394028,-6.770802498,-2.885013103,5.288791656,-218.06666666666663,288.9111111111111,1171.9777777777776,-8200.444444444445,-437.0444444444445,-211.48888888888888,7
2024-06-13 19:56:20,0.4691445231,-0.3982841372,1.436755061,-7.122750282,-0.2035071403,6.141127586,227.68539325842696,153.68539325842696,441.71910112359546,-8200.662921348314,-142.37078651685394,-503.6629213483146,7
2024-06-13 19:56:20,0.7110471725,-0.3078760803,1.055575132,-6.505045891,2.291250944,6.27999115,1325.7777777777778,-404.5111111111111,-2487.4666666666667,-7944.333333333333,-154.55555555555554,-405.9111111111111,7
2024-06-13 19:56:21,0.7110471725,-0.3078760803,1.055575132,-6.505045891,2.291250944,6.27999115,1897.8260869565213,-1049.141304347826,-5879.369565217391,-8076.630434782609,-604.054347826087,-605.2934782608696,7
2024-06-13 19:56:21,0.5766568184,-0.3090978265,0.8002334833,-5.884947777,3.914519787,6.014234543,-102.85057471264368,-3043.114942528736,-8515.781609195403,-7110.126436781609,-3730.7816091954014,542.3333333333334,7
2024-06-13 19:56:21,0.5766568184,-0.3090978265,0.8002334833,-5.884947777,3.914519787,6.014234543,-569.9655172413793,-1936.344827586207,-4953.620689655172,-6166.241379310345,-5494.0344827586205,1553.0689655172414,7
2024-06-13 19:56:21,0.4117231667,-0.1844813079,0.5155702829,-5.209783077,4.434061527,6.042964935,-392.625,-1400.5,-3156.25,-5769.875,-5935.0,1658.625,7
2024-06-13 19:56:21,0.4263839424,-0.196698606,0.2895501256,-4.508281708,5.410895824,6.287173748,166.65217391304347,-424.304347826087,-1700.5652173913045,-5314.04347826087,-6356.260869565217,1895.5652173913045,7
2024-06-13 19:56:21,0.4263839424,-0.196698606,0.2895501256,-4.508281708,5.410895824,6.287173748,53.8,-101.4,-977.4,-5220.6,-6333.8,2053.6,7
2024-06-13 19:56:21,0.2638937831,-0.06475171447,0.2040289938,-4.491522312,5.566518784,5.959167957,50.358024691358025,186.2407407407408,-199.96296296296296,-5397.197530864198,-6309.043209876543,1742.9876543209878,7
2024-06-13 19:56:21,0.2809980214,0.009773843922,0.1087340117,-4.469974518,6.172252178,5.71974802,-283.5,201.5,107.75,-5480.125,-6176.125,1885.5,7
2024-06-13 19:56:21,0.2809980214,0.009773843922,0.1087340117,-4.469974518,6.172252178,5.71974802,-281.2048192771084,-18.903614457831324,-69.03614457831326,-5635.060240963855,-6044.855421686747,1777.0361445783133,7
2024-06-13 19:56:21,0.2247984111,-0.04031710699,0.1014036313,-4.297592163,6.325480938,5.497087002,-232.6,89.0,-315.2,-5315.6,-6105.0,1795.0,7
2024-06-13 19:56:22,0.2247984111,-0.04031710699,0.1014036313,-4.297592163,6.325480938,5.497087002,-182.46153846153845,-115.53846153846152,-1.92307692307692,-5322.692307692308,-6433.615384615385,1821.2307692307693,7
2024-06-13 19:56:22,0.141720742,-0.02809980139,0.05742133409,-4.228160381,6.789956093,5.31512785,-331.4088397790055,286.3646408839779,-175.95580110497238,-5259.563535911602,-6159.640883977901,1821.39226519337,7
2024-06-13 19:56:22,0.09285151958,0.01466076635,0.04398229718,-4.122815132,6.84023428,5.152322292,-205.9944751381216,288.0220994475138,-303.02762430939225,-5289.397790055249,-6317.099447513812,1818.629834254144,7
2024-06-13 19:56:22,0.09285151958,0.01466076635,0.04398229718,-4.122815132,6.84023428,5.152322292,-282.3333333333333,-33.04761904761905,-156.71428571428572,-5261.666666666667,-6440.523809523809,1676.7619047619048,7
2024-06-13 19:56:22,0.05986479297,-0.00122173049,0.02199114859,-4.113238335,6.792350292,5.267243862,88.96428571428572,162.46428571428572,38.10714285714286,-5275.428571428572,-6439.071428571428,1493.607142857143,7
2024-06-13 19:56:22,0.04642575979,-0.0354301855,0.008552113548,-4.084507942,7.098807812,5.118803024,-246.2584269662921,269.19101123595505,79.73033707865169,-5469.23595505618,-6322.3707865168535,1723.4719101123596,7
2024-06-13 19:56:22,0.04642575979,-0.0354301855,0.008552113548,-4.084507942,7.098807812,5.118803024,-286.93023255813955,76.7906976744186,-17.604651162790695,-5289.697674418605,-6358.674418604651,1871.0697674418604,7
2024-06-13 19:56:22,0.09407325089,-0.01221730467,-0.03176499158,-3.988739967,6.964732647,5.147533417,-168.69230769230768,-25.07692307692308,537.8461538461538,-5497.461538461538,-6406.769230769231,1550.923076923077,7
2024-06-13 19:56:22,0.09407325089,-0.01221730467,-0.03176499158,-3.988739967,6.964732647,5.147533417,-190.05128205128204,144.0897435897436,175.10897435897436,-5373.711538461538,-6090.102564102564,1563.8525641025642,7
2024-06-13 19:56:22,-0.08674286306,0.00244346098,-0.009773843922,-4.106055737,6.682217121,5.106832027,-195.1794871794872,153.06410256410257,186.00641025641025,-5544.865384615385,-6100.358974358975,1549.1089743589744,7
2024-06-13 19:56:23,-0.03665191308,0.008552113548,0.0109955743,-4.144362926,6.974309444,5.114014626,-315.3181818181818,349.95454545454544,200.9431818181818,-5704.272727272727,-6070.352272727273,1347.2045454545455,7
2024-06-13 19:56:23,-0.03665191308,0.008552113548,0.0109955743,-4.144362926,6.974309444,5.114014626,66.0909090909091,-324.45454545454544,-37.54545454545455,-5797.363636363636,-5857.181818181818,1321.2727272727273,7
2024-06-13 19:56:23,-0.02199114859,0.009773843922,0.01343903504,-4.103661537,6.821080685,5.142745018,76.40449438202248,-375.0112359550562,62.24719101123596,-5589.955056179775,-6046.134831460674,1373.3820224719102,7
2024-06-13 19:56:23,0.0109955743,-0.00244346098,-0.004886921961,-4.209006786,6.964732647,5.252878666,-20.217391304347828,-149.81521739130434,53.75,-5524.489130434783,-6217.586956521739,1586.7173913043478,7
2024-06-13 19:56:23,0.0109955743,-0.00244346098,-0.004886921961,-4.209006786,6.964732647,5.252878666,-6.630952380952381,48.92857142857143,-9.547619047619047,-5562.261904761905,-6164.583333333333,1475.6309523809523,7
2024-06-13 19:56:23,0.0720821023,-0.01221730467,0.02565634064,-4.156333923,6.890512466,5.23611927,-53.86363636363636,-344.84090909090907,371.3181818181818,-5578.840909090909,-5931.113636363636,1491.8863636363635,7
2024-06-13 19:56:23,0.0720821023,-0.01221730467,0.02565634064,-4.156333923,6.890512466,5.23611927,93.6153846153846,3.153846153846132,515.4615384615385,-5612.923076923077,-5792.846153846154,1871.076923076923,7
2024-06-13 19:56:23,0.03909537569,-0.03054326214,0.00122173049,-4.041412354,6.986280441,5.027823448,-139.04242424242423,15.76969696969697,192.7333333333333,-5621.709090909091,-5793.824242424243,1901.709090909091,7
2024-06-13 19:56:23,-0.0171042271,0.0354301855,-0.007330383174,-4.074931145,7.12993288,5.102043629,7.72093023255814,-35.69767441860465,546.046511627907,-5870.860465116279,-5876.906976744186,1695.7209302325582,7
2024-06-13 19:56:23,-0.0171042271,0.0354301855,-0.007330383174,-4.074931145,7.12993288,5.102043629,46.46590909090909,395.7840909090909,832.3636363636364,-6163.443181818182,-5648.25,1740.9318181818182,7
2024-06-13 19:56:24,-0.00244346098,-0.008552113548,0.009773843922,-3.945644379,7.082048416,5.147533417,-43.87640449438202,406.0112359550562,1391.0449438202247,-6449.011235955056,-5060.898876404494,1827.415730337079,7
2024-06-13 19:56:24,-0.0109955743,-0.007330383174,0.0109955743,-3.97916317,6.880935669,5.106832027,-386.1764705882353,264.7058823529412,2091.8823529411766,-6755.882352941177,-4779.176470588235,1446.1764705882354,7
2024-06-13 19:56:24,-0.0109955743,-0.007330383174,0.0109955743,-3.97916317,6.880935669,5.106832027,-344.4350282485876,-177.5819209039548,1810.7570621468928,-6846.887005649717,-4574.446327683616,1621.7175141242938,7
2024-06-13 19:56:24,0.009773843922,-0.003665191587,0.0,-3.909731388,7.041347027,5.142745018,-272.3578947368421,-126.89473684210526,1673.9052631578948,-6816.073684210526,-4519.715789473684,1630.0631578947368,7
2024-06-13 19:56:24,0.009773843922,-0.003665191587,0.0,-3.909731388,7.041347027,5.142745018,86.84146341463415,-135.47560975609755,-1217.0975609756097,-6573.073170731707,-4539.926829268293,1736.5243902439024,7
2024-06-13 19:56:24,0.02565634064,-0.01588249579,0.0,-3.945644379,7.046135426,5.154716492,-524.8888888888889,138.83333333333334,-550.4444444444445,-6653.444444444444,-5188.833333333333,1721.3333333333333,7
2024-06-13 19:56:24,0.05131268129,-0.008552113548,0.008552113548,-3.873818398,7.127538681,5.140350819,-425.41379310344826,1212.551724137931,2609.172413793104,-6751.344827586207,-5124.448275862069,1801.2413793103449,7
2024-06-13 19:56:24,0.05131268129,-0.008552113548,0.008552113548,-3.873818398,7.127538681,5.140350819,-2071.9772727272725,1862.886363636364,4940.159090909091,-7171.25,-4072.909090909091,1238.7272727272727,7
2024-06-13 19:56:24,0.05986479297,-0.003665191587,0.004886921961,-4.024652958,7.113173485,5.121197224,-1883.202247191012,1582.1460674157304,4525.157303370786,-7754.921348314607,-3313.6067415730336,700.6179775280899,7
2024-06-13 19:56:24,-0.02076941915,0.0109955743,0.004886921961,-3.883395195,7.110779285,4.984727859,-1100.36,1282.672,4549.568,-8033.024,-2561.6,239.072,7
2024-06-13 19:56:25,-0.02076941915,0.0109955743,0.004886921961,-3.883395195,7.110779285,4.984727859,-651.9316770186335,1117.3788819875776,3977.192546583851,-7969.515527950311,-2274.4347826086955,342.360248447205,7
2024-06-13 19:56:25,0.003665191587,0.0109955743,-0.01343903504,-3.928884983,7.098807812,5.001487255,-487.3354037267081,1093.776397515528,3586.509316770186,-7975.105590062112,-2130.9565217391305,292.0496894409938,7
2024-06-13 19:56:25,0.003665191587,0.0109955743,-0.01343903504,-3.928884983,7.098807812,5.001487255,-375.2857142857143,550.2619047619048,1879.8333333333333,-8222.214285714286,48.9047619047619,-544.0714285714286,7
2024-06-13 19:56:25,-0.08185594529,0.03909537569,-0.06352998316,-3.933673382,6.969521046,4.951209068,125.09195402298852,311.1954022988506,2345.022988505747,-7963.218390804598,608.9425287356322,-293.54022988505744,7
2024-06-13 19:56:25,-0.3176499307,0.04764748737,-0.2076941878,-3.785232782,6.971915245,5.056553841,52.407643312101925,212.0700636942675,2543.5286624203823,-7875.770700636943,705.3312101910828,-227.0828025477707,7
2024-06-13 19:56:25,-0.3176499307,0.04764748737,-0.2076941878,-3.785232782,6.971915245,5.056553841,-820.4269662921348,141.4943820224719,228.3033707865169,-8235.067415730337,418.5393258426967,-531.4606741573034,7
2024-06-13 19:56:25,-0.6035348773,0.09162978828,-0.4789183438,-4.448426723,5.968744755,5.64313364,-265.1630434782609,-225.90217391304347,-226.0652173913044,-8312.641304347826,456.7282608695653,-474.94565217391306,7
2024-06-13 19:56:25,-1.065348983,0.3188716471,-1.025031924,-4.759673119,4.75249052,5.928043365,-86.6046511627907,32.116279069767444,874.5581395348837,-8073.627906976744,1540.4186046511627,-542.9302325581396,7
2024-06-13 19:56:25,-1.065348983,0.3188716471,-1.025031924,-4.759673119,4.75249052,5.928043365,-542.0,56.56043956043956,68.25274725274724,-7574.846153846154,2234.1428571428573,-580.1978021978022,7
2024-06-13 19:56:25,-1.213178396,0.3872885704,-1.696983695,-5.928043365,2.425326347,6.347028732,-201.3793103448276,-90.57471264367815,-456.95402298850576,-7817.080459770115,1516.5632183908046,-443.8620689655172,7
2024-06-13 19:56:26,-1.213178396,0.3872885704,-1.696983695,-5.928043365,2.425326347,6.347028732,43.78260869565217,40.15217391304348,-498.2173913043478,-7917.586956521739,1203.2391304347825,-182.3260869565217,7
2024-06-13 19:56:26,-0.9957103729,0.2431243658,-1.980425119,-6.555324078,-0.8906430602,5.968744755,133.42352941176472,-277.0470588235294,-892.2235294117647,-7976.105882352941,877.7764705882353,-63.65882352941179,7
2024-06-13 19:56:26,-0.1820378453,-0.06475171447,-1.881464958,-6.813898087,-4.560954094,5.566518784,25.483870967741936,-157.1290322580645,-1012.3870967741937,-7843.129032258064,523.2258064516129,-210.96774193548387,7
2024-06-13 19:56:26,-0.1820378453,-0.06475171447,-1.881464958,-6.813898087,-4.560954094,5.566518784,-298.7407407407408,242.07407407407408,-943.0,-8181.37037037037,238.6296296296296,-618.1111111111111,7
2024-06-13 19:56:26,-0.1905899495,-0.3017674387,-1.411098719,-4.671087742,-7.606379032,6.720524311,-101.64044943820224,511.9325842696629,-916.3033707865168,-8220.67415730337,279.438202247191,-677.9213483146067,7
2024-06-13 19:56:26,-0.3249803185,-0.1221730486,-0.7293730974,-2.887407303,-8.137891769,6.651092529,-291.3372093023256,-262.63953488372096,-262.06976744186045,-8212.976744186046,191.90697674418604,-701.6860465116279,7
2024-06-13 19:56:26,-0.3249803185,-0.1221730486,-0.7293730974,-2.887407303,-8.137891769,6.651092529,-566.5081967213115,-1318.72131147541,-49.34426229508197,-8304.016393442624,348.7049180327869,-492.9016393442623,7
2024-06-13 19:56:26,0.1307251602,0.1050688252,0.2199114859,-2.992752075,-7.343016624,5.638344765,-556.1256830601093,-1238.3934426229507,-79.94535519125682,-8283.25136612022,355.8087431693989,-317.4918032786885,7
2024-06-13 19:56:26,0.1307251602,0.1050688252,0.2199114859,-2.992752075,-7.343016624,5.638344765,-493.6296296296296,-972.4444444444443,280.0246913580247,-7894.79012345679,582.5679012345679,30.53086419753086,7
2024-06-13 19:56:26,0.283441484,-0.01343903504,0.009773843922,-2.796427488,-6.672640324,5.935225964,6.799999999999997,226.6,-235.2,-7829.2,475.4,214.6,7
2024-06-13 19:56:27,0.1478293836,0.006108652335,0.1331686229,-1.953668594,-6.368576527,8.43956089,-369.6363636363636,650.8181818181818,-625.2727272727273,-7885.272727272727,517.0,285.72727272727275,7
2024-06-13 19:56:27,0.1478293836,0.006108652335,0.1331686229,-1.953668594,-6.368576527,8.43956089,-636.7697368421052,1038.717105263158,-351.6842105263158,-8231.480263157895,159.28947368421052,-4.94736842105263,7
2024-06-13 19:56:27,-1.061683774,1.387885809,-0.522900641,-1.903390408,-6.301538944,6.172252178,-797.5555555555555,394.3333333333333,-318.8888888888889,-8146.444444444444,165.11111111111111,-327.22222222222223,7
2024-06-13 19:56:27,1.213178396,0.9651671052,-1.804495931,-3.773261786,-10.28309631,2.525882721,-334.5168539325843,-95.3932584269663,-203.8426966292135,-8238.168539325843,259.64044943820227,-268.87640449438203,7
2024-06-13 19:56:27,1.213178396,0.9651671052,-1.804495931,-3.773261786,-10.28309631,2.525882721,16.522727272727273,-118.9431818181818,-438.3181818181818,-8243.886363636364,-59.75,19.738636363636363,7
2024-06-13 19:56:27,0.3824016452,-0.3054326177,-0.1441642046,-3.768473387,-11.01572227,5.214571476,29.2,41.13333333333333,-416.6666666666667,-8250.133333333333,-293.4,48.66666666666666,7
2024-06-13 19:56:27,0.3824016452,-0.3054326177,-0.1441642046,-3.768473387,-11.01572227,5.214571476,58.07692307692308,328.0769230769231,-399.3076923076923,-8245.307692307691,-349.3076923076923,41.84615384615385,7
2024-06-13 19:56:27,-0.08307767659,-0.05864306539,0.01466076635,-1.309628367,-8.841787338,6.291962147,32.888888888888886,171.55555555555554,-527.8888888888889,-8230.166666666666,-197.3333333333333,-147.5,7
2024-06-13 19:56:27,-0.4434881806,0.1160643995,0.7489207983,-3.284844637,-10.16099167,6.054935932,-266.6111111111111,266.05555555555554,-267.27777777777777,-8040.555555555556,-411.22222222222223,-221.94444444444449,7
2024-06-13 19:56:27,-0.4434881806,0.1160643995,0.7489207983,-3.284844637,-10.16099167,6.054935932,38.23863636363636,357.1363636363636,129.6818181818182,-8297.897727272728,-21.227272727272748,-551.2272727272727,7
2024-06-13 19:56:28,0.3799581826,-0.00122173049,1.280373573,-4.311957359,-8.693346024,5.765237808,-480.6222222222222,377.6222222222222,414.4,-7946.222222222223,-67.02222222222223,-569.7111111111111,7
2024-06-13 19:56:28,0.8796459436,-0.5216789246,1.004262447,-3.955221176,-4.797980309,5.609614372,-765.2413793103449,367.2988505747127,-139.58620689655172,-8198.988505747126,69.98850574712642,-584.2183908045977,7
2024-06-13 19:56:28,0.8796459436,-0.5216789246,1.004262447,-3.955221176,-4.797980309,5.609614372,-566.0333333333333,311.7,-234.0,-8257.2,-340.2333333333333,-557.3,7
2024-06-13 19:56:28,1.330464482,-0.8038986921,0.3115412891,-3.088520288,-5.501875401,6.653486729,-530.8823529411765,162.54117647058823,18.55294117647059,-7907.223529411764,-335.84705882352944,-523.6705882352941,7
2024-06-13 19:56:28,1.330464482,-0.8038986921,0.3115412891,-3.088520288,-5.501875401,6.653486729,-87.51136363636363,272.6363636363636,65.68181818181819,-8278.170454545454,-206.5340909090909,-815.1931818181819,7
2024-06-13 19:56:28,1.919338584,-0.5082398653,0.6047565937,-2.774879694,-2.458845139,8.561665535,112.8314606741573,-47.831460674157306,-107.78651685393258,-8224.505617977527,-194.0337078651685,-861.9550561797753,7
2024-06-13 19:56:28,1.137431145,-0.3824016452,0.07452555746,-2.063801765,2.018311977,9.447520256,320.0,-173.5,-284.5,-8067.5,-174.5,-825.5,7
2024-06-13 19:56:28,1.137431145,-0.3824016452,0.07452555746,-2.063801765,2.018311977,9.447520256,68.9438202247191,-122.24719101123594,-65.95505617977528,-8204.168539325843,-236.0,-436.7977528089888,7
2024-06-13 19:56:28,0.8491026759,-0.2577851415,-0.4508185387,-2.968810081,1.642422318,7.941566944,70.64367816091954,-120.0,230.45977011494253,-8199.724137931034,-138.04597701149424,-569.3448275862069,7
2024-06-13 19:56:28,-0.1795943826,-0.2419026345,-0.01588249579,-1.592144132,0.05267243832,9.686940193,-50.51685393258427,68.74157303370785,223.31460674157304,-8235.337078651686,-261.86516853932585,-596.876404494382,7
2024-06-13 19:56:29,-0.1795943826,-0.2419026345,-0.01588249579,-1.592144132,0.05267243832,9.686940193,-260.1818181818182,95.22727272727272,71.77272727272728,-8225.181818181818,-272.3181818181818,-617.0909090909091,7
2024-06-13 19:56:29,-2.073276758,0.4190535545,-0.07941248268,-1.209071875,2.573766708,6.732495308,30.813953488372093,-222.69767441860463,83.97674418604652,-7860.930232558139,-240.32558139534885,-224.5581395348837,7
2024-06-13 19:56:29,-2.073276758,0.4190535545,-0.07941248268,-1.209071875,2.573766708,6.732495308,-226.5,246.5,347.0,-8122.5,-212.8333333333333,-607.6666666666666,7
2024-06-13 19:56:29,0.228463605,-0.03298672289,-0.08185594529,-2.856282711,-0.2561795712,9.789890289,174.575,-62.0125,232.95,-8207.8125,308.8875,-501.55,7
2024-06-13 19:56:29,0.3408628106,-0.4129449129,-0.02565634064,-0.3136404157,-0.6009446383,11.47062016,140.825,-93.8875,205.45,-8229.6875,322.0125,-504.05,7
2024-06-13 19:56:29,0.3408628106,-0.4129449129,-0.02565634064,-0.3136404157,-0.6009446383,11.47062016,66.23529411764706,-682.6470588235294,-328.7058823529412,-7975.64705882353,-29.117647058823536,-107.58823529411764,7
2024-06-13 19:56:29,1.896125674,0.4434881806,-0.2712241709,-0.07900865376,6.133944988,10.03888798,-243.82758620689657,-179.58620689655172,-629.3103448275863,-7923.137931034483,-207.44827586206893,-455.5517241379311,7
2024-06-13 19:56:29,-5.655390263,0.4398229718,-0.2247984111,-2.717418909,-4.299986362,5.482721806,-11.090909090909092,-230.0,-63.81818181818181,-8363.636363636364,-314.0909090909091,-136.8181818181818,7
2024-06-13 19:56:29,-5.655390263,0.4398229718,-0.2247984111,-2.717418909,-4.299986362,5.482721806,-13.978021978021978,24.417582417582423,-32.2967032967033,-7867.978021978022,-15.483516483516496,-205.8021978021978,7
2024-06-13 19:56:29,0.1319468915,0.04276056588,0.2492330223,-1.800439715,-2.856282711,10.31422138,-212.7386363636364,-353.60227272727275,54.17045454545453,-8474.772727272728,49.93181818181818,-317.9090909090909,7
2024-06-13 19:56:30,0.1319468915,0.04276056588,0.2492330223,-1.800439715,-2.856282711,10.31422138,-136.3134328358209,-577.7985074626865,-617.1716417910447,-8208.94776119403,-547.8955223880597,-94.01492537313432,7
2024-06-13 19:56:30,2.59617734,-0.3652974069,0.9004153609,2.006340981,12.26310158,11.877635,288.927374301676,-785.7486033519554,-494.804469273743,-8207.804469273742,-440.6145251396648,218.2402234636872,7
2024-06-13 19:56:30,-4.532619953,0.8442157507,-0.7098253965,-5.188235283,3.665522814,4.592078686,341.4413407821229,-813.68156424581,-305.41899441340786,-8018.418994413408,-450.1117318435754,213.7709497206704,7
2024-06-13 19:56:30,-4.532619953,0.8442157507,-0.7098253965,-5.188235283,3.665522814,4.592078686,210.1590909090909,-157.47727272727275,457.52272727272725,-8124.113636363636,-226.72727272727272,-164.52272727272725,7
2024-06-13 19:56:30,3.194825172,-0.1881465018,-0.1893682331,0.2681505978,5.992686749,11.33654499,-76.0,7.0,-39.0,-8323.0,17.0,41.5,7
2024-06-13 19:56:30,-3.031113386,0.9053022861,-0.4691445231,-0.05506663769,4.65193367,11.0085392,-126.23595505617976,-584.6629213483146,-78.50561797752809,-8157.797752808989,-434.2921348314607,-19.865168539325843,7
2024-06-13 19:56:30,-3.031113386,0.9053022861,-0.4691445231,-0.05506663769,4.65193367,11.0085392,558.0337078651686,-231.3370786516854,-365.3033707865168,-8039.460674157303,-708.7865168539327,358.39325842696627,7
2024-06-13 19:56:30,-0.4960225821,-0.9334021211,0.0720821023,-3.404554844,-4.934449673,6.488286495,1041.3488372093022,-299.37209302325584,457.8372093023256,-8106.511627906977,-229.7906976744186,358.51162790697674,7
2024-06-13 19:56:30,-0.4960225821,-0.9334021211,0.0720821023,-3.404554844,-4.934449673,6.488286495,741.4222222222222,35.74444444444444,179.7,-7889.688888888889,92.12222222222222,374.6222222222222,7
2024-06-13 19:56:30,2.65237689,-0.9712757468,0.05253441259,-1.395819545,3.517082214,5.932831764,41.2,3.644444444444444,328.06666666666666,-8067.177777777778,-256.0444444444444,-22.11111111111111,7
2024-06-13 19:56:31,-0.4569272101,1.446528912,-0.6279694438,-0.7733271718,6.596025467,9.890447617,-439.1511627906976,183.06976744186045,790.6279069767442,-8140.732558139535,89.02325581395348,290.7674418604651,7
2024-06-13 19:56:31,-0.4569272101,1.446528912,-0.6279694438,-0.7733271718,6.596025467,9.890447617,-65.45901639344262,-351.90710382513663,127.98360655737704,-8257.382513661201,316.9672131147541,329.45901639344265,7
2024-06-13 19:56:31,-2.069611549,-0.814894259,-0.1942551434,-3.155557871,-2.901772499,4.685452938,55.85245901639345,-316.9344262295082,39.459016393442624,-8289.622950819672,339.91803278688525,208.1475409836065,7
2024-06-13 19:56:31,0.8283332586,-0.444709897,-0.0171042271,-4.534617901,0.1843535304,7.426813602,-211.82142857142856,-14.82142857142857,-369.32142857142856,-8159.178571428572,181.82142857142856,133.46428571428572,7
2024-06-13 19:56:31,0.8283332586,-0.444709897,-0.0171042271,-4.534617901,0.1843535304,7.426813602,-184.54545454545453,-351.70454545454544,-668.4545454545455,-8115.545454545455,216.63636363636363,283.75,7
2024-06-13 19:56:31,-0.2748893499,0.09896016866,0.02687807009,-1.522712231,3.315969467,9.248801231,-228.39877300613497,-331.82208588957053,-985.601226993865,-8081.895705521472,332.1104294478528,355.0,7
2024-06-13 19:56:31,-0.2748893499,0.09896016866,0.02687807009,-1.522712231,3.315969467,9.248801231,-231.61111111111111,-294.55555555555554,-1021.0,-8065.5,309.77777777777777,352.27777777777777,7
2024-06-13 19:56:31,-0.762359798,-0.06475171447,-0.5485569835,-2.260126352,0.0191536136,9.847352028,-506.3488372093023,-0.581395348837205,-1308.6046511627906,-7915.209302325581,-1327.2790697674418,539.8372093023256,7
2024-06-13 19:56:31,0.2785545588,-0.3176499307,-0.3591887653,-0.7757213712,1.335964561,6.823474884,-1022.0697674418604,-215.2093023255814,-865.3953488372093,-8079.813953488372,-1519.3953488372092,439.30232558139534,7
2024-06-13 19:56:31,0.2785545588,-0.3176499307,-0.3591887653,-0.7757213712,1.335964561,6.823474884,-70.41573033707866,-286.55056179775283,891.3258426966293,-8510.056179775282,-1440.7191011235957,578.7415730337078,7
2024-06-13 19:56:32,-3.143512487,1.574810624,-0.8124507666,1.814804912,-3.134010077,6.502651691,687.6,-417.26666666666665,2071.8,-8064.333333333333,-891.8666666666667,570.6,7
2024-06-13 19:56:32,-4.987103939,0.866206944,-0.3604104817,-5.609614372,-7.750030994,0.9600749016,1174.1,-424.03333333333336,1422.7,-8267.766666666666,43.5,675.5333333333333,7
2024-06-13 19:56:32,-4.987103939,0.866206944,-0.3604104817,-5.609614372,-7.750030994,0.9600749016,-199.41176470588235,-535.2588235294118,760.8823529411765,-8204.588235294117,279.7529411764706,667.0470588235294,7
2024-06-13 19:56:32,-0.8588765264,-2.047620296,-2.168571711,-4.735731125,-12.26310158,4.151545525,-282.4878048780488,-408.780487804878,-436.7073170731707,-8256.975609756097,64.1219512195122,1125.9512195121952,7
2024-06-13 19:56:32,-0.8588765264,-2.047620296,-2.168571711,-4.735731125,-12.26310158,4.151545525,-790.0,-181.0,-1387.142857142857,-8094.571428571428,2.2857142857142847,920.4285714285714,7
2024-06-13 19:56:32,2.10259819,-1.654223084,-1.739744186,2.240972757,-11.93030739,9.382876396,-771.3736263736264,131.2967032967033,-365.68131868131866,-8229.142857142857,-299.3736263736264,1091.6703296703297,7
2024-06-13 19:56:32,0.668286562,-0.2663372457,-0.1673770845,1.972822189,-7.410054207,2.310404539,-716.4772727272727,380.0681818181818,38.97727272727272,-8277.704545454546,-187.04545454545456,766.909090909091,7
2024-06-13 19:56:32,0.668286562,-0.2663372457,-0.1673770845,1.972822189,-7.410054207,2.310404539,-906.7241379310344,545.1724137931035,229.8793103448276,-8111.706896551724,-164.01724137931035,1038.3620689655172,7
2024-06-13 19:56:32,-0.02443460934,0.1014036313,-0.09529497474,2.348711967,-8.365341187,4.19464159,-160.64444444444445,767.2666666666667,149.95555555555555,-8139.688888888889,-250.37777777777777,1015.5111111111112,7
2024-06-13 19:56:32,-0.2186897546,-0.07452555746,-0.216246292,2.758120298,-9.488221169,3.493140221,-567.4137931034483,1010.425287356322,231.48275862068965,-8240.885057471265,-261.2413793103448,680.4827586206897,7
2024-06-13 19:56:33,-0.2186897546,-0.07452555746,-0.216246292,2.758120298,-9.488221169,3.493140221,-743.6382978723404,1242.6808510638298,88.82978723404256,-8238.127659574468,-216.6170212765957,138.19148936170214,7
2024-06-13 19:56:33,0.25167647,0.125838235,0.2504547536,2.45166254,-8.968679428,4.098873138,-549.3253012048193,1211.3855421686746,-977.2168674698796,-8196.843373493975,-103.93975903614458,-75.01204819277109,7
2024-06-13 19:56:33,0.25167647,0.125838235,0.2504547536,2.45166254,-8.968679428,4.098873138,-1020.5172413793103,1211.1724137931035,-1346.4827586206898,-8164.241379310345,-456.3793103448276,4.758620689655174,7
2024-06-13 19:56:33,-0.1026253626,-0.1233947799,-0.3164281845,2.501940727,-8.789113998,4.197035789,-558.9655172413793,307.7586206896552,-1325.3103448275865,-8221.172413793103,-1110.4137931034484,-316.2413793103448,7
2024-06-13 19:56:33,-0.1270599663,-0.00244346098,-0.007330383174,2.978386879,-9.006986618,3.785232782,-440.91011235955057,56.53932584269663,-314.29213483146066,-7928.438202247191,-1053.6741573033707,-358.17977528089887,7
2024-06-13 19:56:33,-0.1270599663,-0.00244346098,-0.007330383174,2.978386879,-9.006986618,3.785232782,-397.639751552795,85.54658385093168,-112.90683229813664,-8070.316770186336,-1050.72049689441,-306.59627329192546,7
2024-06-13 19:56:33,0.0354301855,-0.006108652335,-0.004886921961,2.853888512,-8.892065048,3.82593441,-611.8965517241379,107.10344827586206,-322.2413793103448,-7936.482758620689,-1081.2068965517242,24.86206896551724,7
2024-06-13 19:56:33,0.08185594529,-0.01343903504,-0.01954768784,2.863465309,-8.877699852,3.933673382,-511.4318181818182,-35.56818181818181,-496.25,-8235.704545454546,-1092.1363636363635,26.81818181818182,7
2024-06-13 19:56:33,0.08185594529,-0.01343903504,-0.01954768784,2.863465309,-8.877699852,3.933673382,178.56521739130434,-665.5217391304348,325.42391304347825,-8497.684782608696,-1232.4782608695652,-284.17391304347825,7
2024-06-13 19:56:33,0.00122173049,-0.01466076635,-0.0293215327,2.78924489,-8.796297073,3.933673382,412.9651162790698,-1063.8837209302326,216.9186046511628,-8247.883720930233,-1021.8255813953488,-215.02325581395348,7
2024-06-13 19:56:34,0.00122173049,-0.01466076635,-0.0293215327,2.78924489,-8.796297073,3.933673382,848.0,-1024.0,-4.0,-7845.0,-1108.0,517.0,7
2024-06-13 19:56:34,-0.03909537569,0.0,-0.02076941915,2.904166698,-8.899248123,3.916913986,569.438202247191,-517.3033707865168,495.7865168539326,-7876.696629213483,-850.3258426966293,822.2471910112359,7
2024-06-13 19:56:34,-0.009773843922,0.01221730467,0.00244346098,2.930502892,-8.951920509,3.907337189,-254.1555555555556,277.8888888888889,477.6,-8126.933333333333,-712.0222222222222,534.8666666666667,7
2024-06-13 19:56:34,-0.009773843922,0.01221730467,0.00244346098,2.930502892,-8.951920509,3.907337189,-245.32941176470587,322.05882352941177,359.7058823529412,-8255.588235294117,-692.7882352941176,528.4,7
2024-06-13 19:56:34,-0.00244346098,0.01588249579,0.008552113548,2.8969841,-8.942343712,3.840299606,-66.37362637362637,8.09890109890108,286.56043956043953,-8294.186813186812,-525.5274725274726,548.4065934065934,7
2024-06-13 19:56:34,0.00122173049,0.006108652335,0.0,2.880224705,-8.877699852,3.907337189,-221.94444444444449,336.27777777777777,358.05555555555554,-8074.444444444444,-479.72222222222223,524.1666666666666,7
2024-06-13 19:56:34,0.00122173049,0.006108652335,0.0,2.880224705,-8.877699852,3.907337189,287.3103448275862,-39.41379310344828,337.41379310344826,-8315.137931034482,-478.44827586206895,218.86206896551724,7
2024-06-13 19:56:34,-0.008552113548,-0.00122173049,-0.009773843922,2.796427488,-8.937555313,3.924096584,317.34567901234567,-15.629629629629626,253.0987654320988,-8296.555555555555,-564.5061728395061,208.320987654321,7
2024-06-13 19:56:34,-0.008552113548,-0.00122173049,-0.009773843922,2.796427488,-8.937555313,3.924096584,87.09876543209879,226.962962962963,444.4567901234568,-8285.444444444445,-307.71604938271605,205.23456790123456,7
2024-06-13 19:56:34,0.00122173049,0.006108652335,0.006108652335,2.875436306,-8.932766914,3.847482204,-352.0681818181818,331.14772727272725,134.02272727272728,-8181.806818181818,-254.6818181818182,178.35227272727272,7
2024-06-13 19:56:35,0.003665191587,0.00122173049,0.0,2.82276392,-8.901641846,3.845088005,-551.6111111111111,260.22222222222223,101.77777777777776,-8165.222222222223,-357.0,160.0,7
2024-06-13 19:56:35,0.003665191587,0.00122173049,0.0,2.82276392,-8.901641846,3.845088005,-249.2831325301205,-24.795180722891565,60.265060240963855,-8309.072289156626,-371.96385542168673,160.5843373493976,7
2024-06-13 19:56:35,0.00122173049,0.004886921961,0.00244346098,2.798821688,-8.84896946,3.845088005,-370.36746987951807,-30.81927710843373,28.93975903614458,-8318.710843373494,-367.144578313253,155.16265060240963,7
2024-06-13 19:56:35,0.004886921961,-0.003665191587,-0.007330383174,2.856282711,-8.971074104,3.916913986,-292.5434782608696,-50.06521739130434,-299.60869565217394,-8302.076086956522,-192.0,364.2065217391304,7
2024-06-13 19:56:35,0.004886921961,-0.003665191587,-0.007330383174,2.856282711,-8.971074104,3.916913986,-130.0888888888889,284.26666666666665,41.355555555555554,-8303.222222222223,-237.44444444444449,346.5111111111111,7
2024-06-13 19:56:35,0.0,0.00122173049,0.003665191587,2.813186884,-8.978256226,3.921702385,-169.0681818181818,289.04545454545456,46.45454545454545,-8269.818181818182,-245.0909090909091,332.1818181818182,7
2024-06-13 19:56:35,0.0,0.00122173049,0.003665191587,2.813186884,-8.978256226,3.921702385,-351.5967741935484,271.47849462365593,62.74731182795699,-8301.537634408602,-228.98387096774192,298.7741935483871,7
2024-06-13 19:56:35,0.0,-0.00244346098,-0.008552113548,2.853888512,-8.913613319,3.866635799,-349.98387096774195,277.39247311827955,69.73655913978494,-8303.68817204301,-220.9193548387097,285.8709677419355,7
2024-06-13 19:56:35,0.01221730467,-0.01343903504,-0.009773843922,2.8969841,-8.918401718,3.890577793,-329.4,-72.4,-92.3,-8279.55,-203.9,291.7,7
2024-06-13 19:56:35,0.01221730467,-0.01343903504,-0.009773843922,2.8969841,-8.918401718,3.890577793,-182.57142857142856,-10.142857142857142,31.670329670329664,-8290.318681318682,-166.14285714285714,270.1208791208791,7
2024-06-13 19:56:36,0.009773843922,-0.009773843922,-0.009773843922,2.853888512,-8.916007042,3.890577793,-332.8139534883721,-35.15116279069768,71.70930232558139,-8076.837209302325,-188.7093023255814,315.98837209302326,7
2024-06-13 19:56:36,0.01343903504,-0.0109955743,-0.00122173049,2.885013103,-8.968679428,3.912125587,-302.97777777777776,355.4666666666667,23.155555555555555,-8256.577777777778,-339.9111111111111,289.7111111111111,7
2024-06-13 19:56:36,0.01343903504,-0.0109955743,-0.00122173049,2.885013103,-8.968679428,3.912125587,-214.9438202247191,151.07865168539325,-292.7415730337079,-8305.056179775282,-192.8314606741573,-34.651685393258425,7
2024-06-13 19:56:36,0.00122173049,0.02076941915,0.02687807009,2.865859509,-8.863334656,3.926490784,-306.58620689655174,334.7241379310345,-116.89655172413794,-8285.586206896553,-194.896551724138,-99.10344827586206,7
2024-06-13 19:56:36,0.00122173049,0.02076941915,0.02687807009,2.865859509,-8.863334656,3.926490784,34.4093567251462,128.73684210526315,120.21637426900584,-8273.853801169591,-173.32748538011697,95.03508771929825,7
2024-06-13 19:56:36,0.02199114859,0.008552113548,-0.007330383174,2.925714493,-8.719682693,4.118026733,37.333333333333336,134.0,100.33333333333331,-8265.666666666666,-175.66666666666666,81.0,7
2024-06-13 19:56:36,-0.03298672289,0.02076941915,-0.008552113548,2.949656487,-8.83699894,3.964797974,-241.35555555555555,311.5777777777778,79.26666666666667,-8273.466666666667,-234.04444444444445,2.8666666666666667,7
2024-06-13 19:56:36,-0.03298672289,0.02076941915,-0.008552113548,2.949656487,-8.83699894,3.964797974,-208.04651162790697,297.1860465116279,72.16279069767442,-8266.279069767443,-144.51162790697674,-274.30232558139534,7
2024-06-13 19:56:36,-0.004886921961,0.00244346098,-0.00244346098,2.875436306,-8.985439301,3.878606796,-173.20689655172413,290.5632183908046,-153.35632183908046,-8273.954022988506,-168.4712643678161,-320.8390804597701,7
2024-06-13 19:56:36,-0.00244346098,0.003665191587,0.003665191587,2.85867691,-8.920795441,3.974374771,-208.8333333333333,44.55555555555554,-288.0,-8267.388888888889,-190.61111111111111,-351.1111111111111,7
2024-06-13 19:56:37,-0.00244346098,0.003665191587,0.003665191587,2.85867691,-8.920795441,3.974374771,-293.9550561797753,79.6629213483146,-13.943820224719104,-8282.629213483146,-464.9213483146068,-369.4719101123595,7
2024-06-13 19:56:37,-0.004886921961,-0.00122173049,-0.003665191587,2.808398485,-8.863334656,3.881000996,101.48387096774194,10.87096774193548,96.29032258064515,-8290.90322580645,-271.80645161290323,-381.61290322580646,7
2024-06-13 19:56:37,-0.004886921961,-0.00122173049,-0.003665191587,2.808398485,-8.863334656,3.881000996,-78.94444444444444,-371.44444444444446,-290.1111111111111,-8260.722222222223,-532.3333333333334,-281.94444444444446,7
2024-06-13 19:56:37,0.00122173049,-0.006108652335,-0.008552113548,2.851494312,-8.901641846,3.888183594,11.159090909090908,-544.5454545454545,-30.13636363636364,-8277.636363636364,-562.4772727272727,73.70454545454545,7
2024-06-13 19:56:37,-0.00122173049,0.00122173049,0.003665191587,2.851494312,-8.875306129,3.909731388,360.3033707865168,-450.2808988764045,358.1685393258427,-8279.719101123595,-220.7078651685393,300.91011235955057,7
2024-06-13 19:56:37,-0.00122173049,0.00122173049,0.003665191587,2.851494312,-8.875306129,3.909731388,161.74725274725273,-237.87912087912088,-46.21978021978022,-8291.725274725275,-335.27472527472526,207.7912087912088,7
2024-06-13 19:56:37,-0.03787364438,0.004886921961,-0.02565634064,3.069366693,-8.932766914,3.983951569,21.344827586206897,-162.51724137931035,6.413793103448271,-8287.206896551725,-323.86206896551727,372.2413793103448,7
2024-06-13 19:56:37,-0.2101376504,0.08307767659,0.0,2.837129116,-8.913613319,3.775655985,-200.2173913043478,144.1195652173913,107.55434782608695,-8285.217391304348,-332.64130434782606,530.9347826086956,7
2024-06-13 19:56:37,-0.2101376504,0.08307767659,0.0,2.837129116,-8.913613319,3.775655985,-158.46153846153845,167.92307692307693,-72.0,-8300.615384615385,-341.84615384615387,193.53846153846155,7
2024-06-13 19:56:37,-0.3335324228,0.05253441259,0.02687807009,2.834734917,-9.181763649,3.761290789,-340.3296703296703,185.05494505494505,-55.0,-8263.329670329671,-311.5274725274725,317.0659340659341,7
2024-06-13 19:56:38,-0.3335324228,0.05253441259,0.02687807009,2.834734917,-9.181763649,3.761290789,-207.3932584269663,205.7078651685393,-247.53932584269663,-8294.61797752809,-292.123595505618,272.6629213483146,7
2024-06-13 19:56:38,0.0232128799,-0.04276056588,-0.06475171447,2.772485495,-9.198522568,3.301604033,-219.7674418604651,596.5813953488372,-58.13953488372093,-8277.720930232557,-328.51162790697674,-109.65116279069768,7
2024-06-13 19:56:38,0.1356120855,-0.03176499158,-0.05497787148,2.875436306,-9.136273384,3.399766445,-187.0568181818182,593.8295454545455,279.7386363636364,-8290.636363636364,-300.59090909090907,-287.64772727272725,7
2024-06-13 19:56:38,0.1356120855,-0.03176499158,-0.05497787148,2.875436306,-9.136273384,3.399766445,55.875,212.875,315.625,-8315.125,-287.875,-347.875,7
2024-06-13 19:56:38,0.04520402849,-0.0232128799,-0.03298672289,2.995146275,-8.997409821,3.60327363,90.1141304347826,177.54891304347825,322.6902173913044,-8311.320652173914,-282.98369565217394,-216.8967391304348,7
2024-06-13 19:56:38,0.0171042271,-0.02199114859,-0.02443460934,3.045424461,-9.014169693,3.701435804,-6.41463414634147,-119.8048780487805,-6.243902439024391,-8249.048780487805,4.146341463414629,-141.8048780487805,7
2024-06-13 19:56:38,0.0171042271,-0.02199114859,-0.02443460934,3.045424461,-9.014169693,3.701435804,-139.109756097561,-90.6829268292683,261.1341463414634,-8249.426829268292,-104.96341463414636,-379.4268292682927,7
2024-06-13 19:56:38,0.006108652335,-0.009773843922,-0.02076941915,3.040636063,-9.030928612,3.677493811,-304.123595505618,-68.56179775280899,67.0,-8241.651685393259,-75.37078651685394,-375.561797752809,7
2024-06-13 19:56:38,0.006108652335,-0.009773843922,-0.02076941915,3.040636063,-9.030928612,3.677493811,-284.6363636363636,64.0909090909091,-98.0,-8290.454545454546,-55.09090909090909,-319.0,7
2024-06-13 19:56:38,-0.03420845419,0.01221730467,-0.01466076635,3.059789658,-8.985439301,3.660734415,76.10344827586209,-5.689655172413779,-90.183908045977,-8265.919540229885,-59.05747126436782,-281.71264367816093,7
2024-06-13 19:56:39,-0.01832595654,-0.0109955743,-0.02809980139,3.098097086,-8.889671326,3.610456228,84.3932584269663,21.865168539325843,-85.24719101123596,-8268.314606741573,252.06741573033707,0.5617977528089888,7
2024-06-13 19:56:39,-0.01832595654,-0.0109955743,-0.02809980139,3.098097086,-8.889671326,3.610456228,59.75862068965517,16.586206896551722,-116.41379310344828,-8280.034482758621,-1.0,63.6551724137931,7
2024-06-13 19:56:39,0.04642575979,-0.03176499158,-0.03054326214,3.236960649,-9.014169693,3.620033026,33.36363636363636,75.36363636363636,-58.54545454545455,-8270.545454545454,266.27272727272725,94.27272727272728,7
2024-06-13 19:56:39,0.06230825558,-0.01832595654,-0.04031710699,3.186682463,-8.889671326,3.701435804,-99.6153846153846,101.53846153846152,-102.3076923076923,-8273.0,285.46153846153845,115.3846153846154,7
2024-06-13 19:56:39,0.06230825558,-0.01832595654,-0.04031710699,3.186682463,-8.889671326,3.701435804,5.0,-125.51724137931036,-59.47126436781609,-8275.551724137931,333.91954022988506,-125.98850574712644,7
2024-06-13 19:56:39,0.109955743,-0.06108652428,-0.1050688252,3.366247654,-8.705317497,3.845088005,-266.44444444444446,-110.88888888888889,-91.94444444444444,-8257.666666666666,359.22222222222223,-117.66666666666669,7
2024-06-13 19:56:39,0.109955743,-0.06108652428,-0.1050688252,3.366247654,-8.705317497,3.845088005,-191.2127659574468,-51.0,40.70212765957447,-8288.659574468085,353.3617021276596,-119.27659574468083,7
2024-06-13 19:56:39,0.09773843735,-0.01343903504,-0.007330383174,3.488351822,-8.671798706,3.900154591,-345.0235294117647,-23.67058823529412,68.64705882352942,-8277.023529411765,336.8941176470588,-73.69411764705882,7
2024-06-13 19:56:39,0.0354301855,-0.01588249579,-0.01343903504,3.574543238,-8.621520042,3.909731388,-324.4139784946237,274.47849462365593,92.09139784946235,-8255.231182795698,344.2795698924731,-26.48924731182796,7
2024-06-13 19:56:39,0.0354301855,-0.01588249579,-0.01343903504,3.574543238,-8.621520042,3.909731388,-315.2741935483871,284.6935483870968,86.1774193548387,-8257.91935483871,361.483870967742,93.40322580645162,7
2024-06-13 19:56:40,0.08429940045,-0.01588249579,0.01832595654,3.60566783,-8.489839554,3.969586372,-360.1818181818182,287.5681818181818,21.93181818181818,-8265.0,294.75,10.25,7
2024-06-13 19:56:40,-0.004886921961,-0.05009094998,-0.05864306539,3.505111217,-8.513781548,4.084507942,-370.5586592178771,231.6927374301676,94.25698324022346,-8268.743016759776,289.8994413407821,-270.5139664804469,7
2024-06-13 19:56:40,-0.004886921961,-0.05009094998,-0.05864306539,3.505111217,-8.513781548,4.084507942,-359.9441340782123,82.53072625698323,95.37430167597763,-8267.625698324022,293.8100558659218,-272.7486033519553,7
2024-06-13 19:56:40,-0.06841690838,0.02565634064,0.02565634064,3.615244627,-8.549694061,3.948038578,-330.1904761904762,-52.80952380952381,75.02380952380952,-8261.666666666666,318.9047619047619,-300.3809523809524,7
2024-06-13 19:56:40,-0.06841690838,0.02565634064,0.02565634064,3.615244627,-8.549694061,3.948038578,-310.8222222222222,12.811111111111115,42.644444444444446,-8272.144444444444,314.52222222222224,-280.8111111111112,7
2024-06-13 19:56:40,2.432465315,0.2174680233,0.735481739,3.509899616,-9.718064308,7.568071365,-71.59770114942529,-40.48275862068965,107.41379310344828,-8246.28735632184,327.2758620689655,-65.29885057471265,7
2024-06-13 19:56:40,2.759889126,2.288301229,1.831374049,-0.8834604025,-7.127538681,7.410054207,-209.47191011235955,-111.49438202247192,60.70786516853933,-8264.483146067416,350.1685393258427,5.674157303370786,7
2024-06-13 19:56:40,2.759889126,2.288301229,1.831374049,-0.8834604025,-7.127538681,7.410054207,-306.3370786516854,-98.3932584269663,36.13483146067416,-8285.662921348314,303.7415730337079,29.865168539325843,7
2024-06-13 19:56:40,-0.5595525503,1.615127683,1.744631171,-6.239289761,-5.104437828,5.269638062,-278.57954545454544,-96.01136363636364,73.61363636363636,-8261.96590909091,291.20454545454544,35.82954545454545,7
2024-06-13 19:56:40,3.386636972,-0.5644394755,0.4312708676,-7.165845871,-1.036689281,4.050989151,-302.84444444444443,-47.266666666666666,96.08888888888887,-8261.222222222223,294.77777777777777,31.2,7
2024-06-13 19:56:41,3.386636972,-0.5644394755,0.4312708676,-7.165845871,-1.036689281,4.050989151,-301.85057471264366,-7.885057471264368,90.0,-8257.643678160919,327.85057471264366,-264.5287356321839,7
2024-06-13 19:56:41,2.802649736,-1.998751044,0.1673770845,-1.235408068,1.553836942,6.136339188,-297.5869565217391,267.7391304347826,80.04347826086956,-8254.108695652174,333.6304347826087,-283.7608695652174,7
2024-06-13 19:56:41,2.802649736,-1.998751044,0.1673770845,1.254561663,4.551377296,8.65743351,-351.4146341463415,-62.95731707317073,52.88414634146341,-8300.292682926829,331.2926829268293,-298.3536585365854,7
2024-06-13 19:56:41,1.221730471,-0.9651671052,1.056796908,1.254561663,4.551377296,8.65743351,-356.2926829268293,-90.39634146341464,55.93292682926829,-8297.853658536585,328.8536585365854,-299.5731707317073,7
2024-06-13 19:56:41,-0.3677408695,0.03054326214,0.4691445231,-0.9457096457,1.364694953,9.284713745,-209.67441860465115,-61.43023255813954,59.872093023255815,-8248.60465116279,357.7674418604651,-308.9418604651163,7
2024-06-13 19:56:41,-0.3677408695,0.03054326214,0.4691445231,-0.9457096457,1.364694953,9.284713745,-321.93023255813955,-68.44186046511628,35.83720930232558,-8267.186046511628,307.3953488372093,-292.8372093023256,7
2024-06-13 19:56:41,-0.9419541955,-0.2431243658,0.04031710699,-0.672770679,6.095637321,9.607931137,-302.7052631578948,-96.53684210526316,41.43157894736842,-8265.284210526315,294.8526315789473,-291.1894736842105,7
2024-06-13 19:56:41,-0.4654793143,0.6267477274,0.3457497358,-2.588132143,1.78368032,7.738059998,-318.6629213483146,-73.38202247191012,70.7752808988764,-8251.112359550561,312.4494382022472,-286.0,7
2024-06-13 19:56:41,-0.4654793143,0.6267477274,0.3457497358,-2.588132143,1.78368032,7.738059998,-309.8333333333333,-35.333333333333336,50.833333333333336,-8252.0,304.8333333333333,-293.1666666666667,7
2024-06-13 19:56:41,-0.3139847219,0.2981022298,-0.3164281845,-0.5099649429,-1.216254473,11.15458584,-271.0,-16.5,-261.5,-8257.5,327.0,-325.5,7
2024-06-13 19:56:42,-0.3139847219,0.2981022298,-0.3164281845,-0.5099649429,-1.216254473,11.15458584,-313.4235294117647,25.458823529411767,-157.8470588235294,-8272.541176470588,313.78823529411767,-333.56470588235294,7
2024-06-13 19:56:42,5.193576336,-0.967610538,0.2406809032,-2.49236393,10.87446404,7.192182064,-326.4065934065934,-1.84615384615384,50.86813186813187,-8250.527472527472,278.3956043956044,-314.1098901098901,7
2024-06-13 19:56:42,-4.141666412,0.5424483418,0.1331686229,-0.7493851185,4.979939461,8.875306129,-282.4725274725275,-106.81318681318682,56.472527472527474,-8245.626373626374,299.86813186813185,-308.7472527472528,7
2024-06-13 19:56:42,-4.141666412,0.5424483418,0.1331686229,-0.7493851185,4.979939461,8.875306129,-317.6470588235294,-84.70588235294117,-178.88235294117646,-8272.29411764706,-8.941176470588236,-294.29411764705884,7
2024-06-13 19:56:42,1.136209369,0.6438519955,-0.4068362415,-0.6775590777,1.218648672,11.62624359,-292.4831460674157,81.26966292134833,-216.0112359550561,-8281.842696629214,-46.50561797752809,-293.07865168539325,7
2024-06-13 19:56:42,-0.735481739,0.7440338731,-0.4935791194,-5.339069843,-2.561795712,7.481880188,-818.3103448275863,-577.2873563218391,-968.4022988505748,-8127.83908045977,280.81609195402297,-317.5057471264368,7
2024-06-13 19:56:42,-0.735481739,0.7440338731,-0.4935791194,-5.339069843,-2.561795712,7.481880188,-1289.465909090909,-238.0,-1320.3068181818182,-8236.477272727272,-585.3181818181819,272.9886363636364,7
2024-06-13 19:56:42,0.4263839424,-1.177748203,0.7562511563,-0.215478152,5.008669853,11.43949604,-774.5505617977528,-227.74157303370788,-1000.7303370786516,-8237.067415730337,-465.70786516853934,320.8988764044944,7
2024-06-13 19:56:42,0.4263839424,-1.177748203,0.7562511563,-0.215478152,5.008669853,11.43949604,-351.03409090909093,-54.84090909090909,-238.875,-8138.375,-825.0681818181819,324.6136363636364,7
2024-06-13 19:56:42,0.3188716471,-0.4764748812,-0.4532620013,-1.458068848,0.383072257,8.113949776,74.04347826086956,-96.47826086956522,-362.7826086956522,-8284.717391304348,-864.9565217391304,289.2391304347826,7
2024-06-13 19:56:43,2.575407982,0.7086036801,-0.01221730467,-4.043806553,-0.624886632,7.594407558,304.12790697674416,-284.8139534883721,-258.0581395348837,-8286.383720930233,-851.4186046511628,147.67441860465115,7
2024-06-13 19:56:43,2.575407982,0.7086036801,-0.01221730467,-4.043806553,-0.624886632,7.594407558,-30.080459770114945,42.27586206896552,-169.72413793103448,-8269.620689655172,-737.8045977011494,196.31034482758625,7
2024-06-13 19:56:43,-1.539380431,-0.8026769161,0.5766568184,-1.230619669,3.926490784,12.44984913,28.08888888888889,-55.24444444444444,-222.3111111111111,-8282.333333333334,-704.7333333333333,222.44444444444449,7
2024-06-13 19:56:43,-3.319441795,-0.04398229718,0.3543018401,-0.8379706144,-6.258443356,10.00536919,30.58620689655172,83.44827586206895,-354.3908045977012,-8281.034482758621,-733.1264367816092,223.32183908045977,7
2024-06-13 19:56:43,-3.319441795,-0.04398229718,0.3543018401,-0.8379706144,-6.258443356,10.00536919,13.647727272727272,-84.79545454545455,30.27272727272725,-8292.431818181818,-732.3409090909091,231.0,7
2024-06-13 19:56:43,1.995085835,0.5607742667,-0.4031710625,-4.958391666,-3.770867586,5.260061264,11.42528735632184,-60.40229885057471,22.33333333333333,-8279.12643678161,-773.4137931034483,223.3448275862069,7
2024-06-13 19:56:43,1.995085835,0.5607742667,-0.4031710625,-4.958391666,-3.770867586,5.260061264,7.793103448275862,78.08045977011494,7.586206896551724,-8287.057471264368,-1056.5977011494251,228.2528735632184,7
2024-06-13 19:56:43,-1.372003317,-0.3005456924,0.4153883755,-0.6440402865,3.622427225,12.35168648,38.23076923076923,-58.75824175824176,57.84615384615385,-8262.57142857143,-1054.4835164835165,240.5824175824176,7
2024-06-13 19:56:43,-0.4312708676,-0.06230825558,0.03054326214,-1.134851575,-2.767697096,10.98699188,-295.19767441860466,-20.86046511627907,101.06976744186046,-8282.290697674418,-1038.2209302325582,199.06976744186048,7
2024-06-13 19:56:43,-0.4312708676,-0.06230825558,0.03054326214,-1.134851575,-2.767697096,10.98699188,-314.98850574712645,-16.95402298850575,117.55172413793105,-8285.459770114943,-1040.0229885057472,197.49425287356323,7
2024-06-13 19:56:44,2.38115263,0.08185594529,0.1319468915,-3.220201254,-0.05267243832,7.817068577,-312.2197802197802,-36.34065934065934,-108.87912087912088,-8288.21978021978,-765.4065934065934,178.15384615384616,7
2024-06-13 19:56:44,1.078788042,0.1795943826,-0.1123992056,-1.762132406,8.693346024,9.770736694,-324.3411764705882,-45.188235294117646,-81.02352941176471,-8292.188235294117,-735.3529411764706,182.4823529411765,7
