Timestamp,Gyro_x_x,Gyro_y_x,Gyro_z_x,Acc_x_x,Acc_y_x,Acc_z_x,Gyro_x_y,Gyro_y_y,Gyro_z_y,Acc_x_y,Acc_y_y,Acc_z_y,combined_action_num
2024-06-13 20:14:11,-0.3286454976,-0.1844813079,0.7855727077,-1.663970232,-7.254431248,6.414066315,-485.9803921568628,-87.56862745098039,-352.9313725490196,-8156.901960784314,-532.5098039215686,-4.450980392156865,5
2024-06-13 20:14:11,-0.3286454976,-0.1844813079,0.7855727077,-1.663970232,-7.254431248,6.414066315,-810.3592233009708,178.6504854368932,-2343.533980582524,-7935.058252427185,-1188.757281553398,109.6990291262136,5
2024-06-13 20:14:11,-0.4642575979,-0.125838235,0.3103195429,-2.616862535,-6.567295074,5.825092793,-968.809523809524,278.04761904761904,-1929.5238095238096,-8218.52380952381,-1299.7142857142858,2.904761904761905,5
2024-06-13 20:14:11,-0.07819075137,-0.2211332172,-0.2895501256,-2.171540976,-7.912836552,5.489904404,-1150.766990291262,380.2912621359224,611.3300970873786,-8223.252427184467,-1767.5922330097087,-259.80582524271847,5
2024-06-13 20:14:11,-0.07819075137,-0.2211332172,-0.2895501256,-2.171540976,-7.912836552,5.489904404,-559.3428571428572,225.8857142857143,1578.1714285714286,-7906.171428571429,-925.5714285714286,-554.2285714285714,5
2024-06-13 20:14:11,-0.006108652335,1.004262447,-0.3445279896,-2.147598982,-7.95832634,6.047753334,-96.33333333333331,75.66666666666667,211.3333333333333,-7921.833333333333,-681.1666666666666,-230.16666666666663,5
2024-06-13 20:14:12,-0.006108652335,1.004262447,-0.3445279896,-2.147598982,-7.95832634,6.047753334,-15.785046728971963,-225.53271028037383,122.44859813084112,-8195.579439252337,-716.9345794392524,-164.1214953271028,5
2024-06-13 20:14:12,-2.662150621,1.459967971,-0.4068362415,-4.13239193,-7.175422668,2.178723574,290.89473684210526,8.631578947368421,128.52631578947367,-8225.105263157895,-868.0,-353.52631578947364,5
2024-06-13 20:14:12,-2.662150621,1.459967971,-0.4068362415,-4.13239193,-7.175422668,2.178723574,393.5049504950495,-345.3762376237624,228.10891089108912,-7973.3267326732675,-527.4059405940594,-349.34653465346537,5
2024-06-13 20:14:12,-1.649336219,1.048244715,1.163087368,-3.782838583,-12.07874775,-1.601720929,160.0,-56.80000000000001,-227.2,-8213.6,-799.6,-149.2,5
2024-06-13 20:14:12,2.635272741,0.1356120855,1.744631171,-5.030217648,-7.026981831,0.1197100878,-693.8571428571429,352.7714285714286,-297.6,-7834.828571428571,-759.2571428571429,-621.4857142857143,5
2024-06-13 20:14:12,2.635272741,0.1356120855,1.744631171,-5.030217648,-7.026981831,0.1197100878,-952.495145631068,186.71844660194176,-189.93203883495147,-8100.067961165048,-1103.9126213592233,-758.4757281553398,5
2024-06-13 20:14:12,1.390329242,0.07086037099,0.4202753007,-6.040570736,-4.620809078,0.7493851185,-583.8446601941748,18.96116504854368,-759.8834951456311,-7900.73786407767,-1176.3106796116506,-664.0970873786408,5
2024-06-13 20:14:12,2.829527855,-1.610240817,-0.6157521605,-6.904877663,-6.167463779,4.388571739,-691.1346153846154,-175.73076923076923,-674.6923076923077,-8068.875,-1374.201923076923,-662.8173076923077,5
2024-06-13 20:14:12,2.829527855,-1.610240817,-0.6157521605,-6.904877663,-6.167463779,4.388571739,-814.6037735849056,-592.622641509434,-339.3962264150944,-8172.226415094339,-1464.0377358490566,-507.2830188679245,5
2024-06-13 20:14:12,-0.3995058835,-1.467298269,-0.2981022298,-3.809175014,-7.000645638,11.25993061,180.5,-841.0,-245.0,-8021.5,-1422.5,-131.5,5
2024-06-13 20:14:13,-0.3995058835,-1.467298269,-0.2981022298,-3.809175014,-7.000645638,11.25993061,437.7058823529412,-528.2647058823529,508.3235294117647,-8192.0,-971.0,35.32352941176471,5
2024-06-13 20:14:13,-0.05131268129,-0.5057964325,0.2467895597,-3.543418407,-4.759673119,8.556877136,460.4038461538461,-990.3461538461538,277.88461538461536,-8176.884615384615,-930.25,215.19230769230768,5
2024-06-13 20:14:13,0.07941248268,-0.1380555481,0.04886921868,-1.912967205,-4.331110954,7.218518257,447.7087378640777,-1218.378640776699,119.89320388349516,-7889.407766990291,-973.6893203883496,814.6407766990292,5
2024-06-13 20:14:13,0.07941248268,-0.1380555481,0.04886921868,-1.912967205,-4.331110954,7.218518257,480.2735849056604,-890.0283018867924,210.56603773584905,-7883.047169811321,-624.7358490566038,927.1792452830188,5
2024-06-13 20:14:13,0.483805269,-0.2822197378,-0.3213151097,-2.365471363,-5.705382824,8.056488991,359.01980198019805,-175.65346534653466,540.4653465346535,-7972.792079207921,-603.6435643564356,1346.8712871287128,5
2024-06-13 20:14:13,-0.7452555895,0.4471533597,-0.2113593817,-0.85473001,-4.244919777,9.495404243,-715.5346534653465,154.88118811881188,266.3069306930693,-8482.366336633664,-611.2772277227723,1332.752475247525,5
2024-06-13 20:14:13,-0.7452555895,0.4471533597,-0.2113593817,-0.85473001,-4.244919777,9.495404243,-1395.504854368932,243.97087378640776,700.8640776699029,-8131.73786407767,-470.71844660194176,1306.5728155339805,5
2024-06-13 20:14:13,-2.085494041,1.28159523,-0.1209513173,-3.543418407,-7.122750282,4.836287498,-1087.6923076923076,305.2692307692308,533.0,-7960.461538461538,-20.384615384615387,1011.7307692307692,5
2024-06-13 20:14:13,-2.085494041,1.28159523,-0.1209513173,-3.543418407,-7.122750282,4.836287498,-2104.788461538461,-255.90384615384616,-726.5576923076923,-8357.096153846154,-571.5384615384615,1104.0,5
2024-06-13 20:14:13,-1.810604572,1.192408919,0.2590068579,-2.348711967,-11.16176796,0.9648633003,-2683.467289719626,-143.85981308411215,-174.22429906542055,-8158.289719626168,99.2803738317757,1063.6915887850466,5
2024-06-13 20:14:14,4.2516222,0.3750712574,0.5033529401,-4.642356873,-6.766014099,2.85867691,-3230.196261682243,470.1588785046729,103.34579439252336,-7887.261682242991,-272.68224299065423,1132.8504672897195,5
2024-06-13 20:14:14,4.2516222,0.3750712574,0.5033529401,-4.642356873,-6.766014099,2.85867691,-4919.255102040816,630.4795918367347,-763.7755102040817,-8313.418367346938,-348.3979591836735,852.9489795918367,5
2024-06-13 20:14:14,-0.5363397002,-0.8002334833,-0.6414085031,-2.020706177,-6.675034523,4.666299343,-5199.235294117647,413.5490196078432,-863.843137254902,-8502.960784313726,-812.8627450980392,423.1764705882353,5
2024-06-13 20:14:14,-0.2553416789,0.1246165112,-0.145385921,-3.876212597,-6.162675381,7.58722496,-3409.951923076923,765.75,-810.4423076923076,-7956.317307692308,-1032.4134615384614,233.69230769230768,5
2024-06-13 20:14:14,-0.2553416789,0.1246165112,-0.145385921,-3.876212597,-6.162675381,7.58722496,-2591.772277227723,571.8712871287129,-499.940594059406,-8123.574257425743,-975.0693069306932,-79.02970297029702,5
2024-06-13 20:14:14,0.1087340117,0.02443460934,-0.4251621962,-3.114856482,-7.424419403,5.750872612,-2274.830188679245,571.5283018867924,-182.2830188679245,-8260.716981132075,-1137.8490566037735,24.37735849056604,5
2024-06-13 20:14:14,0.1087340117,0.02443460934,-0.4251621962,-3.114856482,-7.424419403,5.750872612,-1615.01,488.2,-348.13,-8226.07,-847.22,-223.38,5
2024-06-13 20:14:14,-2.334727049,0.4092797041,-0.1490511149,-2.978386879,-7.158663273,4.855441093,-898.2815533980582,577.4660194174758,202.5922330097088,-8223.582524271844,-824.7961165048544,-217.2038834951456,5
2024-06-13 20:14:14,-3.207042456,0.4043927789,0.3762930036,-4.110844135,-8.652645111,0.6560112834,261.13861386138615,177.0,545.1782178217821,-7988.920792079208,-431.3762376237624,-574.1386138613861,5
2024-06-13 20:14:14,-3.207042456,0.4043927789,0.3762930036,-4.110844135,-8.652645111,0.6560112834,179.4607843137255,644.3235294117646,-510.3529411764706,-7900.058823529412,-599.5784313725491,-839.1274509803922,5
2024-06-13 20:14:15,-2.025629044,0.8747590184,-1.698205352,-1.297657371,-7.781155586,-4.505887508,93.26923076923076,498.4038461538461,-540.8269230769231,-7922.75,-576.6538461538462,-847.5769230769231,5
2024-06-13 20:14:15,-0.1905899495,0.2174680233,-0.6670648456,-0.4692635238,-8.494627953,-8.406042099,298.061320754717,34.575471698113205,65.60377358490567,-7982.188679245283,-1048.8915094339625,-847.8867924528302,5
2024-06-13 20:14:15,-0.1905899495,0.2174680233,-0.6670648456,-0.4692635238,-8.494627953,-8.406042099,242.87264150943395,16.650943396226417,222.2075471698113,-8112.377358490566,-1046.5330188679245,-849.7735849056604,5
2024-06-13 20:14:15,-0.3225368559,-0.2651155293,-0.9566149712,-0.7254431248,-7.352593422,-6.31590414,307.53921568627453,-118.52941176470588,399.8333333333333,-8092.343137254902,-939.656862745098,-848.9411764705883,5
2024-06-13 20:14:15,-0.3225368559,-0.2651155293,-0.9566149712,-0.7254431248,-7.352593422,-6.31590414,2557.891089108911,-105.48514851485147,558.6732673267327,-8392.79207920792,-848.6237623762377,-972.6237623762376,5
2024-06-13 20:14:15,1.174082994,-1.134987593,-0.676838696,0.55784899,-9.239224434,-7.467514992,4157.867924528302,-676.566037735849,501.811320754717,-7829.641509433963,-827.0754716981132,-686.1698113207547,5
2024-06-13 20:14:15,-1.529606581,-1.021366715,0.814894259,-1.594538331,-7.448361397,-5.882553577,4021.550458715597,-755.302752293578,468.0917431192661,-7717.825688073394,-435.33027522935777,-857.3302752293578,5
2024-06-13 20:14:15,-1.529606581,-1.021366715,0.814894259,-1.594538331,-7.448361397,-5.882553577,2218.0,-7.074074074074074,-509.55555555555554,-7919.666666666667,-764.2962962962963,-205.44444444444449,5
2024-06-13 20:14:15,-0.6731734872,0.5326744914,-0.4862487316,-0.7302315235,-5.049371243,-8.300697327,2121.722772277228,-39.27722772277228,-1040.7227722772277,-7983.663366336634,-956.049504950495,-341.3960396039604,5
2024-06-13 20:14:16,-0.06841690838,-0.09040805697,-0.3750712574,0.8283938169,-5.147533417,-9.502586365,1523.861111111111,-245.85185185185185,101.35185185185183,-7623.037037037037,-1115.361111111111,9.574074074074073,5
2024-06-13 20:14:16,-0.05986479297,-0.4373795092,-0.08429940045,1.029506683,-8.288725853,-8.374917984,1621.0833333333333,617.1111111111111,-211.6111111111111,-7563.777777777777,-762.5833333333333,-558.9444444444445,5
2024-06-13 20:14:16,-0.05986479297,-0.4373795092,-0.08429940045,1.029506683,-8.288725853,-8.374917984,286.3267326732673,1645.247524752475,139.43564356435644,-8142.881188118812,-716.3267326732673,-1244.0792079207922,5
2024-06-13 20:14:16,0.6927211881,0.1295034289,0.9321803451,-0.921767652,-5.918466568,-4.843470097,-223.07766990291265,-769.0097087378641,-596.6699029126214,-7966.038834951456,-1351.776699029126,-1041.8155339805826,5
2024-06-13 20:14:16,0.4056145251,0.8197811842,0.4764748812,1.065419793,-5.928043365,-8.274360657,-234.1165048543689,-580.1359223300971,-429.3495145631068,-7928.184466019417,-1552.1650485436894,-774.7864077669904,5
2024-06-13 20:14:16,0.4056145251,0.8197811842,0.4764748812,1.065419793,-5.928043365,-8.274360657,-214.50485436893203,-193.9514563106796,-786.8446601941747,-8229.436893203883,-1635.0291262135922,-578.5242718446602,5
2024-06-13 20:14:16,0.4434881806,0.7208209634,1.912008166,-3.715801001,-6.593631268,-6.287173748,-60.82075471698113,-472.8679245283019,-360.7547169811321,-7869.245283018868,-1450.3584905660375,-315.9245283018868,5
2024-06-13 20:14:16,-0.2333505303,0.8906415105,0.3310889602,-3.292027235,-2.846705914,-5.422866821,623.3168316831683,-718.2970297029703,170.82178217821783,-7922.534653465346,-1596.1683168316831,111.89108910891088,5
2024-06-13 20:14:16,-0.2333505303,0.8906415105,0.3310889602,-3.292027235,-2.846705914,-5.422866821,763.4117647058823,-570.7058823529412,122.58823529411764,-7931.058823529412,-1329.8235294117646,322.7647058823529,5
2024-06-13 20:14:16,0.3836233616,0.5925393105,-0.7000515461,-0.09576806426,-4.031835556,-10.79066753,787.4166666666666,-75.16666666666666,314.75,-7926.916666666667,-1365.9166666666667,230.16666666666669,5
2024-06-13 20:14:17,0.3836233616,0.5925393105,-0.7000515461,-0.09576806426,-4.031835556,-10.79066753,481.27272727272725,-171.27272727272728,-101.9090909090909,-8180.272727272727,-1177.7272727272727,218.0909090909091,5
2024-06-13 20:14:17,0.1820378453,-0.2809980214,-2.138028383,-1.383848548,-5.331887245,-8.595184326,405.9902912621359,-404.3009708737864,317.31067961165047,-8169.873786407767,-1283.1650485436894,516.4757281553398,5
2024-06-13 20:14:17,0.6511823535,-1.626123309,-2.383596182,0.739808321,-5.631162167,-9.710882187,439.2264150943397,-313.5471698113208,1083.9622641509434,-7899.037735849057,-1035.7169811320755,795.5283018867924,5
2024-06-13 20:14:17,0.6511823535,-1.626123309,-2.383596182,0.739808321,-5.631162167,-9.710882187,218.1764705882353,40.47058823529412,854.7058823529412,-8249.235294117647,-806.0882352941177,753.4411764705883,5
2024-06-13 20:14:17,0.5400048494,-2.086715698,-0.8930850029,0.7924807668,-5.906495571,-9.133879662,-434.25742574257424,154.94059405940595,454.2178217821783,-8220.950495049505,-477.6237623762376,1058.3069306930693,5
2024-06-13 20:14:17,0.9480628371,-2.020742178,-0.4728097022,-0.4046200812,-7.661445618,-6.883329868,-824.8585858585859,243.73737373737373,588.7979797979798,-8469.646464646465,-430.4343434343434,751.060606060606,5
2024-06-13 20:14:17,0.9480628371,-2.020742178,-0.4728097022,-0.4046200812,-7.661445618,-6.883329868,-768.6822429906542,-26.439252336448604,89.00934579439252,-8108.887850467289,-233.803738317757,1041.392523364486,5
2024-06-13 20:14:17,1.429424644,-1.914451718,0.06597344577,-2.695871115,-9.332598686,-5.087678432,-444.6538461538461,-541.9615384615385,-307.46153846153845,-8102.317307692308,-543.8942307692307,1086.3653846153843,5
2024-06-13 20:14:17,1.429424644,-1.914451718,0.06597344577,-2.695871115,-9.332598686,-5.087678432,-401.7570093457944,-780.5327102803739,-155.45794392523365,-8144.560747663551,-632.7196261682243,1077.9719626168223,5
2024-06-13 20:14:17,2.014633656,-0.9908234477,1.156978726,-3.263296843,-9.854534149,-1.067813993,-541.0,-254.45,854.9,-8226.45,-380.1,1358.2,5
2024-06-13 20:14:18,1.120326877,-0.3665191531,0.4703662395,-2.669534922,-7.02937603,1.63523972,-100.30275229357798,8.422018348623853,-99.1559633027523,-8070.981651376147,-115.88073394495412,1214.2568807339449,5
2024-06-13 20:14:18,0.2956587672,-0.3054326177,-0.4300491214,-3.035847664,-7.668628216,3.016694069,69.42201834862385,50.62385321100918,-314.7522935779816,-8069.146788990825,-103.95412844036696,1239.9449541284405,5
2024-06-13 20:14:18,0.2981022298,0.8918632865,1.426981211,-4.551377296,-8.178592682,3.11964488,-534.1958762886597,240.1752577319588,-238.0309278350516,-8277.855670103092,-246.23711340206185,1275.0824742268042,5
2024-06-13 20:14:18,0.2981022298,0.8918632865,1.426981211,-4.551377296,-8.178592682,3.11964488,-562.2673267326733,156.009900990099,-227.21782178217825,-8284.20792079208,-146.4851485148515,1306.752475247525,5
2024-06-13 20:14:18,0.6609562039,0.3787364662,-1.213178396,-3.734954596,-4.357447147,0.7852981687,-309.559633027523,201.5045871559633,-210.4311926605505,-8145.192660550459,-151.78899082568807,1232.091743119266,5
2024-06-13 20:14:18,0.6609562039,0.3787364662,-1.213178396,-3.734954596,-4.357447147,0.7852981687,-317.42105263157896,478.7263157894737,-197.1157894736842,-8116.431578947368,-203.5578947368421,1340.8315789473684,5
2024-06-13 20:14:18,-0.9834930301,1.326799273,-2.807536602,-3.184288263,-12.16254425,-0.1771709323,-724.0294117647059,895.6176470588235,-150.08823529411765,-7914.892156862745,-203.07843137254903,932.7058823529412,5
2024-06-13 20:14:18,-0.25167647,2.283414364,-1.06290555,-3.102885485,-13.32852077,-0.5315127969,-661.0485436893204,1630.747572815534,40.81553398058253,-8274.805825242718,-199.4368932038835,650.1553398058252,5
2024-06-13 20:14:18,-0.25167647,2.283414364,-1.06290555,-3.102885485,-13.32852077,-0.5315127969,-1280.7307692307693,1559.8557692307693,-463.75,-8285.471153846154,-104.625,289.96153846153845,5
2024-06-13 20:14:19,0.1637118906,1.590693116,1.336573124,-3.670311213,-10.58955383,-2.04464817,-2500.235294117647,1114.3529411764705,-1250.470588235294,-8222.882352941177,-326.52941176470586,-472.4117647058823,5
2024-06-13 20:14:19,-0.1221730486,0.590095818,0.9468411207,-3.411737442,-6.873753071,-2.161964178,-2100.4615384615386,685.3076923076924,-1394.3846153846157,-8216.76923076923,-1074.3846153846157,-830.9230769230769,5
2024-06-13 20:14:19,-0.1221730486,0.590095818,0.9468411207,-3.411737442,-6.873753071,-2.161964178,-1681.5588235294117,-145.09803921568627,-1015.4607843137256,-7912.705882352941,-1106.970588235294,-673.1470588235294,5
2024-06-13 20:14:19,-1.723861694,0.1404990107,-1.332907915,0.4955997467,-13.27584839,-8.054094315,-397.8723404255319,127.7872340425532,-671.7021276595744,-7995.95744680851,-1628.468085106383,-430.5744680851064,5
2024-06-13 20:14:19,-1.723861694,0.1404990107,-1.332907915,0.4955997467,-13.27584839,-8.054094315,-204.25531914893617,218.4255319148936,-446.5957446808511,-7898.085106382979,-1645.063829787234,-431.8510638297872,5
2024-06-13 20:14:19,-0.8319984674,-0.9334021211,-0.9724974632,-2.379836559,-9.3685112,-3.562572241,1645.25,234.99444444444444,384.6777777777778,-7920.322222222222,-1164.7055555555555,-810.2722222222222,5
2024-06-13 20:14:19,-0.2528982162,-1.782504797,0.1221730486,-1.285686255,-11.75553036,-6.071695328,1620.25,277.77222222222224,465.7888888888889,-8139.211111111111,-1231.9277777777777,-714.1611111111112,5
2024-06-13 20:14:19,-0.2528982162,-1.782504797,0.1221730486,-1.285686255,-11.75553036,-6.071695328,866.6877637130801,-218.67510548523205,227.9282700421941,-7824.291139240507,-937.8649789029536,-876.6962025316456,5
2024-06-13 20:14:19,0.6524040699,-1.662775159,-0.2968805134,-2.746149302,-6.490680695,-1.577778935,827.0253164556962,-282.8101265822785,116.1139240506329,-7836.949367088608,-945.0379746835443,-867.8354430379746,5
2024-06-13 20:14:19,0.1722639948,-1.083674908,0.3396410644,-3.363853455,-8.714894295,-3.517082214,787.3628691983122,-346.9451476793249,4.299578059071735,-7849.607594936709,-952.210970464135,-858.9746835443038,5
2024-06-13 20:14:20,0.1722639948,-1.083674908,0.3396410644,-3.363853455,-8.714894295,-3.517082214,1971.0,-322.0,473.4,-7835.0,-722.8,-322.6,5
2024-06-13 20:14:20,-0.01466076635,-0.7061602473,-0.01588249579,-3.296815634,-8.791508675,-1.666364431,1949.536231884058,-681.7101449275362,1019.8502415458936,-7836.710144927536,-590.4106280193237,99.6376811594203,5
2024-06-13 20:14:20,-0.01466076635,-0.7061602473,-0.01588249579,-3.296815634,-8.791508675,-1.666364431,2665.7196261682243,-239.30841121495328,1581.8971962616822,-8043.205607476635,95.2803738317757,125.03738317757008,5
2024-06-13 20:14:20,-0.05009094998,-0.4740314186,0.009773843922,-3.694253206,-9.078812599,-1.912967205,2460.11214953271,-265.4766355140187,1539.8411214953271,-8027.317757009346,0.8878504672897236,85.78504672897196,5
2024-06-13 20:14:20,0.1221730486,-0.2223549485,0.1282816976,-4.170699596,-8.875306129,-1.48679924,-98.7788461538462,233.73076923076923,-1276.375,-8257.221153846154,-305.81730769230774,-401.9134615384616,5
2024-06-13 20:14:20,0.1221730486,-0.2223549485,0.1282816976,-4.170699596,-8.875306129,-1.48679924,-1858.3370786516853,371.4044943820225,-1423.3932584269662,-7843.640449438202,-1334.7303370786517,-638.2022471910112,5
2024-06-13 20:14:20,0.1685988009,-0.1075122803,0.05131268129,-3.919308186,-8.274360657,-1.517923832,-1254.8076923076924,157.84615384615384,-558.75,-8233.865384615385,-1569.7115384615386,-395.7884615384616,5
2024-06-13 20:14:20,0.1001819,0.01466076635,0.3078760803,-2.619256735,-8.595184326,-1.738190413,-537.5714285714286,-3.642857142857146,-72.21428571428572,-7998.5,-1195.7142857142858,-302.42857142857144,5
2024-06-13 20:14:20,0.1001819,0.01466076635,0.3078760803,-2.619256735,-8.595184326,-1.738190413,-335.5,-540.6923076923077,46.65384615384616,-7921.846153846154,-1072.3461538461538,-275.7692307692308,5
2024-06-13 20:14:20,-0.0415388383,-0.0720821023,-0.6560692787,-2.418143749,-12.98614979,-4.489128113,-432.3,-255.4,162.2,-8200.9,-959.2,20.9,5
2024-06-13 20:14:21,-0.0415388383,-0.0720821023,-0.6560692787,-2.418143749,-12.98614979,-4.489128113,-805.4761904761905,-185.8095238095238,407.8571428571428,-8155.476190476191,-950.5238095238096,85.04761904761905,5
2024-06-13 20:14:21,-0.6866125464,0.8258898258,-0.3213151097,-8.051700592,-5.152322292,-0.5099649429,-214.5151515151515,-563.1515151515151,803.2727272727273,-8285.060606060606,-823.0,129.57575757575756,5
2024-06-13 20:14:21,0.009773843922,0.3946189582,-0.3054326177,-3.088520288,-14.94460678,-2.592920542,410.8712871287129,-635.1485148514852,618.7227722772277,-8042.297029702971,-608.1485148514852,241.3267326732673,5
2024-06-13 20:14:21,0.009773843922,0.3946189582,-0.3054326177,-3.088520288,-14.94460678,-2.592920542,-232.3207547169812,-277.0943396226415,-128.58490566037733,-8035.792452830188,-644.6603773584906,100.54716981132076,5
2024-06-13 20:14:21,-0.3640756905,0.3005456924,0.07819075137,-2.365471363,-10.26154804,-1.242590666,-1693.201923076923,97.17307692307692,-294.59615384615387,-8139.7307692307695,-521.2019230769231,-37.10576923076923,5
2024-06-13 20:14:21,-0.7134906054,0.5363397002,0.5925393105,-2.796427488,-10.39322948,-2.71263051,-2617.6796116504856,232.0097087378641,286.5145631067961,-8308.873786407767,-557.7572815533981,38.85436893203884,5
2024-06-13 20:14:21,-0.7134906054,0.5363397002,0.5925393105,-2.796427488,-10.39322948,-2.71263051,-2606.269230769231,-356.9519230769231,562.5961538461538,-8371.711538461539,-342.9038461538462,422.4519230769231,5
2024-06-13 20:14:21,0.9749409556,0.125838235,0.7159340382,-2.85867691,-10.06282997,-2.616862535,-281.4466019417476,-850.3495145631068,-215.6990291262136,-8148.378640776699,-445.990291262136,1083.0485436893205,5
2024-06-13 20:14:21,0.9749409556,0.125838235,0.7159340382,-2.85867691,-10.06282997,-2.616862535,943.495238095238,-522.9142857142857,-1322.5333333333333,-8154.0,275.5619047619048,1282.4761904761904,5
2024-06-13 20:14:21,1.883908391,-0.1881465018,0.3738495409,-4.187458992,-8.106766701,-1.347935557,-627.4432989690722,-448.5257731958763,-1538.1340206185566,-8082.979381443299,-854.9175257731958,1228.6082474226805,5
2024-06-13 20:14:22,0.5693264008,-0.7330383062,0.08796459436,-4.714183331,-8.101978302,0.5339069963,-1111.8557692307693,42.31730769230769,-1188.6153846153843,-8117.509615384615,-1368.951923076923,1110.4038461538462,5
2024-06-13 20:14:22,0.5693264008,-0.7330383062,0.08796459436,-4.714183331,-8.101978302,0.5339069963,-176.1153846153846,238.15384615384616,211.65384615384616,-8138.807692307692,-1199.7884615384614,955.2307692307692,5
2024-06-13 20:14:22,0.9590584636,-0.8161159754,0.2895501256,-3.928884983,-8.106766701,2.949656487,364.8775510204082,90.66326530612244,804.704081632653,-8483.897959183674,-780.969387755102,967.3979591836736,5
2024-06-13 20:14:22,0.7061602473,-0.5180137157,0.338419348,-3.806780815,-7.364564419,2.920926094,96.54901960784314,76.50980392156863,-108.8627450980392,-7897.294117647059,-782.8823529411765,1288.313725490196,5
2024-06-13 20:14:22,0.3017674387,0.03665191308,0.3323107064,-3.847482204,-7.790732384,5.130774021,99.01923076923076,-400.5480769230769,124.17307692307692,-8150.384615384615,-767.2596153846154,1474.4711538461538,5
2024-06-13 20:14:22,0.3017674387,0.03665191308,0.3323107064,-3.847482204,-7.790732384,5.130774021,646.1456310679612,173.747572815534,-1580.0582524271845,-7749.805825242718,-1196.4660194174758,1911.5825242718447,5
2024-06-13 20:14:22,0.2333505303,0.08307767659,0.05009094998,-4.728548527,-6.80192709,4.67827034,1164.0,2164.3009708737864,-1567.902912621359,-8436.970873786408,-642.5339805825242,1045.495145631068,5
2024-06-13 20:14:22,0.02809980139,-0.02809980139,0.1221730486,-4.886565685,-7.611167431,4.517858505,-303.81553398058253,2618.097087378641,18.66990291262136,-8212.184466019418,-1361.1747572815534,612.6213592233009,5
2024-06-13 20:14:22,0.02809980139,-0.02809980139,0.1221730486,-4.886565685,-7.611167431,4.517858505,-990.7647058823528,2070.2156862745096,74.8235294117647,-7960.64705882353,-1232.1960784313726,-52.27450980392157,5
2024-06-13 20:14:23,0.07819075137,-0.07819075137,0.2333505303,-4.795586109,-6.603208065,4.757278919,-1433.1132075471698,2174.801886792453,-188.00943396226413,-7663.094339622641,-1392.330188679245,-1090.867924528302,5
2024-06-13 20:14:23,0.008552113548,-0.06963863969,0.125838235,-4.75249052,-6.653486729,5.64552784,-2131.960396039604,1149.069306930693,-982.8019801980198,-7820.732673267326,-1550.871287128713,-1474.7029702970297,5
2024-06-13 20:14:23,0.008552113548,-0.06963863969,0.125838235,-4.75249052,-6.653486729,5.64552784,-2308.9026548672564,296.07964601769913,-765.8230088495575,-7949.256637168141,-1454.4601769911503,-1439.9734513274336,5
2024-06-13 20:14:23,0.08063421398,-0.2565633953,-0.1600466967,-4.692635536,-6.093243122,5.336675644,-811.0212765957447,-326.3404255319149,46.06382978723404,-7604.808510638298,-1461.4468085106382,-1638.0,5
2024-06-13 20:14:23,0.08063421398,-0.2565633953,-0.1600466967,-4.876988888,-6.809109688,5.940014362,-372.3137254901961,-534.9607843137255,-350.9803921568628,-7570.254901960784,-1641.6666666666667,-1439.9803921568628,5
2024-06-13 20:14:23,-0.0354301855,-0.006108652335,-0.4899139404,-4.876988888,-6.809109688,5.940014362,-514.2429906542056,-355.25233644859816,-1096.7102803738317,-7763.663551401869,-1722.9532710280373,-1434.7570093457944,5
2024-06-13 20:14:23,-0.06597344577,0.2138028294,-0.3188716471,-4.596867085,-7.76679039,5.647922039,-915.040404040404,-667.1515151515151,-446.07070707070704,-7915.727272727273,-2338.79797979798,-1157.5353535353536,5
2024-06-13 20:14:23,-0.06597344577,0.2138028294,-0.3188716471,-4.596867085,-7.76679039,5.647922039,-385.7663551401869,-455.4205607476636,331.25233644859816,-7889.682242990654,-2199.028037383177,-1108.9158878504672,5
2024-06-13 20:14:23,-0.00244346098,0.1661553532,0.1136209369,-4.331110954,-7.84340477,5.02064085,1424.1368421052632,-855.1263157894737,2646.463157894737,-7821.726315789474,-1267.6526315789474,-720.2315789473685,5
2024-06-13 20:14:23,0.08429940045,0.08307767659,0.4263839424,-4.218583584,-7.424419403,4.517858505,1990.9411764705883,-772.9411764705883,1546.3529411764705,-7954.705882352941,-480.4705882352941,-790.1176470588235,5
2024-06-13 20:14:24,0.08429940045,0.08307767659,0.4263839424,-4.218583584,-7.424419403,4.517858505,2050.762376237624,-1023.950495049505,473.029702970297,-8281.970297029702,-296.61386138613864,-496.34653465346537,5
2024-06-13 20:14:24,0.2052507252,-0.2003637999,0.483805269,-4.199429989,-6.591237068,5.09725523,1533.2264150943397,-523.0377358490566,-189.3207547169812,-8242.396226415094,-447.7358490566038,-350.2641509433962,5
2024-06-13 20:14:24,0.2052507252,-0.2003637999,0.483805269,-4.199429989,-6.591237068,5.09725523,973.93,-77.35,56.93,-7867.36,-807.44,-308.18,5
2024-06-13 20:14:24,-0.2919935882,0.3885102868,0.125838235,-4.841075897,-6.39491272,4.910507679,1007.6504854368932,399.747572815534,-337.4757281553398,-7859.883495145631,-850.1650485436893,-339.4271844660194,5
2024-06-13 20:14:24,0.2235766798,-0.06352998316,-0.1881465018,-5.68144083,-5.518634796,4.139574528,-296.1456310679612,433.8252427184466,76.02912621359224,-7914.747572815534,-451.3398058252427,-541.2038834951456,5
2024-06-13 20:14:24,0.2235766798,-0.06352998316,-0.1881465018,-5.68144083,-5.518634796,4.139574528,-610.7087378640776,616.3495145631068,-121.05825242718448,-8289.504854368932,-785.3203883495146,-561.5922330097087,5
2024-06-13 20:14:24,-0.02809980139,-0.07819075137,-0.1441642046,-6.047753334,-8.609549522,5.398924828,-1114.9809523809524,21.895238095238145,-429.6857142857143,-8120.390476190476,-1069.3238095238096,-494.8952380952381,5
2024-06-13 20:14:24,0.05131268129,0.3677408695,0.5070181489,-5.908889771,-6.416460514,5.226542473,-969.8514851485148,-906.3267326732672,271.08910891089107,-8334.089108910892,-1364.3564356435645,-235.00990099009903,5
2024-06-13 20:14:24,0.05131268129,0.3677408695,0.5070181489,-5.908889771,-6.416460514,5.226542473,66.96190476190475,-1572.2190476190476,422.8666666666667,-7977.685714285714,-929.047619047619,210.7142857142857,5
2024-06-13 20:14:24,0.2199114859,-0.008552113548,0.125838235,-5.506663799,-5.731719017,4.228160381,1045.0377358490566,-179.2452830188679,-340.9811320754717,-7931.867924528302,-247.0,589.0943396226415,5
2024-06-13 20:14:25,0.2199114859,-0.008552113548,0.125838235,-5.506663799,-5.731719017,4.228160381,364.77669902912623,55.038834951456295,-1095.3398058252428,-8256.68932038835,-728.9514563106795,239.93203883495147,5
2024-06-13 20:14:25,0.06597344577,-0.1673770845,0.228463605,-4.266467571,-5.832275391,4.929661274,178.18965517241378,-52.0,-785.6724137931035,-8197.086206896553,-1218.155172413793,331.7241379310345,5
2024-06-13 20:14:25,0.1307251602,-0.2028072625,-0.01832595654,-5.46596241,-4.979939461,5.279214859,-493.1590909090909,-913.5113636363636,-44.26136363636364,-8275.477272727272,-1343.409090909091,502.1363636363636,5
2024-06-13 20:14:25,0.1307251602,-0.2028072625,-0.01832595654,-5.46596241,-4.979939461,5.279214859,-1036.2692307692307,-595.6923076923076,873.4230769230769,-8211.346153846154,-1088.0384615384614,732.8846153846154,5
2024-06-13 20:14:25,0.003665191587,0.07086037099,-0.37751472,-6.406883717,-6.478709698,5.884947777,310.75,-93.5,2013.05,-7715.4,-1349.4,1290.8,5
2024-06-13 20:14:25,0.04520402849,0.2015855312,-0.1881465018,-5.633556366,-7.094019413,5.413290024,2181.861386138614,869.7623762376238,-988.6831683168316,-8342.70297029703,279.21782178217825,507.9009900990099,5
2024-06-13 20:14:25,0.04520402849,0.2015855312,-0.1881465018,-5.633556366,-7.094019413,5.413290024,-358.48325358851673,-909.0909090909092,-2358.306220095694,-8426.248803827752,-238.9138755980861,552.4497607655502,5
2024-06-13 20:14:25,-0.2333505303,0.09529497474,0.2858849466,-3.313575268,-5.592854977,3.943250179,-525.4688995215311,-1045.4545454545455,-2333.4258373205744,-8231.033492822966,-383.4114832535885,553.4066985645933,5
2024-06-13 20:14:25,-0.4948008358,0.1783726513,-0.4251621962,-6.4691329,-6.739677906,4.414907932,-1210.94,-887.33,-525.1600000000001,-8080.09,-1624.37,1039.72,5
2024-06-13 20:14:25,-0.4948008358,0.1783726513,-0.4251621962,-6.4691329,-6.739677906,4.414907932,-1251.6504854368932,47.55339805825244,677.1165048543689,-8347.087378640777,-107.09708737864077,799.7378640776699,5
2024-06-13 20:14:26,-0.1563815027,-0.1014036313,-0.3408628106,-6.057330132,-8.523358345,4.721365929,-2105.378640776699,-774.8155339805825,-1889.4271844660195,-8126.718446601942,-1567.009708737864,1086.893203883495,5
2024-06-13 20:14:26,-0.1563815027,-0.1014036313,-0.3408628106,-6.057330132,-8.523358345,4.721365929,3664.274509803922,50.66666666666666,-1730.470588235294,-7941.254901960784,-2159.607843137255,2072.294117647059,5
2024-06-13 20:14:26,-0.09529497474,0.2015855312,0.1478293836,-5.001487255,-7.55131197,3.373430252,2347.3644859813085,1355.252336448598,-238.0841121495327,-8188.719626168225,-767.6448598130842,1257.214953271028,5
2024-06-13 20:14:26,0.1075122803,0.1478293836,-0.1233947799,-5.013458252,-6.581660271,3.057395458,-175.45833333333331,2368.21875,1061.0104166666667,-8212.135416666666,-710.4270833333334,855.8645833333334,5
2024-06-13 20:14:26,0.1075122803,0.1478293836,-0.1233947799,-5.013458252,-6.581660271,3.057395458,-1610.923076923077,833.4615384615385,2581.4615384615386,-8768.307692307691,-1211.6153846153843,618.3076923076923,5
2024-06-13 20:14:26,0.1392772794,-0.1282816976,-0.1551597714,-5.27682066,-8.032546997,3.983951569,-1059.142857142857,-1111.095238095238,-1054.571428571429,-7640.380952380952,-722.8857142857142,702.5904761904762,5
2024-06-13 20:14:26,0.1392772794,-0.1282816976,-0.1551597714,-4.527435303,-7.395689011,4.304774761,-1174.2692307692307,-289.7307692307693,-1327.1153846153843,-7925.153846153846,-789.5769230769231,1053.3076923076924,5
2024-06-13 20:14:26,0.5180137157,-0.2700024247,-0.1148426682,-4.527435303,-7.395689011,4.304774761,-1576.56,1250.8200000000002,-561.5,-8245.72,-1268.3,822.54,5
2024-06-13 20:14:26,-0.3506366611,0.4105014503,0.1747074574,-6.641515732,-8.444349289,4.493916512,-892.25,845.4423076923076,276.2692307692308,-8203.221153846154,-1339.1442307692307,576.3461538461538,5
2024-06-13 20:14:26,-0.3506366611,0.4105014503,0.1747074574,-6.641515732,-8.444349289,4.493916512,-359.11009174311926,578.256880733945,392.0183486238532,-7966.972477064221,-957.97247706422,446.8440366972477,5
2024-06-13 20:14:27,0.2455678284,-0.08429940045,0.228463605,-4.359841347,-6.186617374,3.347094059,-4.814432989690715,1412.6701030927834,1036.5257731958764,-8142.59793814433,-571.5567010309278,270.1443298969072,5
2024-06-13 20:14:27,-0.3078760803,0.1576032341,0.2419026345,-5.125985622,-8.678980827,3.541024208,-667.5051546391753,1610.7422680412371,1994.5154639175253,-8248.752577319588,-768.4020618556701,14.463917525773198,5
2024-06-13 20:14:27,-0.3078760803,0.1576032341,0.2419026345,-5.125985622,-8.678980827,3.541024208,-166.75925925925927,-1021.8888888888888,-4060.1111111111113,-8488.74074074074,165.27777777777777,-650.4259259259259,5
2024-06-13 20:14:27,0.7440338731,-0.3127630055,0.7208209634,-5.499481201,-6.229712963,4.177882195,259.76,-550.94,-2985.54,-8047.12,-1361.4,17.75999999999999,5
2024-06-13 20:14:27,0.7440338731,-0.3127630055,0.7208209634,-5.499481201,-6.229712963,4.177882195,839.8888888888889,-136.16666666666669,-1816.8333333333333,-7575.944444444444,-2037.6666666666667,343.44444444444446,5
2024-06-13 20:14:27,0.3103195429,-0.2651155293,-0.05619960278,-4.881777287,-5.032611847,6.033388138,-257.2040816326531,704.8571428571429,1766.857142857143,-8136.428571428572,-1860.428571428572,-303.8775510204082,5
2024-06-13 20:14:27,-0.2467895597,0.3225368559,0.03420845419,-6.385335922,-5.765237808,4.960785866,48.531914893617,-302.51063829787233,1093.3191489361702,-7933.872340425532,-1125.7021276595744,-523.9787234042553,5
2024-06-13 20:14:27,-0.2467895597,0.3225368559,0.03420845419,-6.385335922,-5.765237808,4.960785866,1887.6826923076924,-177.65384615384616,418.1442307692308,-8258.096153846154,-1071.9326923076924,-165.06730769230768,5
2024-06-13 20:14:27,-0.09773843735,-0.1075122803,-0.4605923891,-5.544970989,-6.938396454,4.010287762,1302.2772277227723,184.5643564356436,-22.584158415841586,-7999.386138613861,-508.63366336633663,-517.6039603960396,5
2024-06-13 20:14:27,-0.2504547536,0.1392772794,0.1185078546,-5.489904404,-6.842628479,4.390965939,79.375,557.375,180.75,-8222.125,-596.0,-811.625,5
2024-06-13 20:14:28,-0.2504547536,0.1392772794,0.1185078546,-5.489904404,-6.842628479,4.390965939,335.2352941176471,-427.3921568627451,343.1764705882353,-7910.490196078431,-834.0784313725491,-246.52941176470588,5
2024-06-13 20:14:28,0.008552113548,-0.05742133409,-0.08552113175,-5.858611584,-6.239289761,4.235342979,213.5,10.5,-113.5,-7835.0,-822.5,-177.75,5
2024-06-13 20:14:28,-0.09529497474,0.03176499158,-0.1649336219,-6.009446144,-7.371747017,4.453215122,38.567567567567565,155.67567567567568,-133.94594594594594,-7844.783783783784,-656.4324324324324,-564.972972972973,5
2024-06-13 20:14:28,-0.09529497474,0.03176499158,-0.1649336219,-6.009446144,-7.371747017,4.453215122,-86.05705705705705,276.09609609609606,-78.09009009009009,-7865.804804804805,-681.057057057057,-525.933933933934,5
2024-06-13 20:14:28,0.02809980139,-0.02687807009,-0.08185594529,-5.75805521,-7.082048416,4.244919777,-210.6816816816817,396.5165165165165,-22.23423423423424,-7886.825825825826,-705.6816816816817,-486.8948948948949,5
2024-06-13 20:14:28,0.02809980139,-0.02687807009,-0.08185594529,-5.75805521,-7.082048416,4.244919777,-335.3063063063063,516.936936936937,33.621621621621614,-7907.846846846847,-730.3063063063063,-447.8558558558559,5
2024-06-13 20:14:28,0.03298672289,0.1197295859,0.2651155293,-6.014234543,-7.553706169,4.252102375,-206.6138613861386,-459.63366336633663,-351.36633663366337,-7995.683168316832,-2751.90099009901,155.76237623762376,5
2024-06-13 20:14:28,0.7012733221,-0.3274237812,0.03298672289,-4.218583584,-6.167463779,5.564124584,-146.98019801980195,480.4653465346535,91.56435643564362,-7561.792079207921,-2351.138613861386,146.5247524752475,5
2024-06-13 20:14:28,-0.1343903542,1.020144939,0.9822713137,-6.641515732,-3.167528868,2.035071373,-211.5,1341.3846153846157,1573.5,-7879.5,-2080.269230769231,87.34615384615384,5
2024-06-13 20:14:29,-0.1343903542,1.020144939,0.9822713137,-8.497021675,-6.732495308,3.026270866,-811.5247524752475,389.36633663366337,944.2871287128712,-7876.465346534654,-1746.4554455445543,-367.1188118811881,5
2024-06-13 20:14:29,0.07696902007,-0.6499606371,-1.246165156,-8.497021675,-6.732495308,3.026270866,-579.7184466019418,313.53398058252424,785.990291262136,-7899.310679611651,-1342.4660194174758,-599.1262135922331,5
2024-06-13 20:14:29,0.5705481172,-0.471587956,-0.3152064681,-6.675034523,-7.156269073,4.043806553,-1113.7142857142858,319.85714285714283,145.42857142857144,-7823.285714285715,-982.2857142857144,-514.2857142857143,5
2024-06-13 20:14:29,0.5705481172,-0.471587956,-0.3152064681,-6.675034523,-7.156269073,4.043806553,-2478.1632653061224,617.795918367347,98.27551020408164,-8032.5,-808.7142857142857,-596.295918367347,5
2024-06-13 20:14:29,0.05986479297,-0.125838235,0.1368338168,-3.64158082,-7.113173485,3.696647406,-4485.961538461538,916.8076923076924,629.2884615384615,-7933.846153846154,-570.8653846153846,-917.1153846153846,5
2024-06-13 20:14:29,-0.2089159191,-0.008552113548,-0.1233947799,-5.475539207,-6.06451273,4.999093056,-7118.232323232323,-197.07070707070704,1247.6262626262626,-8340.474747474747,203.88888888888889,-1305.888888888889,5
2024-06-13 20:14:29,-0.2089159191,-0.008552113548,-0.1233947799,-5.475539207,-6.06451273,4.999093056,-8581.173076923076,-1644.3076923076924,2274.076923076923,-8145.384615384615,-565.3653846153846,-639.4423076923077,5
2024-06-13 20:14:29,0.08429940045,0.3469714522,0.1392772794,-4.841075897,-8.599972725,3.34469986,-2613.8846153846152,-1837.0,-1918.8846153846152,-8336.307692307691,270.0,-1.9230769230769056,5
2024-06-13 20:14:29,-0.09285151958,0.866206944,0.6194173694,-2.705447912,-5.226542473,4.096478939,-773.2307692307693,-1666.2115384615386,-2094.1346153846152,-8405.096153846154,231.15384615384616,489.86538461538464,5
2024-06-13 20:14:29,-0.09285151958,0.866206944,0.6194173694,-2.705447912,-5.226542473,4.096478939,1325.7938144329896,-1216.6082474226805,164.77319587628867,-8090.969072164949,571.3298969072165,930.9484536082474,5
2024-06-13 20:14:30,0.6352998614,-0.618195653,-1.611462474,-4.560954094,-7.831433773,3.471592426,654.1782178217821,-631.3168316831683,-110.6039603960396,-8251.544554455446,151.56435643564356,1087.1881188118812,5
2024-06-13 20:14:30,0.6352998614,-0.618195653,-1.611462474,-4.560954094,-7.831433773,3.471592426,-181.6296296296296,-1159.8518518518515,-1130.962962962963,-8010.888888888889,-43.92592592592592,1609.5185185185185,5
2024-06-13 20:14:30,-1.007927656,1.17530477,-0.3530801237,-3.897760391,-13.86721611,5.336675644,-282.2621359223301,-350.90291262135923,-240.0,-8115.902912621359,-472.24271844660194,1622.126213592233,5
2024-06-13 20:14:30,0.1673770845,1.729970336,-0.00244346098,-5.202600479,-4.412513733,1.620874524,1056.2376237623762,-243.78217821782167,-37.01980198019802,-8094.475247524752,-348.8712871287129,1585.1089108910892,5
2024-06-13 20:14:30,0.1673770845,1.729970336,-0.00244346098,-5.202600479,-4.412513733,1.620874524,1462.3921568627452,-255.4705882352941,-366.7647058823529,-8090.411764705882,-267.5098039215686,1853.0196078431368,5
2024-06-13 20:14:30,-0.5473352671,0.5461135507,-1.40743351,2.63601613,-12.928689,-3.608062029,4526.633333333333,86.71666666666667,-706.0166666666667,-8022.5,-229.16666666666669,2004.7583333333328,5
2024-06-13 20:14:30,-0.9932668805,0.618195653,-1.054353356,-3.064578056,-10.94389629,-0.5075707436,5323.3,775.05,-224.35,-8272.5,587.5,1838.925,5
2024-06-13 20:14:30,-0.9932668805,0.618195653,-1.054353356,-3.064578056,-10.94389629,-0.5075707436,1259.173076923077,-798.5673076923077,-1952.4615384615383,-8403.903846153846,-829.3653846153846,1827.692307692308,5
2024-06-13 20:14:30,0.3543018401,0.02199114859,-0.2981022298,-1.620874524,-9.47146225,-1.572990537,1276.4807692307693,-655.2980769230769,-1898.6153846153843,-8294.288461538461,-865.9038461538462,1896.923076923077,5
2024-06-13 20:14:30,0.3543018401,0.02199114859,-0.2981022298,-1.620874524,-9.47146225,-1.572990537,1501.1553398058252,477.495145631068,-250.0194174757281,-7975.26213592233,-1004.4757281553398,1528.873786407767,5
2024-06-13 20:14:31,0.1368338168,-0.5045747161,-0.6585127115,-1.582567334,-8.63109684,-3.031059265,678.5728155339806,751.4174757281553,-453.8155339805825,-8283.650485436894,-1127.9029126213593,1014.1747572815534,5
2024-06-13 20:14:31,0.02443460934,-1.871691108,-0.5338962078,-0.7900865674,-11.3078146,-4.326322556,493.8333333333333,1069.6666666666667,-253.3333333333333,-7926.666666666667,-1316.8333333333333,1110.1666666666667,5
2024-06-13 20:14:31,0.02443460934,-1.871691108,-0.5338962078,-0.7900865674,-11.3078146,-4.326322556,970.757281553398,825.5145631067961,-231.6893203883495,-8104.932038834951,-1072.9805825242718,669.8349514563107,5
2024-06-13 20:14:31,0.8539896011,-1.764178872,-0.006108652335,-2.274491549,-12.03325748,-2.202665567,726.1764705882352,279.37254901960785,-486.62745098039215,-7971.509803921568,-1225.2549019607843,722.1176470588235,5
2024-06-13 20:14:31,0.9798278809,-0.9065240026,0.9724974632,2.118868589,-9.816226959,0.7565677166,692.9056603773585,680.6037735849056,-264.49056603773585,-7920.452830188679,-1328.5849056603774,611.6603773584906,5
2024-06-13 20:14:31,0.9798278809,-0.9065240026,0.9724974632,2.118868589,-9.816226959,0.7565677166,243.1941747572816,784.0485436893204,47.601941747572816,-8288.83495145631,-1226.776699029126,613.3203883495146,5
2024-06-13 20:14:31,-0.2015855312,0.1331686229,0.3714060783,1.678335428,-8.585607529,0.4884171486,689.9514563106796,685.6504854368932,-226.28155339805824,-8105.73786407767,-1209.3980582524273,602.8349514563107,5
2024-06-13 20:14:31,-0.2015855312,0.1331686229,0.3714060783,1.678335428,-8.585607529,0.4884171486,1029.8785046728972,1038.4485981308412,-466.47663551401865,-7926.177570093458,-1217.252336448598,381.5794392523365,5
2024-06-13 20:14:31,-0.01466076635,-0.1038470939,0.0171042271,-0.4046200812,-10.22084713,0.3663128614,420.4,2330.0,-774.96,-7826.08,-1472.96,-286.24,5
2024-06-13 20:14:31,-0.2370157093,0.5461135507,0.3139847219,0.1340752989,-10.43153667,1.233013868,332.0098039215686,1645.9019607843138,-530.1176470588235,-7888.656862745098,-2071.5882352941176,-674.0,5
2024-06-13 20:14:32,-0.2370157093,0.5461135507,0.3139847219,0.1340752989,-10.43153667,1.233013868,542.1415094339623,789.7735849056603,-150.80188679245282,-8094.122641509434,-2059.7169811320755,-928.8113207547168,5
2024-06-13 20:14:32,0.5180137157,0.3921754956,-0.7171558142,0.383072257,-8.664615631,0.3303998411,983.861386138614,322.64356435643566,54.58415841584159,-7949.435643564357,-1688.782178217822,-721.4950495049505,5
2024-06-13 20:14:32,-0.3958406746,0.7379252315,-1.180191636,-2.015917778,-12.08114147,-1.321599364,568.4903846153846,258.75961538461536,44.76923076923077,-7608.201923076923,-1752.2596153846157,-799.0480769230769,5
2024-06-13 20:14:32,-0.3958406746,0.7379252315,-1.180191636,-2.015917778,-12.08114147,-1.321599364,-274.1698113207547,242.03773584905665,-364.2075471698113,-7923.056603773585,-1912.0754716981128,-1030.7358490566037,5
2024-06-13 20:14:32,0.779464066,-0.5045747161,0.5106833577,-1.74776721,-12.13620853,1.11569798,-12.2,-316.336,332.832,-7853.32,-2131.512,-806.4,5
2024-06-13 20:14:32,0.779464066,-0.5045747161,0.5106833577,-1.74776721,-12.13620853,1.11569798,147.8,-151.536,515.232,-7977.32,-2089.912,-486.4,5
2024-06-13 20:14:32,0.5375614166,-0.7916813493,1.045801282,-0.825999558,-10.01015759,0.8188169599,480.4757281553398,297.07766990291265,1079.893203883495,-7997.47572815534,-1899.3980582524275,-492.5631067961165,5
2024-06-13 20:14:32,0.7257078886,-0.7941248417,0.2272418737,1.465251446,-7.240066051,1.800439715,18.8,9.333333333333334,605.0,-7854.066666666667,-1514.2666666666669,-796.8666666666667,5
2024-06-13 20:14:32,-0.7012733221,-0.008552113548,0.3494149148,1.570596337,-11.56638813,3.100491285,1152.19801980198,-417.5544554455445,1749.5544554455446,-8118.39603960396,-1727.930693069307,-816.3960396039604,5
2024-06-13 20:14:33,-0.2590068579,0.9627236128,0.2064724565,0.8092401624,-8.003816605,1.812410712,2467.9333333333334,-1087.6,3320.133333333333,-8197.466666666667,-1002.7333333333332,-616.3333333333334,5
2024-06-13 20:14:33,-0.2590068579,0.9627236128,0.2064724565,0.8092401624,-8.003816605,1.812410712,1657.019801980198,-502.2772277227723,2229.920792079208,-8285.39603960396,236.14851485148515,-288.7920792079208,5
2024-06-13 20:14:33,0.1844813079,0.9040805697,-2.234544992,2.82036972,-9.986215591,-0.181959331,-37.14285714285717,-1032.304761904762,613.2,-7954.885714285714,423.3428571428572,200.3333333333333,5
2024-06-13 20:14:33,0.1844813079,0.9040805697,-2.234544992,2.82036972,-9.986215591,-0.181959331,-784.8265306122449,-292.8775510204082,179.6326530612245,-7907.836734693878,213.8571428571429,621.5510204081633,5
2024-06-13 20:14:33,0.7489207983,2.647490025,-1.633453608,2.284068346,-14.53040981,1.541865945,-1081.0,-59.76923076923077,572.0384615384615,-8238.807692307691,232.94230769230768,613.9230769230769,5
2024-06-13 20:14:33,-0.6609562039,3.265685558,0.01343903504,-0.8451532125,-10.12029076,2.085349798,-793.3861386138614,-90.0,488.5940594059406,-8131.148514851485,544.0693069306931,581.7821782178218,5
2024-06-13 20:14:33,-0.6609562039,3.265685558,0.01343903504,-0.8451532125,-10.12029076,2.085349798,-608.9433962264151,-166.9056603773585,282.4528301886793,-8203.433962264151,734.7358490566038,475.5849056603773,5
2024-06-13 20:14:33,-4.373795033,1.393994451,1.595579982,-2.183511972,-6.998251438,-2.444479942,-617.7448979591836,-565.8367346938776,64.01020408163265,-8237.102040816326,901.1530612244898,662.0204081632653,5
2024-06-13 20:14:33,0.02565634064,1.241278172,-1.263269305,1.556231141,-9.10036087,-7.972691536,-1652.754716981132,-552.0377358490566,-557.5283018867924,-8218.207547169812,1206.566037735849,849.3018867924528,5
2024-06-13 20:14:33,0.02565634064,1.241278172,-1.263269305,1.556231141,-9.10036087,-7.972691536,-2412.7272727272725,-403.969696969697,-1315.5454545454545,-8061.909090909091,759.3030303030303,847.3636363636364,5
2024-06-13 20:14:34,0.248011291,0.3579670191,-0.1685988009,0.6631938815,-7.790732384,-5.288791656,-2543.839285714286,13.44642857142857,-1542.1875,-8285.38392857143,-66.11607142857143,1077.125,5
2024-06-13 20:14:34,0.248011291,0.3579670191,-0.1685988009,0.6631938815,-7.790732384,-5.288791656,-1680.695652173913,-165.58695652173913,-1004.0869565217392,-8137.434782608696,-285.6521739130435,1108.4021739130435,5
2024-06-13 20:14:34,-0.09896016866,0.4667010605,-0.37751472,1.254561663,-8.681375504,-5.774814606,-1386.271186440678,-356.08474576271186,-889.1355932203389,-8114.983050847458,-284.3220338983051,1070.7118644067796,5
2024-06-13 20:14:34,0.4948008358,0.3445279896,0.04764748737,2.111685991,-9.009381294,-5.444414616,-1151.516129032258,-526.6989247311828,-460.8709677419355,-8075.666666666667,-295.3763440860215,1066.1505376344087,5
2024-06-13 20:14:34,0.4948008358,0.3445279896,0.04764748737,2.111685991,-9.009381294,-5.444414616,-666.3927125506073,-274.0404858299595,69.93117408906883,-8294.174089068825,-230.17813765182183,1184.5344129554655,5
2024-06-13 20:14:34,2.007303238,0.4935791194,0.9615018964,2.334346771,-12.06438255,-3.478775024,-557.080971659919,-181.32793522267207,137.5425101214575,-8205.51012145749,-202.24291497975707,1200.728744939271,5
2024-06-13 20:14:34,-0.07696902007,0.7464773059,1.778839588,-0.6392518282,-9.327810287,-1.122880578,-447.7692307692308,-88.61538461538461,205.15384615384616,-8116.846153846154,-174.30769230769232,1216.923076923077,5
2024-06-13 20:14:34,-0.07696902007,0.7464773059,1.778839588,-0.6392518282,-9.327810287,-1.122880578,-587.1958762886597,355.22680412371136,-353.29896907216494,-7926.1752577319585,-338.62886597938143,1525.3092783505156,5
2024-06-13 20:14:34,-1.263269305,-0.008552113548,1.687209845,-1.984793186,-10.0460701,-2.212242365,-225.65686274509804,386.0098039215686,-311.2843137254902,-8443.333333333334,-194.14705882352945,1228.529411764706,5
2024-06-13 20:14:35,-2.53631258,0.1111774743,-0.1087340117,-2.908955097,-4.163516521,-2.698265314,-424.1272727272727,232.2454545454545,148.27272727272728,-8273.60909090909,331.2454545454545,1366.4272727272728,5
2024-06-13 20:14:35,0.1478293836,1.181413412,-1.315803766,-1.254561663,-7.113173485,-10.37647057,-736.8545454545455,356.7909090909091,-224.45454545454544,-8134.518181818182,-44.20909090909089,1209.1545454545455,5
2024-06-13 20:14:35,0.1478293836,1.181413412,-1.315803766,-1.254561663,-7.113173485,-10.37647057,-496.1980198019802,461.34653465346537,-515.6633663366337,-7935.287128712871,-420.53465346534654,1191.752475247525,5
2024-06-13 20:14:35,-0.1050688252,0.5522221923,-0.8772025108,0.5674257874,-9.320627213,-7.931990147,-372.8019801980198,725.6435643564356,-185.68316831683168,-8305.49504950495,-455.5544554455445,1331.920792079208,5
2024-06-13 20:14:35,0.03298672289,0.5571091175,-0.1185078546,-0.6560112834,-7.795520782,-7.388506413,85.59574468085106,698.5106382978723,-316.56382978723406,-8251.882978723404,-611.1170212765958,1000.5851063829788,5
2024-06-13 20:14:35,0.03298672289,0.5571091175,-0.1185078546,-0.6560112834,-7.795520782,-7.388506413,-42.74285714285713,1486.9142857142856,-401.1428571428571,-8155.571428571428,-212.8,778.8571428571429,5
2024-06-13 20:14:35,0.3836233616,-0.4068362415,0.2785545588,1.491587639,-7.072471619,-7.493851185,-729.6470588235294,2004.235294117647,-644.4705882352941,-8289.529411764706,-547.9411764705883,209.2941176470588,5
2024-06-13 20:14:35,0.3836233616,-0.4068362415,0.2785545588,1.491587639,-7.072471619,-7.493851185,-1175.5523809523809,1313.6095238095238,-649.0666666666666,-8049.161904761905,-1023.895238095238,-276.42857142857144,5
2024-06-13 20:14:35,0.3274237812,-0.334754169,0.141720742,1.59932673,-6.672640324,-6.028599739,-693.8846153846154,1310.0,-844.7307692307693,-8239.76923076923,-1367.7692307692307,-497.96153846153845,5
2024-06-13 20:14:35,1.835039139,-0.334754169,0.8881980777,-0.7445967197,-10.94389629,-4.42209053,-237.6122448979592,535.5102040816327,-103.73469387755102,-8257.836734693878,-1050.0,-704.1020408163265,5
2024-06-13 20:14:36,1.835039139,-0.334754169,0.8881980777,-0.7445967197,-10.94389629,-4.42209053,598.0384615384615,-455.96153846153845,-127.48076923076924,-8141.634615384615,-1081.798076923077,-882.75,5
2024-06-13 20:14:36,3.753156185,0.09407325089,1.620014668,-0.9528923035,-12.5456171,-0.9145850539,1100.5116279069769,32.21860465116279,-962.6883720930232,-7806.781395348838,-1888.1441860465115,-1102.1488372093024,5
2024-06-13 20:14:36,-3.532022953,0.7293730974,1.464854836,-4.896142483,-8.434772491,1.78368032,1084.2325581395348,226.1720930232558,-1198.967441860465,-7812.827906976744,-1886.2837209302324,-993.7767441860464,5
2024-06-13 20:14:36,-3.532022953,0.7293730974,1.464854836,-4.896142483,-8.434772491,1.78368032,1068.5777777777778,-317.1111111111111,513.6888888888889,-8143.1,-1499.3555555555556,-712.4333333333333,5
2024-06-13 20:14:36,1.116661668,0.02687807009,1.615127683,0.08858546615,-10.58716011,-6.488286495,911.8316831683168,-692.950495049505,767.5643564356435,-8058.138613861386,-864.7128712871287,-433.5940594059406,5
2024-06-13 20:14:36,1.116661668,0.02687807009,1.615127683,0.08858546615,-10.58716011,-6.488286495,467.3457943925234,-57.18691588785047,-103.42990654205607,-7877.747663551402,-651.373831775701,-247.45794392523365,5
2024-06-13 20:14:36,2.478891134,-2.747671843,-0.3115412891,-5.149928093,2.171540976,0.07422025502,265.6634146341464,115.90731707317072,-493.0731707317073,-8176.790243902439,-740.9853658536585,-537.1219512195122,5
2024-06-13 20:14:36,-1.288925648,-1.331686258,-1.518610954,-0.5937620401,-12.82095051,7.012616634,212.6238532110092,29.79816513761468,-185.0091743119266,-7908.587155963302,-1098.073394495413,-563.6146788990826,5
2024-06-13 20:14:36,-1.288925648,-1.331686258,-1.518610954,-0.5937620401,-12.82095051,7.012616634,-189.06382978723408,524.8723404255319,71.68085106382979,-8201.744680851063,-1168.978723404255,-457.8936170212766,5
2024-06-13 20:14:36,-0.1942551434,-1.158200502,-0.2504547536,-3.045424461,-9.469067574,4.039018154,-541.5544554455446,8.900990099009901,135.5247524752475,-8043.435643564357,-1359.970297029703,-387.5841584158416,5
2024-06-13 20:14:37,-0.1429424733,-1.571145415,-0.1844813079,-1.956062794,-9.148244858,1.738190413,-966.0873786407768,-29.436893203883493,-198.2718446601941,-7852.42718446602,-1252.3398058252428,-601.0291262135922,5
2024-06-13 20:14:37,-0.5717698932,-1.497841597,-0.06475171447,-0.8643068075,-10.85531044,1.30005157,-1330.15,292.35,219.95,-8050.5,-1610.25,-415.45,5
2024-06-13 20:14:37,-0.5717698932,-1.497841597,-0.06475171447,-0.8643068075,-10.85531044,1.30005157,-910.0388349514564,554.9805825242719,1441.980582524272,-7903.78640776699,-1576.990291262136,-588.9029126213592,5
2024-06-13 20:14:37,0.1233947799,-0.06230825558,1.799609065,-2.042253971,-13.20641613,3.529053211,98.94117647058825,575.3529411764706,1496.4117647058824,-8155.941176470588,-330.7647058823529,-950.3235294117648,5
2024-06-13 20:14:37,0.3396410644,0.1136209369,2.702467918,-2.837129116,-8.066065788,0.3303998411,-3.145631067961176,74.52427184466018,419.0970873786408,-8163.970873786407,-35.18446601941747,-1085.3009708737864,5
2024-06-13 20:14:37,0.3396410644,0.1136209369,2.702467918,-2.837129116,-8.066065788,0.3303998411,-1.8269230769230944,-705.0961538461538,-1679.0865384615386,-8118.663461538462,-550.4134615384615,-855.6730769230769,5
2024-06-13 20:14:37,-0.1808161139,-0.9749409556,-0.09040805697,-4.848258495,3.08133769,-2.949656487,-156.59405940594058,-479.01980198019805,-220.10891089108912,-7890.475247524752,-607.1584158415842,-836.6732673267327,5
2024-06-13 20:14:37,-0.3396410644,-1.418429136,-1.685988069,0.5889736414,-17.41063499,5.556941986,-34.81132075471699,-804.5566037735849,-0.6981132075471663,-8238.075471698114,-508.2641509433962,-654.9056603773585,5
2024-06-13 20:14:37,-0.3396410644,-1.418429136,-1.685988069,0.5889736414,-17.41063499,5.556941986,61.91596638655462,-439.9579831932773,-138.1764705882353,-8054.747899159664,-430.6218487394958,-279.38655462184875,5
2024-06-13 20:14:38,-1.069014192,-1.369559884,-0.3176499307,-0.9385270476,-11.94467258,4.771644115,80.63333333333333,-494.23333333333335,-81.5,-8282.766666666666,-808.7666666666667,-109.3,5
2024-06-13 20:14:38,-1.069014192,-1.369559884,-0.3176499307,-0.9385270476,-11.94467258,4.771644115,-16.932038834951456,-808.6213592233009,158.92233009708738,-8250.941747572815,-444.3689320388349,158.9902912621359,5
2024-06-13 20:14:38,0.7476990819,-1.457524419,-0.1404990107,-0.4501099288,-8.987833023,2.360682964,-165.1089108910891,-571.6831683168317,553.2970297029703,-8087.495049504951,-276.7326732673268,187.4851485148515,5
2024-06-13 20:14:38,0.8173376918,-0.8527678847,0.5632177591,-0.4812345505,-10.45787334,3.883395195,-2018.192307692308,487.8076923076923,1290.75,-8209.884615384615,156.5,357.3269230769231,5
2024-06-13 20:14:38,0.8173376918,-0.8527678847,0.5632177591,-0.4812345505,-10.45787334,3.883395195,-5481.461538461538,739.8076923076923,1214.5,-8294.932692307691,505.6442307692308,-14.913461538461538,5
2024-06-13 20:14:38,0.6010913849,-0.3457497358,0.3872885704,0.1915361285,-7.4363904,3.282450438,-5657.097087378641,456.41747572815535,-692.9223300970873,-8213.805825242718,241.16504854368927,30.67961165048544,5
2024-06-13 20:14:38,-0.2919935882,-0.02809980139,0.1576032341,-0.2968810201,-9.390059471,4.8314991,-4111.846153846154,213.03846153846155,-1235.7692307692307,-8199.85576923077,-86.375,-93.125,5
2024-06-13 20:14:38,-0.2919935882,-0.02809980139,0.1576032341,-0.2968810201,-9.390059471,4.8314991,-2432.3762376237623,224.1980198019802,-1044.3465346534654,-8256.0,-456.8316831683168,185.9108910891089,5
2024-06-13 20:14:38,-0.08552113175,0.04886921868,0.08796459436,-0.4261679053,-8.415618896,3.888183594,1043.9449541284405,-172.07339449541286,-1287.9357798165138,-8163.834862385321,-954.8440366972476,125.89908256880734,5
2024-06-13 20:14:38,-0.08552113175,0.04886921868,0.08796459436,-0.4261679053,-8.415618896,3.888183594,4874.2,-728.64,-607.32,-8082.64,-552.52,297.48,5
2024-06-13 20:14:39,-0.06230825558,-0.08674286306,-0.01221730467,-1.244984865,-9.117119789,4.192247391,2997.4411764705883,-185.94117647058823,-840.6470588235294,-8089.705882352941,-783.4803921568628,210.921568627451,5
2024-06-13 20:14:39,-0.0232128799,0.2211332172,0.1722639948,0.7230489254,-10.14423275,5.061342239,1427.7184466019417,-475.9611650485437,49.53398058252427,-8164.73786407767,-848.5728155339806,892.2233009708738,5
2024-06-13 20:14:39,-0.0232128799,0.2211332172,0.1722639948,0.7230489254,-10.14423275,5.061342239,1563.6407766990292,-774.0194174757282,126.23300970873788,-8301.631067961165,-827.2135922330098,1053.388349514563,5
2024-06-13 20:14:39,0.779464066,-0.4190535545,-0.07086037099,-1.462857246,-7.946355343,2.916137695,971.3076923076924,-168.61538461538464,124.0576923076923,-8217.846153846154,-444.1923076923077,919.0769230769232,5
2024-06-13 20:14:39,0.1514945775,0.3604104817,0.1954768747,-4.38378334,-10.70687008,8.236053467,792.4563106796116,212.71844660194176,233.6893203883495,-8251.805825242718,-471.62135922330094,922.009708737864,5
2024-06-13 20:14:39,0.1514945775,0.3604104817,0.1954768747,-4.38378334,-10.70687008,8.236053467,-59.48571428571428,484.8285714285714,77.88571428571427,-7903.4,-466.1714285714286,845.1142857142858,5
2024-06-13 20:14:39,0.2846632004,0.7990117669,1.208291411,-3.179499865,-9.414001465,2.918531895,400.1538461538461,522.5288461538462,-436.63461538461536,-8160.298076923077,-991.6730769230768,812.0865384615385,5
2024-06-13 20:14:39,0.2846632004,0.7990117669,1.208291411,-3.179499865,-9.414001465,2.918531895,472.4554455445544,526.6039603960396,-456.7029702970297,-8138.475247524752,-1057.4356435643565,571.7821782178218,5
2024-06-13 20:14:39,0.574213326,-0.09407325089,0.4911356568,-1.501164436,-5.908889771,2.983175278,132.72881355932202,98.38135593220338,-525.4237288135594,-8232.110169491525,-767.228813559322,348.31355932203394,5
2024-06-13 20:14:39,-0.4300491214,0.1576032341,0.02809980139,-4.323928356,-8.274360657,4.800374508,-1005.7777777777778,271.82716049382714,-248.6296296296296,-8232.098765432098,-691.2592592592592,209.8641975308642,5
2024-06-13 20:14:40,-0.4300491214,0.1576032341,0.02809980139,-4.323928356,-8.274360657,4.800374508,-1093.0588235294117,367.52941176470586,-1077.2941176470588,-8014.176470588235,-1690.4117647058824,140.94117647058823,5
2024-06-13 20:14:40,0.441044718,-0.1050688252,0.2199114859,2.961627483,-6.612784863,3.16034627,-764.7450980392157,33.6078431372549,-436.5882352941177,-8346.333333333334,-1652.8823529411766,229.41176470588235,5
2024-06-13 20:14:40,0.6145304441,0.7171558142,-2.17590189,1.11569798,-8.384494781,5.978321552,-518.4859813084113,29.570093457943926,465.0,-8022.4953271028035,-1512.1121495327102,234.95327102803736,5
2024-06-13 20:14:40,0.6145304441,0.7171558142,-2.17590189,1.11569798,-8.384494781,5.978321552,247.46534653465343,403.8316831683168,931.2871287128712,-8204.29702970297,-1056.0891089108911,-329.48514851485146,5
2024-06-13 20:14:40,-0.4056145251,5.529551983,-1.183856845,-3.440467834,-17.21191597,0.8762778044,817.0194174757281,53.932038834951456,182.3980582524272,-8259.067961165048,-987.1747572815534,-97.3495145631068,5
2024-06-13 20:14:40,-0.4056145251,5.529551983,-1.183856845,-3.440467834,-17.21191597,0.8762778044,1104.669811320755,-201.9433962264151,-633.7169811320755,-7977.754716981132,-1023.9528301886792,-26.80188679245283,5
2024-06-13 20:14:40,-3.839898825,3.418401957,0.3115412891,-3.136404276,-4.786009312,-6.119579315,1000.7647058823528,561.6470588235294,-803.4117647058823,-7868.64705882353,-811.2941176470588,54.294117647058826,5
2024-06-13 20:14:40,0.3567453027,0.3017674387,0.1539380401,-2.846705914,-7.292738438,-1.829170108,546.5192307692307,827.1346153846154,-655.8846153846154,-8027.3557692307695,-1398.576923076923,-144.5769230769231,5
2024-06-13 20:14:40,0.3567453027,0.3017674387,0.1539380401,-2.846705914,-7.292738438,-1.829170108,1914.5714285714284,113.02857142857144,2174.742857142857,-8372.333333333334,-1963.9333333333327,40.62857142857143,5
2024-06-13 20:14:40,-0.17715092,-0.01954768784,-0.4728097022,-3.359065056,-10.67813969,0.2322375625,3324.9514563106795,-435.6116504854369,3021.893203883495,-7894.26213592233,-1168.0485436893205,20.058252427184467,5
2024-06-13 20:14:41,0.5705481172,-0.2528982162,0.06963863969,-2.559401512,-10.33816338,0.6200982332,380.58715596330273,133.1834862385321,563.348623853211,-7865.59633027523,567.9633027522935,-81.39449541284404,5
2024-06-13 20:14:41,0.6047565937,-0.6866125464,1.286482215,-4.881777287,-9.282320023,-3.315969467,-592.2178217821781,122.3861386138614,-80.32673267326732,-8177.891089108911,-110.26732673267328,420.4554455445544,5
2024-06-13 20:14:41,0.6047565937,-0.6866125464,1.286482215,-4.881777287,-9.282320023,-3.315969467,-1020.4356435643564,83.77227722772277,-497.6534653465346,-8138.782178217822,-583.5346534653465,524.9108910891089,5
2024-06-13 20:14:41,-1.320690632,-3.764151573,0.9101892114,-2.947262287,-7.874529362,-2.956839085,-1574.7575757575758,1108.353535353535,-254.979797979798,-7917.444444444444,-818.8383838383838,24.565656565656564,5
2024-06-13 20:14:41,-0.1673770845,-3.855781317,1.379333735,-3.275267839,-12.31577396,1.158793569,-576.1666666666667,-71.6764705882353,62.62745098039216,-8190.980392156863,-94.94117647058825,-358.69607843137254,5
2024-06-13 20:14:41,-0.1673770845,-3.855781317,1.379333735,-3.275267839,-12.31577396,1.158793569,-781.6484375,-63.90625,-530.828125,-8245.1015625,-30.1171875,-363.8359375,5
2024-06-13 20:14:41,0.04886921868,-1.788613439,0.9187413454,-0.3399766386,-8.954314232,4.833893299,-852.7875,-277.425,-1013.2,-8120.925,-417.5375,-312.6875,5
2024-06-13 20:14:41,0.2809980214,-0.5448917747,0.004886921961,0.653617084,-6.849811077,5.418078423,-514.7798165137615,-464.58715596330273,-855.9633027522935,-8169.266055045871,-651.743119266055,1.366972477064223,5
2024-06-13 20:14:41,0.2809980214,-0.5448917747,0.004886921961,0.653617084,-6.849811077,5.418078423,-740.4432989690722,35.47422680412371,-580.2268041237113,-8268.98969072165,-740.6288659793814,71.61855670103093,5
2024-06-13 20:14:42,0.05497787148,0.06841690838,-0.006108652335,-0.3208230138,-7.184999466,7.13232708,-626.9519230769231,-352.24038461538464,113.01923076923076,-8326.096153846154,-727.1826923076923,-7.82692307692308,5
2024-06-13 20:14:42,0.05497787148,0.06841690838,-0.006108652335,-0.3208230138,-7.184999466,7.13232708,-839.1730769230769,-827.1153846153846,-206.05769230769232,-8150.211538461538,-1139.8076923076924,415.88461538461536,5
2024-06-13 20:14:42,0.7562511563,2.163684607,0.03054326214,0.873883605,-7.120356083,5.626373768,724.3867924528302,2459.122641509434,-1245.8584905660375,-7380.735849056604,-1194.4716981132076,146.74528301886795,5
2024-06-13 20:14:42,0.9700540304,3.236364126,-2.150245667,-2.612074137,-16.06030464,3.514688015,-520.7142857142858,4689.091836734694,-2779.1326530612246,-9194.316326530612,-476.3163265306122,-1496.765306122449,5
2024-06-13 20:14:42,0.9700540304,3.236364126,-2.150245667,-2.612074137,-16.06030464,3.514688015,-2553.378640776699,-3437.78640776699,-913.0,-7984.854368932039,-1808.7961165048544,-1507.8349514563106,5
2024-06-13 20:14:42,3.205820799,3.060434818,-1.185078621,-6.054935932,-6.945579052,1.489193439,-2128.6666666666665,-3343.921568627451,-447.921568627451,-7512.549019607844,-2473.3529411764707,-1071.627450980392,5
2024-06-13 20:14:42,-10.79032326,2.095267773,-1.255938888,-2.877830505,-12.04044056,-1.271321058,-845.1442307692307,-1498.8846153846152,1452.0288461538462,-7724.951923076923,-2204.25,57.38461538461539,5
2024-06-13 20:14:42,-10.79032326,2.095267773,-1.255938888,-2.877830505,-12.04044056,-1.271321058,-1686.076923076923,185.3846153846154,2860.846153846154,-8230.461538461539,-233.69230769230768,147.76923076923077,5
2024-06-13 20:14:42,0.6365215778,0.1307251602,-0.4178318381,-5.801150799,-6.610390663,1.304839969,-1126.504854368932,28.00970873786408,1922.1359223300967,-8231.747572815533,-464.4077669902913,625.7766990291262,5
2024-06-13 20:14:42,0.6365215778,0.1307251602,-0.4178318381,-5.801150799,-6.610390663,1.304839969,299.0388349514563,-278.90291262135923,203.3398058252427,-8216.699029126214,-208.6601941747573,607.0970873786408,5
2024-06-13 20:14:43,0.1588249654,-0.1808161139,-0.216246292,-5.61679697,-9.440337181,0.1795651317,546.3689320388349,-578.6407766990292,-395.0970873786408,-8108.368932038835,-321.7378640776699,566.9126213592233,5
2024-06-13 20:14:43,-0.4251621962,-0.8686503768,-0.1185078546,-4.086902142,-8.59278965,-0.5602431893,463.1818181818182,-771.9090909090909,-518.0,-8223.90909090909,-367.7272727272728,454.8181818181818,5
2024-06-13 20:14:43,-0.4251621962,-0.8686503768,-0.1185078546,-4.086902142,-8.59278965,-0.5602431893,557.7211538461538,157.75,-459.3076923076923,-7827.567307692308,-605.5961538461538,611.2596153846154,5
2024-06-13 20:14:43,0.06841690838,-2.774549961,-0.6719517708,-2.559401512,-9.354146004,-1.843535304,572.0,785.3333333333334,-491.3333333333333,-8290.0,-50.333333333333314,736.3333333333333,5
2024-06-13 20:14:43,0.08307767659,-3.740938663,0.1576032341,-1.429338455,-12.09550667,0.7422025204,458.35353535353534,203.16161616161617,318.9191919191919,-8217.0101010101,-92.23232323232324,753.3535353535353,5
2024-06-13 20:14:43,0.08307767659,-3.740938663,0.1576032341,-1.429338455,-12.09550667,0.7422025204,532.1021897810219,766.6934306569343,-2022.7007299270072,-7847.182481751824,-725.4233576642335,745.5547445255474,5
2024-06-13 20:14:43,0.618195653,-2.541199446,1.078788042,0.8451532125,-10.3453455,1.956062794,-242.7534246575342,3437.753424657534,-1822.3698630136987,-8274.972602739726,-652.4109589041096,-39.46575342465758,5
2024-06-13 20:14:43,0.618195653,-2.541199446,1.078788042,0.8451532125,-10.3453455,1.956062794,-2025.1553398058247,250.1650485436893,535.8932038834952,-8687.446601941747,-1120.9514563106795,-1075.8446601941748,5
2024-06-13 20:14:43,0.03298672289,-0.9517280459,0.5656611919,1.280897856,-8.870517731,3.948038578,-1810.5865384615383,-1340.8173076923076,596.5576923076923,-7800.932692307692,-817.3173076923076,-408.2692307692308,5
2024-06-13 20:14:43,0.1466076523,-0.4276056588,0.2247984111,1.733402014,-8.59278965,5.006275654,-1046.5098039215686,-672.7254901960785,514.7254901960785,-7941.235294117647,-1032.0,-62.19607843137254,5
2024-06-13 20:14:44,0.1466076523,-0.4276056588,0.2247984111,1.733402014,-8.59278965,5.006275654,-891.5045871559633,-736.2844036697247,126.1926605504587,-7962.357798165138,-1053.4128440366972,79.61467889908258,5
2024-06-13 20:14:44,-0.1698205322,0.8930850029,1.130100727,-5.346252441,-11.59990692,5.710171223,548.0947368421052,-1026.884210526316,178.2842105263158,-8476.357894736842,-792.7368421052631,676.1578947368421,5
2024-06-13 20:14:44,0.522900641,0.5045747161,0.7489207983,-1.8602947,-6.703764915,2.202665567,309.0,-869.7058823529412,-496.11764705882354,-8156.176470588235,-802.5882352941177,748.4117647058823,5
2024-06-13 20:14:44,0.522900641,0.5045747161,0.7489207983,-1.8602947,-6.703764915,2.202665567,136.0857142857143,194.5142857142857,-139.82857142857142,-8197.914285714285,-1094.571428571429,853.9428571428572,5
2024-06-13 20:14:44,0.2638937831,0.2015855312,0.04520402849,-4.338293552,-8.109161377,3.615244627,191.8235294117647,731.3333333333334,97.2156862745098,-7882.509803921569,-837.3137254901961,347.3137254901961,5
2024-06-13 20:14:44,0.2638937831,0.2015855312,0.04520402849,-4.338293552,-8.109161377,3.615244627,-13.028571428571428,738.5809523809523,77.80952380952381,-8262.371428571429,-770.9428571428572,151.1142857142857,5
2024-06-13 20:14:44,0.2015855312,-0.1246165112,-0.06963863969,1.340752959,-7.735665798,4.23294878,99.01731601731602,610.6709956709957,-56.03896103896104,-8128.536796536797,-1033.6536796536795,123.01731601731602,5
2024-06-13 20:14:44,-1.104444385,0.3286454976,-0.668286562,-1.015141487,-5.999869347,3.447650433,89.06060606060606,599.8484848484849,-58.63636363636363,-8219.878787878788,-1032.7878787878788,113.06060606060606,5
2024-06-13 20:14:44,-1.104444385,0.3286454976,-0.668286562,-1.015141487,-5.999869347,3.447650433,-344.55555555555554,366.358024691358,-212.4197530864197,-7941.024691358025,-732.4691358024692,-281.9135802469136,5
2024-06-13 20:14:44,-1.301142931,1.141096234,-3.602883101,2.688688517,-12.97657299,3.45722723,214.5428571428572,609.2,-74.45714285714286,-8249.257142857143,-866.1142857142858,-304.45714285714286,5
2024-06-13 20:14:45,-0.7953465581,4.267504692,-0.7525860071,1.173158884,-16.18959236,0.2657563984,-84.81818181818181,171.36363636363637,101.54545454545456,-8220.0,-694.7272727272727,-567.7272727272727,5
2024-06-13 20:14:45,-0.7953465581,4.267504692,-0.7525860071,1.173158884,-16.18959236,0.2657563984,69.37735849056604,351.5094339622641,0.9433962264150928,-8220.188679245282,-702.2830188679245,-593.188679245283,5
2024-06-13 20:14:45,1.367116451,2.960253,1.666440368,0.423773706,-11.46822643,-1.37427175,172.4016393442623,255.59016393442624,38.29508196721312,-8202.024590163934,-749.2868852459017,-605.5901639344262,5
2024-06-13 20:14:45,1.367116451,2.960253,1.666440368,0.423773706,-11.46822643,-1.37427175,140.4344262295082,-52.60655737704917,-315.8032786885246,-8222.516393442624,-755.0245901639345,-597.3934426229508,5
2024-06-13 20:14:45,-0.1441642046,1.968207836,1.783726573,-3.392583847,-7.232883453,-0.05506663769,-149.81372549019608,-114.03921568627452,-55.95098039215687,-8194.254901960785,-755.9019607843137,-578.0588235294117,5
2024-06-13 20:14:45,0.574213326,0.4459316432,0.4190535545,-6.198588371,-4.599261284,0.323217243,-231.18627450980392,82.0392156862745,-51.049019607843135,-8219.745098039215,-746.0980392156863,-583.9411764705883,5
2024-06-13 20:14:45,0.574213326,0.4459316432,0.4190535545,-6.198588371,-4.599261284,0.323217243,-15.056603773584923,-224.3018867924528,-237.26415094339623,-8281.396226415094,-1029.1132075471698,-542.0943396226415,5
2024-06-13 20:14:45,-2.313957453,-0.2504547536,-1.728748679,-1.632845521,-10.96544361,-1.52510643,236.0686274509804,-437.6862745098039,-315.21568627450984,-7892.803921568628,-919.2450980392156,-313.4803921568628,5
2024-06-13 20:14:45,-0.7049384713,-0.4776966274,-0.5974262357,-4.568136692,-9.064447403,3.179499865,693.1188118811881,-326.86138613861385,-49.53465346534654,-8216.198019801981,-1079.7425742574258,-262.64356435643566,5
2024-06-13 20:14:45,-0.7049384713,-0.4776966274,-0.5974262357,-4.568136692,-9.064447403,3.179499865,-20.31683168316832,-188.1089108910891,-71.0990099009901,-8272.415841584158,-682.5445544554456,39.26732673267327,5
2024-06-13 20:14:46,0.04764748737,-0.574213326,-0.109955743,-2.590526342,-9.708487511,1.716642618,57.1747572815534,-279.5728155339806,-170.873786407767,-8207.95145631068,-1109.0776699029127,120.72815533980582,5
2024-06-13 20:14:46,0.04764748737,-0.574213326,-0.109955743,-2.590526342,-9.708487511,1.716642618,104.873786407767,-309.15533980582524,-368.1553398058253,-8122.368932038835,-1060.9514563106795,91.20388349514565,5
2024-06-13 20:14:46,0.1441642046,-0.581543684,-0.1270599663,-2.585737944,-11.38203526,0.9600749016,32.03636363636363,-346.6363636363636,-419.8181818181818,-8158.872727272727,-1025.1636363636364,3.7454545454545496,5
2024-06-13 20:14:46,-0.02443460934,0.3237585723,2.191784382,-5.532999992,-11.21683502,2.018311977,-50.09278350515464,-134.79381443298968,-104.95876288659794,-8281.62886597938,-1312.9484536082475,197.08247422680407,5
2024-06-13 20:14:46,-0.02443460934,0.3237585723,2.191784382,-5.532999992,-11.21683502,2.018311977,133.17142857142858,-4.342857142857142,751.2857142857143,-7896.085714285714,-1391.9809523809524,237.0,5
2024-06-13 20:14:46,0.0720821023,0.2712241709,1.556484699,-2.920926094,-5.899312973,0.4812345505,589.5,738.0,1506.0,-8068.5,-892.0,248.5,5
2024-06-13 20:14:46,-0.1576032341,-0.1282816976,-0.4776966274,-3.485957623,-6.083666325,0.2777273953,207.76679841897231,369.2608695652174,445.39525691699606,-8285.415019762846,-179.36363636363637,-37.80237154150198,5
2024-06-13 20:14:46,-0.1576032341,-0.1282816976,-0.4776966274,-3.485957623,-6.083666325,0.2777273953,75.35573122529644,295.3478260869565,112.19367588932806,-8290.553359683794,-224.8181818181818,-54.40316205533597,5
2024-06-13 20:14:46,0.04764748737,0.2956587672,-0.4948008358,-8.714894295,-10.53209305,2.748543501,-57.05533596837944,221.43478260869568,-221.00790513833988,-8295.691699604744,-270.27272727272725,-71.00395256916997,5
2024-06-13 20:14:46,0.04764748737,0.2956587672,-0.4948008358,-8.714894295,-10.53209305,2.748543501,30.75,-961.25,133.75,-7936.75,-1008.5,1183.25,5
2024-06-13 20:14:47,0.6316346526,0.2235766798,0.4276056588,-5.166687489,-6.959944248,0.6607996821,246.4848484848485,-116.8989898989899,88.58585858585859,-7696.80808080808,-1400.5656565656566,1200.141414141414,5
2024-06-13 20:14:47,0.2638937831,0.5143485069,0.5668829679,-7.189787865,-7.790732384,0.85473001,-1640.6923076923076,214.34615384615384,900.5769230769231,-8511.5,-976.0,461.96153846153845,5
2024-06-13 20:14:47,0.2638937831,0.5143485069,0.5668829679,-7.189787865,-7.790732384,0.85473001,-1380.125,-202.625,1709.75,-8101.625,-933.0,855.625,5
2024-06-13 20:14:47,-1.530828357,0.4776966274,1.544267297,-8.121131897,-4.438849926,0.4165911078,-747.625,-213.4583333333333,1154.75,-8239.125,-286.33333333333337,759.7916666666666,5
2024-06-13 20:14:47,-2.635272741,0.6438519955,-1.292590857,-4.551377296,-3.651157618,-1.601720929,-795.626168224299,-19.457943925233646,-46.76635514018692,-8277.046728971962,-164.0,761.0,5
2024-06-13 20:14:47,-0.873537302,0.96028018,-1.613906026,-2.964021683,-10.46745014,-5.16189909,-787.6633663366337,211.6435643564357,60.2970297029703,-8290.158415841584,-147.69306930693068,1054.782178217822,5
2024-06-13 20:14:47,-0.873537302,0.96028018,-1.613906026,-5.293580055,-9.59835434,-4.431667328,-401.5339805825243,1073.6796116504854,1010.6019417475728,-8125.650485436893,-196.5242718446602,769.1165048543689,5
2024-06-13 20:14:47,-0.3836233616,0.1918116808,-0.9419541955,-5.293580055,-9.59835434,-4.431667328,-295.1090909090909,931.8363636363636,1317.2,-8181.527272727273,-331.8727272727273,683.4909090909091,5
2024-06-13 20:14:47,-0.08918632567,0.06597344577,-0.1050688252,-3.694253206,-8.777143478,-4.637568474,347.1363636363636,-212.04545454545456,-954.9318181818182,-8238.227272727272,546.9090909090909,581.5454545454545,5
2024-06-13 20:14:48,-0.08918632567,0.06597344577,-0.1050688252,-3.694253206,-8.777143478,-4.637568474,-116.92233009708738,-547.5533980582525,-1300.9126213592233,-7982.961165048544,-130.58252427184465,693.7669902912621,5
2024-06-13 20:14:48,-0.0232128799,-0.09285151958,0.09285151958,-2.755726099,-7.874529362,-4.704606533,413.8942307692308,224.23076923076923,-1786.951923076923,-8271.778846153846,-999.3846153846154,878.8557692307693,5
2024-06-13 20:14:48,0.05742133409,0.03176499158,-0.1954768747,-3.126827478,-7.781155586,-4.582501888,18.62616822429908,439.7943925233645,-63.38317757009349,-8351.654205607476,-267.5981308411215,838.3831775700935,5
2024-06-13 20:14:48,0.05742133409,0.03176499158,-0.1954768747,-3.126827478,-7.781155586,-4.582501888,-2023.627450980392,562.4313725490197,1080.6078431372548,-8233.549019607843,12.549019607843135,689.4901960784314,5
2024-06-13 20:14:48,-0.1136209369,-0.0171042271,-0.2797762752,-3.138798475,-7.905653954,-5.176264286,-2251.970297029703,-294.7227722772277,-1963.039603960396,-8283.990099009901,-824.4356435643565,461.2475247524753,5
2024-06-13 20:14:48,-0.1136209369,-0.0171042271,-0.2797762752,-3.138798475,-7.905653954,-5.176264286,-971.6792452830188,246.22641509433964,-822.5283018867924,-8247.33962264151,-1179.811320754717,568.6037735849056,5
2024-06-13 20:14:48,-0.1588249654,-0.342084527,-0.5595525503,-3.078943491,-7.053318024,-5.303156853,508.5196078431373,699.2647058823529,597.1176470588235,-8245.127450980392,-1051.9411764705883,426.0490196078432,5
2024-06-13 20:14:48,-0.4667010605,-0.6145304441,-0.967610538,-2.521094322,-7.264008045,-6.646304131,957.3495145631068,1046.3300970873786,111.79611650485438,-8083.310679611651,-832.6019417475728,-49.9126213592233,5
2024-06-13 20:14:48,-0.4667010605,-0.6145304441,-0.967610538,-2.521094322,-7.264008045,-6.646304131,59.00952380952381,842.6952380952381,91.04761904761904,-8015.333333333333,-855.0190476190476,105.48571428571428,5
2024-06-13 20:14:48,-0.3714060783,-1.078788042,-0.8344419003,-1.738190413,-8.343792915,-6.612784863,-491.97163120567376,971.9078014184396,1255.340425531915,-7868.063829787234,-828.6241134751773,-24.01418439716312,5
2024-06-13 20:14:49,0.05497787148,-0.9541715384,-0.2651155293,-0.3303998411,-7.812280178,-5.702988625,-474.2411347517731,1139.2836879432623,1168.106382978723,-7882.95744680851,-1018.6950354609928,117.12056737588654,5
2024-06-13 20:14:49,0.05497787148,-0.9541715384,-0.2651155293,-0.3303998411,-7.812280178,-5.702988625,1495.867924528302,100.50943396226415,-829.7924528301887,-7929.679245283019,-624.811320754717,-306.72641509433964,5
2024-06-13 20:14:49,0.02687807009,-0.4361577928,-0.37751472,-0.6823474765,-8.329427719,-4.556165695,1016.2352941176472,845.2941176470588,-664.9411764705883,-8016.411764705882,-500.9411764705882,-269.3529411764706,5
2024-06-13 20:14:49,0.02687807009,-0.4361577928,-0.37751472,-0.6823474765,-8.329427719,-4.556165695,216.8823529411765,1042.3529411764705,303.9117647058824,-8282.20588235294,-693.5588235294117,-685.3823529411765,5
2024-06-13 20:14:49,0.1844813079,0.08429940045,-0.4459316432,-1.290474772,-8.446743965,-4.355052948,184.3428571428572,482.9428571428571,-12.971428571428568,-7899.171428571429,-859.4857142857143,-1103.142857142857,5
2024-06-13 20:14:49,-0.0415388383,0.4972442985,0.1661553532,-0.9457096457,-9.224859238,-5.425261021,218.21153846153845,624.6538461538462,421.61538461538464,-7882.826923076923,-693.5769230769231,-1046.5192307692307,5
2024-06-13 20:14:49,-0.0415388383,0.4972442985,0.1661553532,-0.9457096457,-9.224859238,-5.425261021,891.6274509803922,57.74509803921568,614.1666666666666,-8065.696078431372,-874.2843137254902,-1135.7450980392157,5
2024-06-13 20:14:49,0.1197295859,0.5094616413,0.109955743,-1.010353088,-8.489839554,-4.862623692,1054.372549019608,-667.7450980392157,-269.16666666666663,-7935.303921568628,-102.71568627450984,-1010.2549019607844,5
2024-06-13 20:14:49,0.1148426682,0.5510004759,0.0293215327,-0.8714894056,-8.547300339,-4.963180065,627.5728155339806,-1120.9611650485438,-1770.2912621359224,-7934.368932038835,-1092.1456310679612,-217.7572815533981,5
2024-06-13 20:14:49,0.1148426682,0.5510004759,0.0293215327,-0.8714894056,-8.547300339,-4.963180065,538.8425925925926,-881.75,-1850.555555555556,-7863.148148148148,-953.9444444444443,-525.5462962962963,5
2024-06-13 20:14:50,0.1136209369,0.2956587672,0.06963863969,-0.5554547906,-8.868123055,-5.015852451,314.01,-23.06,447.14,-7917.09,-1316.07,-511.42,5
2024-06-13 20:14:50,0.1136209369,0.2956587672,0.06963863969,-0.2298433632,-8.453926086,-4.75249052,621.375,47.0,240.625,-8066.5,-991.5,-218.125,5
2024-06-13 20:14:50,0.1136209369,0.2675589919,0.1918116808,-0.2298433632,-8.453926086,-4.75249052,787.9,210.87272727272727,23.681818181818187,-7866.245454545455,-967.7,-329.8363636363636,5
2024-06-13 20:14:50,0.1270599663,0.1111774743,-0.1123992056,-0.03112462163,-8.880094528,-4.436455727,256.21875,2984.395833333333,-364.0,-7359.645833333333,-952.1354166666666,-480.375,5
2024-06-13 20:14:50,0.1270599663,0.1111774743,-0.1123992056,-0.03112462163,-8.880094528,-4.436455727,-873.5714285714286,4104.314285714286,-295.2285714285714,-7780.228571428572,-959.9142857142856,-1229.2285714285713,5
2024-06-13 20:14:50,0.007330383174,0.1685988009,0.0171042271,0.3687070608,-9.346963882,-4.273650169,-1115.470588235294,-3222.3529411764707,-426.52941176470586,-8465.117647058823,-1312.9411764705883,-2640.1176470588234,5
2024-06-13 20:14:50,0.1527163088,0.2076941878,0.008552113548,0.2059013397,-9.11233139,-4.216189384,535.9142857142857,-4692.5142857142855,-1060.8,-7481.514285714285,-903.5142857142856,-1625.4285714285716,5
2024-06-13 20:14:50,0.1527163088,0.2076941878,0.008552113548,0.2059013397,-9.11233139,-4.216189384,406.0990099009901,-2838.5544554455446,-1398.4851485148515,-7532.158415841584,-1904.1287128712872,330.5148514851485,5
2024-06-13 20:14:50,0.1661553532,0.07696902007,-0.00244346098,0.2106897533,-8.963891029,-4.376600742,-80.06976744186046,-803.1007751937984,-129.19379844961242,-7673.906976744186,-1931.9147286821703,513.0387596899225,5
2024-06-13 20:14:50,0.1661553532,0.07696902007,-0.00244346098,-0.3351882398,-11.20725822,-1.170764685,-131.6,375.4,1190.6,-8224.6,-1352.2,330.8,5
2024-06-13 20:14:51,2.063502789,0.1392772794,0.6902777553,-0.3351882398,-11.20725822,-1.170764685,-303.125,639.5,2131.5,-7964.625,-976.125,240.5,5
2024-06-13 20:14:51,-2.582738161,0.5351179838,1.439198494,-2.52827692,-8.391676903,-1.659181833,-194.3577981651376,571.0642201834862,1257.0366972477063,-8147.54128440367,-539.7889908256881,303.25688073394497,5
2024-06-13 20:14:51,-2.582738161,0.5351179838,1.439198494,-2.52827692,-8.391676903,-1.659181833,-1.660194174757283,490.92233009708735,871.9805825242719,-8232.47572815534,-792.1165048543689,351.126213592233,5
2024-06-13 20:14:51,-0.5974262357,0.830776751,-0.5045747161,2.497152328,-8.73404789,-6.773196697,244.07368421052632,261.9157894736842,-5.368421052631582,-8258.073684210527,-517.2947368421053,-31.8,5
2024-06-13 20:14:51,-0.3579670191,-0.813672483,-1.63589716,-2.738966703,-7.788338184,-4.57771349,1.9306930693069304,-47.71287128712871,-772.4653465346535,-8283.39603960396,-481.009900990099,-48.82178217821782,5
2024-06-13 20:14:51,-0.3579670191,-0.813672483,-1.63589716,-2.738966703,-7.788338184,-4.57771349,71.6504854368932,183.53398058252424,-453.28155339805824,-8257.611650485436,-748.3495145631068,57.55339805825243,5
2024-06-13 20:14:51,0.5375614166,-1.828930497,-1.475850463,0.1580173075,-9.500192642,-5.913678169,23.56603773584905,-70.29245283018868,258.41509433962267,-8082.207547169812,-484.7641509433962,-265.99056603773585,5
2024-06-13 20:14:51,0.5375614166,-1.828930497,-1.475850463,0.3926490843,-10.12986755,-7.000645638,291.0,-299.0,-74.0,-8141.333333333333,-444.6666666666667,-173.0,5
2024-06-13 20:14:51,1.703092337,-2.708576441,-0.4960225821,0.3926490843,-10.12986755,-7.000645638,166.63636363636363,-529.040404040404,-107.91919191919192,-8315.656565656565,-453.030303030303,66.73737373737373,5
2024-06-13 20:14:51,1.536936998,-2.357939959,1.078788042,-1.113303781,-11.90875912,-1.78368032,-36.5980392156863,-662.7058823529412,-60.31372549019608,-8262.450980392157,-434.343137254902,289.078431372549,5
2024-06-13 20:14:52,1.536936998,-2.357939959,1.078788042,-1.113303781,-11.90875912,-1.78368032,78.17142857142858,-466.88571428571424,387.1714285714286,-8441.742857142857,-449.2285714285714,576.8285714285714,5
2024-06-13 20:14:52,1.56625843,-1.467298269,1.743409395,0.08140286058,-10.50096893,2.736572504,84.70588235294119,-1119.7058823529412,-135.47058823529412,-7969.058823529412,-383.4117647058823,809.8823529411765,5
2024-06-13 20:14:52,1.067792416,-0.4593706727,0.7696902156,0.4668693244,-6.787561893,4.122815132,-155.02884615384616,133.89423076923072,-434.9807692307692,-8010.326923076923,-383.2692307692308,865.8942307692307,5
2024-06-13 20:14:52,1.067792416,-0.4593706727,0.7696902156,0.4668693244,-6.787561893,4.122815132,-315.6862745098039,745.0784313725491,-849.1176470588235,-8421.725490196079,-1046.0,429.7647058823529,5
2024-06-13 20:14:52,0.4813618064,-0.2883284092,0.3701843321,-0.8714894056,-6.270414352,6.081272125,-525.9259259259259,201.9537037037037,223.27777777777777,-8148.944444444444,-719.3055555555555,185.89814814814807,5
2024-06-13 20:14:52,0.3958406746,-0.07574728876,-0.05497787148,-3.23456645,-6.524199486,7.469909191,-792.8695652173913,-602.304347826087,1104.5652173913045,-8442.91304347826,-874.1304347826087,511.7826086956522,5
2024-06-13 20:14:52,0.3958406746,-0.07574728876,-0.05497787148,-3.23456645,-6.524199486,7.469909191,-1663.951612903226,-2142.048387096774,1519.2903225806451,-8250.612903225807,-236.4354838709677,1011.951612903226,5
2024-06-13 20:14:52,0.3555235863,0.09773843735,-0.05009094998,-2.865859509,-6.291962147,6.895300865,89.20560747663552,-785.5046728971963,-1545.4953271028037,-7434.738317757009,416.8785046728972,1922.0841121495328,5
2024-06-13 20:14:52,0.3555235863,0.09773843735,-0.05009094998,-2.865859509,-6.291962147,6.895300865,833.8598130841121,2714.07476635514,-2967.6728971962616,-7791.345794392523,-545.4579439252336,1527.5327102803735,5
2024-06-13 20:14:52,-0.4398229718,0.7208209634,-0.1979203373,-4.27125597,-6.035782337,6.519411087,121.8041237113402,2696.711340206185,-2823.917525773196,-8366.711340206186,-1749.0618556701031,534.8144329896907,5
2024-06-13 20:14:53,0.2382374406,-0.0415388383,-0.2247984111,-4.003105164,-7.429207802,4.917690277,-1862.3942307692307,786.6634615384615,689.7115384615385,-8679.028846153846,-1317.5096153846157,-159.93269230769232,5
2024-06-13 20:14:53,0.2382374406,-0.0415388383,-0.2247984111,-4.003105164,-7.429207802,4.917690277,-2028.116504854369,-208.25242718446603,2990.417475728156,-8156.873786407767,-842.9029126213593,106.96116504854368,5
2024-06-13 20:14:53,-0.2748893499,-0.05742133409,-0.0293215327,-1.383848548,-7.620744228,6.181828976,-1706.5333333333333,712.7714285714285,2481.2761904761905,-7949.885714285714,73.36190476190475,15.152380952380952,5
2024-06-13 20:14:53,-0.2748893499,-0.05742133409,-0.0293215327,0.9600749016,-5.585672379,3.79480958,-1351.0588235294117,1459.2941176470588,461.7647058823529,-8349.117647058823,0.058823529411768,9.294117647058826,5
2024-06-13 20:14:53,-0.2431243658,0.08674286306,-0.5619960427,0.9600749016,-5.585672379,3.79480958,-1482.3495145631068,-86.07766990291262,-453.5728155339806,-8077.543689320389,83.0873786407767,-185.58252427184465,5
2024-06-13 20:14:53,-0.8943067193,1.308473349,-2.667037725,2.207453966,-9.248801231,6.244078159,-1356.1287128712872,29.138613861386137,-608.6138613861386,-7873.128712871287,-226.24752475247524,-350.7029702970297,5
2024-06-13 20:14:53,-0.8943067193,1.308473349,-2.667037725,2.207453966,-9.248801231,6.244078159,-716.5096153846154,81.40384615384616,-842.1153846153846,-8273.759615384615,44.35576923076923,-370.4230769230769,5
2024-06-13 20:14:53,0.2577851415,4.763527393,-1.269377947,2.358288765,-14.67645645,1.829170108,-427.88461538461536,-94.71153846153848,-550.3461538461538,-8303.096153846154,-172.8846153846154,-348.75,5
2024-06-13 20:14:53,4.820948601,3.323107004,-0.2785545588,-2.126051188,-9.749189377,1.419761658,-449.8921568627451,317.01960784313724,-63.26470588235294,-7870.950980392156,-294.921568627451,-170.41176470588235,5
2024-06-13 20:14:53,4.820948601,3.323107004,-0.2785545588,-2.126051188,-9.749189377,1.419761658,-1548.4950495049504,220.99009900990097,1823.504950495049,-8269.861386138615,-187.01980198019805,-313.6039603960396,5
2024-06-13 20:14:54,1.303586483,0.4276056588,-1.009149432,-5.348646641,-2.327163935,1.628057122,-843.6666666666667,-242.7333333333333,1104.4666666666667,-8221.066666666668,733.2666666666667,-168.2,5
2024-06-13 20:14:54,-1.620014668,-1.128878951,-1.313360333,-0.3639186621,-6.500257492,8.159439087,-2441.8529411764703,-62.83333333333333,-1024.921568627451,-8027.225490196079,2019.4803921568628,-722.156862745098,5
2024-06-13 20:14:54,-1.620014668,-1.128878951,-1.313360333,-0.3639186621,-6.500257492,8.159439087,-9292.716981132076,795.3396226415094,-2207.169811320755,-7865.905660377359,2012.7169811320755,-756.6792452830189,5
2024-06-13 20:14:54,0.05619960278,-0.4740314186,-0.08918632567,-1.802833915,-4.316745758,8.801085472,-16771.1,686.7,-4027.44,-8156.18,-487.02,-1518.65,5
2024-06-13 20:14:54,0.05619960278,-0.4740314186,-0.08918632567,-1.802833915,-4.316745758,8.801085472,-15974.866141732284,-442.4803149606299,-2688.535433070866,-8203.779527559054,-1053.9291338582675,-532.0472440944882,5
2024-06-13 20:14:54,-0.05131268129,0.02809980139,-0.07941248268,-0.9481038451,-6.169857979,8.042123795,-7251.048780487805,-868.170731707317,-720.780487804878,-8130.073170731707,-1447.8536585365853,877.609756097561,5
2024-06-13 20:14:54,-0.125838235,-0.02687807009,0.1466076523,-0.2729389966,-5.544970989,8.046912193,1010.4190476190475,460.87619047619046,-130.03809523809525,-8232.180952380952,-1339.2380952380952,1222.4666666666667,5
2024-06-13 20:14:54,-0.125838235,-0.02687807009,0.1466076523,-0.2729389966,-5.544970989,8.046912193,14424.514563106795,225.5242718446602,942.8446601941748,-8224.980582524271,-2271.7184466019417,-425.71844660194176,5
2024-06-13 20:14:54,-0.1734857261,0.05253441259,0.07696902007,0.5626373887,-6.02620554,8.978256226,17425.223300970873,-789.4660194174758,1803.6407766990287,-7961.883495145631,-27.737864077669883,-1261.4563106796118,5
2024-06-13 20:14:54,-3.32799387,0.5155702829,0.141720742,-0.4764461517,-8.358158112,4.489128113,10183.2,853.1428571428571,1652.4857142857145,-7765.485714285714,1195.6857142857143,-497.74285714285713,5
2024-06-13 20:14:55,-3.32799387,0.5155702829,0.141720742,-0.4764461517,-8.358158112,4.489128113,3150.098039215686,1084.9803921568628,678.2058823529412,-8505.470588235294,1003.9607843137256,-615.6470588235294,5
2024-06-13 20:14:55,-5.169141769,0.8881980777,0.3029891551,-2.276885748,-7.28316164,-2.980781078,2409.9591836734694,-1040.571428571429,-1391.8367346938776,-8311.326530612245,500.4489795918368,-400.0,5
2024-06-13 20:14:55,-5.169141769,0.8881980777,0.3029891551,-2.276885748,-7.28316164,-2.980781078,1497.2641509433963,-665.1132075471698,-1586.3113207547171,-8038.283018867924,-551.9811320754717,101.52830188679243,5
2024-06-13 20:14:55,-3.000570059,1.544267297,-0.5681046844,0.2466027737,-6.435614109,-7.484274387,761.0,757.9,1171.7,-7991.5,-883.0,-328.1,5
2024-06-13 20:14:55,-0.05009094998,0.822224617,-0.2003637999,4.201824188,-4.984727859,-9.296685219,1560.943925233645,24.01869158878505,86.85981308411215,-8193.831775700935,-488.68224299065423,-307.4766355140187,5
2024-06-13 20:14:55,-0.05009094998,0.822224617,-0.2003637999,4.201824188,-4.984727859,-9.296685219,1500.156862745098,-292.03921568627453,212.03921568627453,-8268.362745098038,-659.5980392156863,-41.78431372549019,5
2024-06-13 20:14:55,0.06597344577,0.5986479521,-0.08429940045,0.8188169599,-5.561730385,-9.184157372,1136.5533980582525,347.2621359223301,-2.5145631067961176,-8293.233009708738,-463.62135922330094,-228.3495145631068,5
2024-06-13 20:14:55,0.0415388383,-0.216246292,0.2687807083,1.395819545,-4.661510944,-8.899248123,372.8415841584159,877.4851485148515,-513.8613861386139,-7765.702970297029,-757.8910891089109,34.78217821782178,5
2024-06-13 20:14:55,0.0415388383,-0.216246292,0.2687807083,1.395819545,-4.661510944,-8.899248123,259.1666666666667,2553.656862745098,425.2745098039216,-7952.235294117647,-661.7156862745098,-730.686274509804,5
2024-06-13 20:14:56,-0.08429940045,0.1429424733,0.3714060783,1.905784607,-4.244919777,-7.874529362,545.6213592233009,-2009.980582524272,-944.3300970873786,-8156.291262135922,-184.29126213592232,-1205.5922330097087,5
2024-06-13 20:14:56,0.1429424733,-0.03787364438,-0.00122173049,2.446874142,-4.668693542,-8.056488991,-378.0,-1476.0,-2427.333333333333,-7894.333333333333,-1356.3333333333333,-450.33333333333337,5
2024-06-13 20:14:56,0.06475171447,0.3103195429,-0.05375614017,2.128445387,-5.372588634,-8.386888504,-1360.1875,262.375,-420.125,-7891.375,-1807.375,-54.1875,5
2024-06-13 20:14:56,0.06475171447,0.3103195429,-0.05375614017,2.128445387,-5.372588634,-8.386888504,-1073.822429906542,-169.71028037383178,203.05607476635515,-8156.102803738318,-1653.3364485981308,-290.4299065420561,5
2024-06-13 20:14:56,0.1050688252,0.1185078546,0.1331686229,1.869871497,-5.030217648,-8.346187592,-147.89,-239.57,737.51,-8122.83,-885.51,-298.24,5
2024-06-13 20:14:56,0.05131268129,-0.06108652428,-0.106290549,1.987187386,-4.508281708,-8.200140953,116.0,-201.0,836.3333333333334,-8126.607843137255,-239.31372549019608,299.4117647058823,5
2024-06-13 20:14:56,0.05131268129,-0.06108652428,-0.106290549,1.987187386,-4.508281708,-8.200140953,-795.3689320388349,-652.3203883495146,-1438.621359223301,-8153.708737864078,-1293.2038834951456,569.5339805825242,5
2024-06-13 20:14:56,0.2003637999,-0.232128799,-0.9175195694,1.848323703,-4.965574265,-8.262390137,-1337.893203883495,222.47572815533985,-403.7378640776699,-7829.21359223301,-794.6310679611651,371.0,5
2024-06-13 20:14:56,0.2003637999,-0.232128799,-0.9175195694,1.848323703,-4.965574265,-8.262390137,-3298.3009708737864,996.1941747572816,288.79611650485435,-7856.368932038835,-389.68932038834953,2.3398058252427205,5
2024-06-13 20:14:56,0.7171558142,-0.7745771408,-1.478293896,2.300827742,-5.202600479,-8.271966934,-8390.796116504855,1997.7087378640776,-950.0679611650484,-8056.912621359223,228.73786407766988,-1007.7087378640776,5
2024-06-13 20:14:57,1.209513187,-1.038470864,-1.788613439,2.954444885,-4.096478939,-7.599195957,-14978.0,1461.5,-1659.5,-8192.5,-547.0,-2021.5,5
2024-06-13 20:14:57,1.209513187,-1.038470864,-1.788613439,2.954444885,-4.096478939,-7.599195957,-14976.676056338029,-145.62910798122067,-1592.098591549296,-8278.61971830986,-1351.2018779342725,-1684.380281690141,5
2024-06-13 20:14:57,1.415985584,-1.324355841,-1.65544486,3.943250179,-3.993528366,-10.28788471,-14273.859154929578,-523.5633802816901,-1462.5211267605634,-8292.704225352112,-1323.9718309859154,-1670.2957746478874,5
2024-06-13 20:14:57,2.26508832,-2.517986536,-1.25838244,2.698265314,-7.335834026,-7.694964409,-5823.95744680851,-660.8510638297872,-978.4893617021276,-8221.595744680852,-859.8723404255319,-677.4893617021277,5
2024-06-13 20:14:57,2.26508832,-2.517986536,-1.25838244,2.698265314,-7.335834026,-7.694964409,-1800.5094339622642,-464.90566037735846,-564.2830188679245,-7897.33962264151,453.7547169811321,81.66037735849056,5
2024-06-13 20:14:57,1.923003793,-2.210110426,-0.3396410644,1.577778935,-8.959102631,-3.488351822,-1084.235294117647,195.41176470588235,-1027.2941176470588,-7900.823529411765,129.58823529411765,-87.41176470588235,5
2024-06-13 20:14:57,1.923003793,-2.210110426,-0.3396410644,1.577778935,-8.959102631,-3.488351822,-158.5,164.41176470588235,-1445.6764705882354,-8303.0,-131.94117647058823,-171.11764705882354,5
2024-06-13 20:14:57,1.125213742,-1.13254416,0.1295034289,1.419761658,-10.36928749,-1.319205165,-826.6057692307693,-69.52884615384616,-867.8076923076923,-8219.85576923077,-27.32692307692308,-370.6057692307692,5
2024-06-13 20:14:57,0.7318165898,-0.4312708676,0.2883284092,2.070984364,-9.538499832,0.0287304204,-186.2871287128713,284.38613861386136,-758.5346534653465,-8156.633663366337,-875.0891089108911,-233.01980198019805,5
2024-06-13 20:14:57,0.7318165898,-0.4312708676,0.2883284092,2.070984364,-9.538499832,0.0287304204,1789.6634615384614,186.90384615384616,62.68269230769231,-8146.0192307692305,-1871.317307692308,-42.60576923076923,5
2024-06-13 20:14:58,0.0232128799,-0.145385921,0.2040289938,3.277662039,-9.296685219,1.065419793,11256.061611374407,451.0189573459716,1744.260663507109,-8319.421800947868,-2449.78672985782,-888.1421800947867,5
2024-06-13 20:14:58,0.1930334121,0.008552113548,-0.0232128799,0.1460463107,-9.957485199,1.441309452,12562.222748815166,452.91469194312793,1870.3270142180093,-8261.601895734597,-2328.4597156398104,-1002.3601895734596,5
2024-06-13 20:14:58,0.1930334121,0.008552113548,-0.0232128799,0.1460463107,-9.957485199,1.441309452,13868.383886255924,454.8104265402844,1996.39336492891,-8203.781990521327,-2207.132701421801,-1116.5781990521327,5
2024-06-13 20:14:58,-0.1404990107,0.37751472,0.3176499307,1.132457376,-10.13944435,0.5434837937,12187.739130434782,-99.04347826086956,1592.391304347826,-7597.217391304348,128.08695652173913,-980.4782608695652,5
2024-06-13 20:14:58,-0.1404990107,0.37751472,0.3176499307,1.132457376,-10.13944435,0.5434837937,5554.63829787234,210.1489361702128,820.0851063829787,-7919.989361702128,-1.457446808510639,-265.57446808510633,5
2024-06-13 20:14:58,-0.1808161139,0.6316346526,0.6316346526,-0.2035071403,-13.20402241,1.18991828,1388.5471698113208,1006.5754716981132,1307.1132075471698,-8196.198113207547,-226.00943396226413,-221.11320754716985,5
2024-06-13 20:14:58,0.6230825782,0.0,3.991393566,-4.948814869,-13.30218506,-0.4692635238,1388.621359223301,-209.2718446601941,-559.7669902912621,-8286.14563106796,-91.58252427184466,-305.05825242718447,5
2024-06-13 20:14:58,0.6230825782,0.0,3.991393566,-4.948814869,-13.30218506,-0.4692635238,1879.0891089108911,-277.049504950495,-2309.168316831683,-7980.178217821782,-1135.1584158415842,-311.0792079207921,5
2024-06-13 20:14:58,0.4422664344,-1.262047648,4.106235981,-5.954379559,-2.032677174,0.4165911078,739.1089108910891,289.05940594059405,-1419.6831683168316,-8054.574257425743,-1459.247524752475,-228.4752475247525,5
2024-06-13 20:14:58,0.07330382615,-0.8356636763,0.9810495973,-4.965574265,1.067813993,3.145981073,717.1730769230769,440.47115384615387,636.5769230769231,-8092.298076923077,-1631.9038461538462,-373.625,5
2024-06-13 20:14:59,0.07330382615,-0.8356636763,0.9810495973,-4.965574265,1.067813993,3.145981073,149.41747572815535,388.28155339805824,498.7669902912621,-7896.834951456311,-1183.9708737864078,-208.9417475728156,5
2024-06-13 20:14:59,-0.8014551997,-0.0415388383,0.01221730467,-7.773972988,-0.1580173075,4.802768707,-361.64,1419.44,184.52,-7636.68,-1261.4,-493.0,5
2024-06-13 20:14:59,-0.8014551997,-0.0415388383,0.01221730467,-7.773972988,-0.1580173075,4.802768707,-450.51376146788994,776.4862385321101,314.27522935779814,-8306.899082568807,-1356.7064220183486,-1099.0183486238532,5
2024-06-13 20:14:59,-0.05375614017,-0.07819075137,0.1368338168,-8.499416351,0.8236053586,4.49870491,67.37113402061857,-2323.2061855670104,-2008.6907216494844,-8029.144329896907,-1184.5567010309278,-921.7731958762888,5
2024-06-13 20:14:59,-0.2431243658,0.1905899495,0.04031710699,-6.713341713,0.2753331959,5.068524837,819.9615384615385,-336.75961538461536,-975.4134615384615,-7685.6057692307695,-1459.25,-199.53846153846155,5
2024-06-13 20:14:59,-0.2431243658,0.1905899495,0.04031710699,-6.713341713,0.2753331959,5.068524837,131.76470588235293,1110.529411764706,1352.0,-8042.764705882353,-2044.8235294117649,-258.8235294117647,5
2024-06-13 20:14:59,0.1380555481,0.2064724565,0.1466076523,-9.847352028,-0.09576806426,3.770867586,-279.21568627450984,353.6078431372549,1241.9411764705883,-8142.490196078431,-1285.862745098039,-771.2549019607843,5
2024-06-13 20:14:59,-0.05375614017,0.1185078546,0.08307767659,-8.157045364,0.9313444495,3.916913986,-540.1605839416059,-156.42335766423358,890.4671532846716,-7929.576642335766,-1015.4160583941606,-798.2700729927008,5
2024-06-13 20:14:59,-0.05375614017,0.1185078546,0.08307767659,-8.157045364,0.9313444495,3.916913986,-431.4014598540146,-306.058394160584,683.1678832116788,-8179.941605839416,-774.5401459854015,-847.1751824817518,5
2024-06-13 20:14:59,1.633453608,0.326202035,-0.2113593817,-6.811503887,0.7781155705,4.235342979,-139.63366336633663,-134.43564356435644,-1007.3069306930691,-7945.138613861386,-1113.4257425742574,-460.960396039604,5
2024-06-13 20:15:00,1.633453608,0.326202035,-0.2113593817,-6.811503887,0.7781155705,4.235342979,-512.3495145631068,144.27184466019418,-430.0291262135922,-7698.504854368932,-1026.7184466019417,-648.0,5
2024-06-13 20:15:00,0.6719517708,0.9309586287,-2.271197081,-5.307945251,0.8212111592,3.371036053,-701.4038461538462,58.55769230769231,-571.6923076923077,-8139.576923076923,-1205.2884615384614,-644.4423076923077,5
2024-06-13 20:15:00,0.4899139404,1.218065262,-3.446501732,-7.445967197,-12.00213337,0.0359130241,-871.5961538461538,-613.5576923076923,-206.30769230769232,-7868.423076923077,-1269.7115384615386,-466.5576923076923,5
2024-06-13 20:15:00,0.4899139404,1.218065262,-3.446501732,-7.445967197,-12.00213337,0.0359130241,-810.9116279069767,-810.3209302325581,173.47906976744187,-7954.525581395349,-1240.4697674418603,-396.353488372093,5
2024-06-13 20:15:00,-1.036027431,1.401324868,-1.47707212,-12.81137371,-5.152322292,2.26970315,-735.5627906976745,-778.693023255814,345.10697674418606,-7844.758139534883,-1288.3767441860466,-397.7488372093024,5
2024-06-13 20:15:00,0.6487388611,-0.3738495409,-0.7562511563,-0.2729389966,-14.49689102,-4.833893299,-384.14634146341473,-696.4756097560976,881.2560975609756,-8147.256097560976,-1519.5243902439024,-136.4878048780488,5
2024-06-13 20:15:00,0.6487388611,-0.3738495409,-0.7562511563,-0.2729389966,-14.49689102,-4.833893299,1726.7428571428572,-1795.4095238095238,300.1428571428571,-8216.438095238096,-341.4952380952381,260.5809523809524,5
2024-06-13 20:15:00,0.02199114859,-2.129476309,-0.625526011,-5.252878666,-9.828198433,1.302445769,1128.7184466019417,-1195.6601941747572,696.3883495145631,-7953.223300970873,85.53398058252426,772.3689320388349,5
2024-06-13 20:15:00,0.02199114859,-2.129476309,-0.625526011,-5.252878666,-9.828198433,1.302445769,603.8461538461538,-541.3076923076924,-704.3076923076923,-8156.615384615385,-839.6923076923077,1031.3076923076924,5
2024-06-13 20:15:00,-0.232128799,-1.246165156,0.7819074988,-2.892195702,-10.99178028,0.9864110947,64.58878504672897,-428.1682242990654,-113.52336448598128,-7953.897196261682,-513.981308411215,754.3831775700935,5
2024-06-13 20:15:01,0.5131267905,-0.8063421249,0.3762930036,-0.7374141216,-7.630321026,1.70946002,-586.07,268.92,598.3199999999999,-8169.33,-276.01,744.95,5
2024-06-13 20:15:01,0.5131267905,-0.8063421249,0.3762930036,-0.7374141216,-7.630321026,1.70946002,-1235.1333333333334,-254.8,428.9333333333333,-8364.933333333332,-12.86666666666666,1004.0666666666666,5
2024-06-13 20:15:01,-0.6316346526,0.3396410644,0.1014036313,-4.757278919,-9.715670586,2.30561614,-667.1287128712871,-293.6732673267327,288.1485148514852,-7950.257425742574,14.742574257425744,1687.1584158415842,5
2024-06-13 20:15:01,0.3164281845,-0.09040805697,-0.1722639948,-4.350264549,-8.35097599,0.06464344263,406.3592233009709,1196.883495145631,-402.1650485436893,-7610.26213592233,108.4757281553398,1634.883495145631,5
2024-06-13 20:15:01,0.3164281845,-0.09040805697,-0.1722639948,-4.350264549,-8.35097599,0.06464344263,-450.1764705882353,2482.7843137254904,229.86274509803923,-8361.882352941177,279.2352941176471,938.156862745098,5
2024-06-13 20:15:01,-0.4349360466,0.3176499307,0.6084218025,-2.042253971,-10.75954247,1.889025092,-1790.4423076923076,1621.2788461538462,432.1538461538461,-8411.711538461539,381.8076923076923,322.3173076923077,5
2024-06-13 20:15:01,-0.4349360466,0.3176499307,0.6084218025,-2.042253971,-10.75954247,1.889025092,-1259.9791666666667,-757.6458333333334,-1507.8472222222222,-8519.5625,191.28472222222223,192.875,5
2024-06-13 20:15:01,0.2406809032,0.1857030392,0.2174680233,-3.471592426,-7.122750282,-0.03351882473,-1095.3958333333333,-1059.7291666666667,-1800.9027777777778,-8763.3125,-59.40972222222223,205.375,5
2024-06-13 20:15:01,-0.4190535545,-0.2015855312,-1.193630695,-4.819528103,-8.137891769,-0.09337386489,667.5242718446602,-1229.0388349514562,-3584.766990291262,-7982.650485436893,-1488.0194174757282,788.6601941747573,5
2024-06-13 20:15:01,-0.4190535545,-0.2015855312,-1.193630695,-4.819528103,-8.137891769,-0.09337386489,154.9626168224299,-1410.2056074766356,-3915.261682242991,-8166.177570093458,-1660.4392523364486,620.1028037383178,5
2024-06-13 20:15:02,-0.9456194043,-0.232128799,-0.7379252315,-3.809175014,-11.78904915,0.1436520964,1122.5,674.9117647058823,1343.6470588235295,-7623.264705882353,-1947.9117647058824,1284.9411764705883,5
2024-06-13 20:15:02,0.008552113548,-0.3946189582,0.3249803185,-3.423708439,-10.67574501,-0.6799532771,1004.2571428571428,1278.2,2787.828571428572,-7862.4,-1619.3428571428572,1108.6857142857143,5
2024-06-13 20:15:02,0.5009095073,-0.3738495409,0.1942551434,-2.126051188,-8.140285492,-0.6464344859,-14.490000000000007,1219.03,1880.78,-8246.56,-601.9100000000001,553.78,5
2024-06-13 20:15:02,0.5009095073,-0.3738495409,0.1942551434,-2.126051188,-8.140285492,-0.6464344859,-216.3366336633664,840.3168316831683,134.78217821782178,-8104.772277227723,-584.5742574257425,295.76237623762376,5
2024-06-13 20:15:02,-0.5338962078,0.08307767659,0.08552113175,-0.9576807022,-12.10987186,0.7900865674,82.53465346534654,509.1980198019802,-425.2277227722772,-8242.326732673268,-504.6039603960396,-16.237623762376238,5
2024-06-13 20:15:02,0.02443460934,0.2736676335,0.232128799,-3.153163671,-8.599972725,-0.2226607651,18.776699029126235,737.8349514563107,-426.1844660194175,-8249.902912621359,-498.1747572815534,74.69902912621359,5
2024-06-13 20:15:02,0.02443460934,0.2736676335,0.232128799,-3.153163671,-8.599972725,-0.2226607651,20.96153846153846,549.2884615384615,-488.5288461538461,-8291.673076923076,-679.4807692307693,-328.1826923076923,5
2024-06-13 20:15:02,-0.2883284092,0.2089159191,-0.2797762752,-3.138798475,-9.698910713,-1.853112102,26.03846153846154,343.1538461538462,-850.2692307692307,-8186.384615384615,-1040.076923076923,-307.3076923076923,5
2024-06-13 20:15:02,-0.0293215327,0.106290549,-0.01343903504,-3.56736064,-10.20887566,-1.278503656,-507.0,248.6,-243.2,-7978.3,-1139.1,-324.4,5
2024-06-13 20:15:03,-0.0293215327,0.106290549,-0.01343903504,-3.56736064,-10.20887566,-1.278503656,-584.6078431372549,300.01960784313724,215.45098039215685,-8134.980392156863,-1308.2843137254902,-304.7156862745098,5
2024-06-13 20:15:03,0.2822197378,-0.1295034289,0.0293215327,-2.303221941,-9.148244858,-1.223437071,-1288.68,757.8199999999999,513.5699999999999,-7838.27,-482.5,-462.49,5
2024-06-13 20:15:03,0.2822197378,-0.1295034289,0.0293215327,-2.303221941,-9.148244858,-1.223437071,-5093.461538461539,1147.6923076923076,312.8461538461538,-7750.076923076923,-305.0769230769231,-743.8461538461538,5
2024-06-13 20:15:03,0.1014036313,0.2504547536,0.1148426682,-0.1556231081,-9.090784073,0.0287304204,-5115.604166666667,967.8541666666666,-559.4791666666666,-7892.5,-1096.2916666666667,-805.8333333333334,5
2024-06-13 20:15:03,0.09407325089,1.14231801,-0.3665191531,1.644816518,-9.768342972,0.8236053586,-3827.0,1278.8985507246375,363.2463768115942,-7834.942028985507,-1079.2608695652175,-1099.8260869565215,5
2024-06-13 20:15:03,0.09407325089,1.14231801,-0.3665191531,1.644816518,-9.768342972,0.8236053586,-2574.768421052632,897.8842105263158,1612.7157894736845,-7912.231578947369,-453.4736842105264,-1323.9789473684211,5
2024-06-13 20:15:03,-1.336573124,3.111747503,-0.2040289938,0.3758896589,-10.88404083,-5.695806026,-2360.6285714285714,795.2,2112.4857142857145,-7897.457142857143,-5.657142857142858,-1316.1142857142856,5
2024-06-13 20:15:03,-1.545489073,3.205820799,1.260825872,0.9241618514,-8.358158112,-10.14662647,-83.28282828282829,113.17171717171718,1270.848484848485,-7995.929292929293,1364.8686868686868,-1880.909090909091,5
2024-06-13 20:15:03,-1.545489073,3.205820799,1.260825872,0.9241618514,-8.358158112,-10.14662647,3065.733333333333,-1225.6666666666667,-1082.2,-7986.4,1430.8666666666666,-2108.266666666667,5
2024-06-13 20:15:03,2.431243658,0.7464773059,2.167349815,-1.434126854,-8.717288017,-4.929661274,2920.106796116505,-2069.145631067961,-1693.2135922330096,-7878.553398058252,1457.3592233009708,-2088.854368932039,5
2024-06-13 20:15:04,2.431243658,0.7464773059,2.167349815,-1.434126854,-8.717288017,-4.929661274,1946.196261682243,-1773.252336448598,-1933.317757009345,-7836.579439252337,71.92523364485982,-899.9065420560747,5
2024-06-13 20:15:04,2.657263756,-0.6426302195,-0.8185594082,-3.974374771,-3.536235809,-1.019929886,2116.353535353536,-1753.1616161616162,-1427.5454545454545,-7901.515151515152,-681.969696969697,-291.77777777777777,5
2024-06-13 20:15:04,-1.236391306,0.05131268129,0.1270599663,-3.05021286,-10.54166985,1.546654344,2201.8058252427186,-2047.8252427184464,-1611.223300970874,-7889.776699029127,-963.0388349514564,175.0873786407767,5
2024-06-13 20:15:04,-1.236391306,0.05131268129,0.1270599663,-3.05021286,-10.54166985,1.546654344,2421.6,-1198.2666666666669,-678.0571428571428,-7825.695238095238,-1280.9619047619049,1029.8666666666666,5
2024-06-13 20:15:04,0.07452555746,-1.018923283,-0.04031710699,-1.422155857,-11.08994198,2.070984364,2001.6,-1111.6,-580.9142857142857,-7810.457142857143,-1579.057142857143,923.2,5
2024-06-13 20:15:04,1.273043156,-0.3750712574,0.0720821023,-0.8499416113,-10.6206789,1.764526606,1732.076923076923,-260.1538461538462,567.8461538461538,-8216.307692307691,-1563.8461538461538,964.4615384615385,5
2024-06-13 20:15:04,1.273043156,-0.3750712574,0.0720821023,-0.8499416113,-10.6206789,1.764526606,2156.8,-212.66666666666663,1006.2666666666668,-8199.0,-1244.9333333333334,1003.5333333333332,5
2024-06-13 20:15:04,-0.1441642046,-0.6365215778,0.006108652335,0.08140286058,-9.943120003,2.351106167,2293.1666666666665,39.0,1477.0,-8136.833333333333,-341.16666666666663,1061.0,5
2024-06-13 20:15:04,-0.1441642046,-0.6365215778,0.006108652335,0.08140286058,-9.943120003,2.351106167,1366.9417475728155,-53.300970873786405,338.8543689320388,-7896.26213592233,304.0194174757281,1024.3009708737864,5
2024-06-13 20:15:04,0.8955284357,-0.1832595766,-0.05986479297,1.175553083,-9.674968719,4.718971729,313.22222222222223,9.828282828282829,-2386.434343434344,-8170.69696969697,-1217.292929292929,1326.7474747474748,5
2024-06-13 20:15:05,0.8894197941,1.253495455,-0.2541199327,0.3112462163,-9.864110947,5.202600479,-865.9519230769231,400.09615384615387,-1967.4615384615383,-8221.163461538461,-1288.2211538461538,859.5576923076924,5
2024-06-13 20:15:05,0.8894197941,1.253495455,-0.2541199327,0.3112462163,-9.864110947,5.202600479,-1067.3846153846157,421.0769230769231,-241.53846153846155,-8273.846153846154,-1416.4807692307693,693.1538461538462,5
2024-06-13 20:15:05,-4.590041637,1.793500304,-0.02687807009,-1.343147159,-7.570465565,-1.223437071,-929.2,215.4,585.6,-8116.0,-1261.4,674.0,5
2024-06-13 20:15:05,-3.543018341,1.760513663,-0.3738495409,-0.7302315235,-9.813833237,-5.789179802,-949.0370370370372,345.2962962962963,262.81481481481484,-7972.37037037037,-1189.7777777777778,721.0,5
2024-06-13 20:15:05,-3.543018341,1.760513663,-0.3738495409,-0.7302315235,-9.813833237,-5.789179802,-530.060606060606,163.87878787878788,94.03030303030305,-8204.09090909091,-1598.6666666666667,720.8484848484849,5
2024-06-13 20:15:05,-0.1514945775,0.009773843922,-0.7049384713,1.175553083,-8.03494072,-6.909666061,-782.0380952380953,150.4,53.32380952380952,-8240.6,-1571.647619047619,867.552380952381,5
2024-06-13 20:15:05,-0.1514945775,0.009773843922,-0.7049384713,1.175553083,-8.03494072,-6.909666061,-984.9607843137256,74.34313725490196,760.9313725490196,-8206.598039215687,-1296.6176470588234,729.7843137254902,5
2024-06-13 20:15:05,-0.4740314186,0.6963863969,0.06597344577,1.343147159,-8.508993149,-6.689399719,-620.3831775700935,-29.8785046728972,742.5514018691589,-8100.766355140186,-1279.271028037383,808.7009345794393,5
2024-06-13 20:15:05,0.3885102868,0.1820378453,0.0354301855,1.216254473,-7.934384346,-6.282385349,201.10891089108912,340.5643564356436,566.5940594059406,-7881.257425742574,-363.0990099009901,1026.019801980198,5
2024-06-13 20:15:05,0.3885102868,0.1820378453,0.0354301855,1.216254473,-7.934384346,-6.282385349,-736.6565656565656,1613.939393939394,1838.040404040404,-8213.444444444445,278.82828282828285,409.4040404040404,5
2024-06-13 20:15:06,0.2235766798,-0.06841690838,0.4153883755,2.391807556,-7.326257229,-6.222530365,-2428.4326923076924,1681.951923076923,2689.0576923076924,-8111.692307692308,225.21153846153845,23.45192307692308,5
2024-06-13 20:15:06,0.2370157093,-0.08429940045,0.1246165112,2.683900118,-7.405265808,-5.370194435,-4095.663461538461,746.4038461538462,-2264.721153846154,-8464.942307692309,727.8846153846154,-751.6153846153846,5
2024-06-13 20:15:06,0.2370157093,-0.08429940045,0.1246165112,2.683900118,-7.405265808,-5.370194435,-3014.607843137255,-433.7058823529412,-2763.2156862745096,-8440.529411764706,289.7647058823529,-368.7450980392157,5
2024-06-13 20:15:06,0.09896016866,0.1759291887,0.009773843922,2.518700123,-9.325415611,-4.79079771,904.8857142857142,-1103.0285714285717,-3014.6285714285714,-7835.514285714285,-1176.5428571428572,851.2571428571429,5
2024-06-13 20:15:06,0.09896016866,0.1759291887,0.009773843922,2.518700123,-9.325415611,-4.79079771,971.0,-557.5,-2922.0,-8051.0,-1555.5,782.5,5
2024-06-13 20:15:06,0.2003637999,0.338419348,0.1343903542,1.44849205,-8.757989883,-5.123591423,-56.20792079207922,-1092.1683168316831,-1958.7128712871288,-7835.534653465346,-2100.792079207921,507.74257425742576,5
2024-06-13 20:15:06,0.3200933933,0.04031710699,0.3652974069,2.298433542,-8.334216118,-4.426878929,-790.3980582524272,-642.6990291262136,2015.3592233009708,-8214.95145631068,-1986.2330097087377,877.9417475728155,5
2024-06-13 20:15:06,0.3200933933,0.04031710699,0.3652974069,2.298433542,-8.334216118,-4.426878929,-503.0190476190476,181.847619047619,3581.847619047619,-8034.133333333333,-1241.2380952380952,1014.552380952381,5
2024-06-13 20:15:06,-2.273640394,0.2015855312,1.805717707,1.443703651,-9.337387085,-8.157045364,-278.2190476190476,295.7047619047619,930.095238095238,-8171.761904761905,-0.8190476190476375,562.8,5
2024-06-13 20:15:06,6.952867985,-1.788613439,1.306029916,-2.466027737,-10.9295311,-10.67813969,41.986577181208055,-148.36241610738256,-254.4295302013423,-8105.724832214765,-383.489932885906,667.1879194630873,5
2024-06-13 20:15:07,6.952867985,-1.788613439,1.306029916,-2.466027737,-10.9295311,-10.67813969,187.25925925925927,-275.7037037037037,-299.7407407407408,-8220.444444444445,-687.1481481481482,802.6296296296297,5
2024-06-13 20:15:07,3.40740633,-2.021964073,0.432492584,0.2873041928,-2.025494576,3.411737442,7.233644859813097,-36.79439252336448,-123.01869158878505,-8071.448598130841,-575.4953271028037,757.4485981308411,5
2024-06-13 20:15:07,3.40740633,-2.021964073,0.432492584,0.2873041928,-2.025494576,3.411737442,420.19417475728153,182.6504854368932,-236.0388349514563,-7924.077669902913,-1004.2815533980582,1185.9029126213593,5
2024-06-13 20:15:07,-1.25838244,-0.7757988572,0.1783726513,0.1699883193,-10.51772785,8.535328865,1843.0192307692307,2396.826923076923,-3229.894230769231,-7925.75,-980.625,887.5384615384615,5
2024-06-13 20:15:07,-0.09407325089,-0.7147123218,-0.02076941915,1.237802267,-6.339846134,8.101978302,717.8235294117648,2190.921568627451,-822.1372549019609,-8264.470588235294,-952.8235294117646,531.6470588235294,5
2024-06-13 20:15:07,-0.09407325089,-0.7147123218,-0.02076941915,1.237802267,-6.339846134,8.101978302,1617.3980582524273,4004.864077669903,-665.0679611650485,-7066.349514563107,-2080.252427184466,-258.4174757281553,5
2024-06-13 20:15:07,-0.3127630055,0.01466076635,-0.05009094998,0.3016694188,-6.713341713,6.196194172,-442.2476190476191,4768.990476190476,-556.9904761904762,-8728.752380952381,-1104.4761904761904,-2548.6285714285714,5
2024-06-13 20:15:07,-0.8515461683,0.2528982162,-0.09529497474,0.3112462163,-7.465120792,6.847416878,-974.6285714285714,4048.5142857142855,-386.5142857142857,-8696.371428571429,-1078.2857142857142,-2650.057142857143,5
2024-06-13 20:15:07,-0.8515461683,0.2528982162,-0.09529497474,0.3112462163,-7.465120792,6.847416878,-2212.645833333333,-2061.6979166666665,-665.3645833333333,-8325.708333333334,-1456.1666666666667,-2954.40625,5
2024-06-13 20:15:07,-0.145385921,0.4239404798,-0.6780604124,1.620874524,-9.402029991,7.10599041,168.5,-4961.846153846154,-1154.2884615384614,-7500.634615384615,-2069.153846153846,-949.0576923076924,5
2024-06-13 20:15:08,-0.145385921,0.4239404798,-0.6780604124,1.620874524,-9.402029991,7.10599041,557.0792079207921,-1889.2574257425745,-156.65346534653466,-7671.663366336634,-2676.386138613861,792.5148514851485,5
2024-06-13 20:15:08,-2.335948706,2.219884396,0.3750712574,0.7134721279,-11.15458584,4.800374508,729.5825242718447,-403.7087378640777,1384.5728155339807,-7819.165048543689,-1934.106796116505,1040.26213592233,5
2024-06-13 20:15:08,-2.489886761,1.103222609,0.8698720932,-2.647987127,-6.375759125,-0.4429273009,-64.0,1078.5384615384614,3675.538461538461,-8233.923076923076,-1062.7692307692307,861.8461538461538,5
2024-06-13 20:15:08,-2.489886761,1.103222609,0.8698720932,-2.647987127,-6.375759125,-0.4429273009,39.67307692307692,960.0,1949.5961538461536,-7962.5,-655.3653846153846,757.3076923076923,5
2024-06-13 20:15:08,-1.624901533,0.5204572082,-1.40743351,2.296039343,-10.45308495,-3.964797974,-1050.9126213592233,573.6407766990292,355.58252427184465,-8077.864077669903,-394.6601941747573,196.5145631067961,5
2024-06-13 20:15:08,0.2809980214,-0.37751472,-0.9798278809,-0.9696516991,-9.296685219,-1.426944256,-205.0,65.63461538461539,-129.75,-8075.009615384615,-850.3076923076923,544.5576923076923,5
2024-06-13 20:15:08,0.08307767659,-0.3371976018,-0.4667010605,0.5506663918,-10.31900978,-3.438073635,472.46153846153845,50.40384615384615,5.557692307692307,-8227.23076923077,-1073.0,449.0384615384616,5
2024-06-13 20:15:08,0.08307767659,-0.3371976018,-0.4667010605,0.5506663918,-10.31900978,-3.438073635,2506.55,875.46,-871.87,-7849.54,-1386.96,609.28,5
2024-06-13 20:15:08,0.04764748737,-0.342084527,0.07452555746,2.051830769,-9.315838814,-3.098097086,1976.7272727272727,2016.428571428572,-149.51298701298705,-8066.441558441558,-472.2597402597403,179.3051948051948,5
2024-06-13 20:15:09,0.09040805697,-0.1246165112,0.2785545588,1.786074519,-10.18493366,-2.580949545,-1031.188679245283,1635.2075471698113,1518.754716981132,-8788.943396226416,-325.8490566037736,-687.433962264151,5
2024-06-13 20:15:09,0.09040805697,-0.1246165112,0.2785545588,1.786074519,-10.18493366,-2.580949545,-1439.079207920792,-2743.5544554455446,-2683.712871287129,-8414.168316831683,271.990099009901,-1097.1584158415842,5
2024-06-13 20:15:09,0.1209513173,0.5094616413,0.3714060783,0.1604115069,-8.635885239,-2.540247917,-205.7920792079208,-911.0297029702972,-3920.267326732673,-7644.653465346535,-2832.19801980198,619.1386138613861,5
2024-06-13 20:15:09,-0.1832595766,0.2675589919,-0.1331686229,0.3758896589,-9.03571701,-4.465186119,364.9134615384616,568.6153846153846,-922.4519230769232,-7882.163461538462,-2669.125,584.9903846153846,5
2024-06-13 20:15:09,-0.1832595766,0.2675589919,-0.1331686229,0.3758896589,-9.03571701,-4.465186119,-19.465346534653463,999.5049504950496,4111.465346534654,-8035.752475247525,-1427.7623762376238,-182.4851485148515,5
2024-06-13 20:15:09,-0.05619960278,-0.1881465018,-0.3310889602,-0.1556231081,-9.868899345,-3.16034627,-263.3669724770642,962.5412844036696,3847.605504587156,-8291.02752293578,-896.2018348623853,-291.38532110091745,5
2024-06-13 20:15:09,-0.05619960278,-0.1881465018,-0.3310889602,-0.1556231081,-9.868899345,-3.16034627,-281.34653465346537,99.73267326732672,135.07920792079207,-8241.613861386139,-628.8217821782179,50.45544554455446,5
2024-06-13 20:15:09,0.08552113175,-0.342084527,0.1307251602,0.4477157295,-9.562441826,-2.559401512,56.85714285714286,24.28571428571429,288.0,-8250.42857142857,-624.4285714285714,70.28571428571429,5
2024-06-13 20:15:09,0.05497787148,-0.3518583775,0.06230825558,1.197100878,-9.842563629,-2.86107111,-292.5980392156863,160.26470588235293,-250.6960784313725,-8216.343137254902,-531.3725490196078,104.7843137254902,5
2024-06-13 20:15:09,0.05497787148,-0.3518583775,0.06230825558,1.197100878,-9.842563629,-2.86107111,-226.54368932038835,152.40776699029126,-464.3203883495146,-8250.52427184466,-444.8252427184466,58.15533980582524,5
2024-06-13 20:15:10,0.4031710625,-0.1136209369,0.290771842,1.034295082,-9.404424667,-2.281674147,-208.6504854368932,-48.92233009708738,56.883495145631066,-8306.757281553399,-590.7281553398059,57.00970873786408,5
2024-06-13 20:15:10,-0.1356120855,0.3677408695,0.6792821288,-0.0023942017,-10.32379818,-3.076549292,-261.921568627451,16.45098039215686,-323.1372549019608,-8070.078431372549,-812.6470588235294,66.17647058823529,5
2024-06-13 20:15:10,-0.1356120855,0.3677408695,0.6792821288,-0.0023942017,-10.32379818,-3.076549292,-279.4036697247706,34.798165137614674,-454.48623853211006,-8118.669724770642,-825.8256880733945,63.522935779816514,5
2024-06-13 20:15:10,0.1038470939,0.2944370508,0.9297369123,-1.455674648,-8.973467827,-3.325546265,-254.27777777777777,173.38888888888889,29.33333333333333,-7993.0,-764.3888888888889,-343.0,5
2024-06-13 20:15:10,0.1038470939,0.2944370508,0.9297369123,-1.455674648,-8.973467827,-3.325546265,-397.16037735849056,1256.132075471698,19.632075471698112,-7720.16037735849,-637.7830188679245,-1104.6509433962265,5
2024-06-13 20:15:10,0.07574728876,0.06841690838,0.5106833577,-2.470816135,-8.990227699,-3.399766445,-911.6762589928056,315.9208633093525,553.9136690647482,-8485.309352517985,-1062.7985611510792,-943.6546762589928,5
2024-06-13 20:15:10,-0.04642575979,-0.01954768784,0.6658431292,-4.000710964,-7.493851185,-3.584120035,-978.5827338129496,138.94244604316546,451.7553956834532,-8468.043165467627,-1057.7625899280577,-1035.021582733813,5
