Timestamp,Gyro_x_x,Gyro_y_x,Gyro_z_x,Acc_x_x,Acc_y_x,Acc_z_x,Gyro_x_y,Gyro_y_y,Gyro_z_y,Acc_x_y,Acc_y_y,Acc_z_y,combined_action_num
2024-06-13 19:43:04,-0.007330383174,-0.0171042271,-0.09896016866,0.2801215947,-2.71502471,9.44512558,-5.045454545454561,124.9090909090909,-326.27272727272725,-8155.772727272727,1042.7727272727273,-738.5454545454545,0
2024-06-13 19:43:04,0.1588249654,0.1246165112,0.06352998316,0.1675941199,-2.284068346,9.574412346,-95.3913043478261,-372.6195652173913,-317.97826086956525,-7851.369565217391,1047.054347826087,-666.7173913043479,0
2024-06-13 19:43:04,0.00244346098,0.1221730486,0.01588249579,-0.2346317619,-2.296039343,9.696516991,-0.678160919540229,-349.367816091954,-166.95402298850576,-7869.287356321839,669.7241379310345,-822.080459770115,0
2024-06-13 19:43:04,0.00244346098,0.1221730486,0.01588249579,-0.2346317619,-2.296039343,9.696516991,-339.6268656716418,-310.82089552238807,-335.179104477612,-7890.044776119403,651.8656716417911,-492.97014925373134,0
2024-06-13 19:43:04,-0.1197295859,-0.06719517708,0.04520402849,-0.0023942017,-2.45166254,9.56004715,-359.77611940298505,-326.4925373134328,-169.50746268656715,-7873.626865671642,651.1194029850747,-470.5820895522388,0
2024-06-13 19:43:04,-0.1343903542,0.006108652335,-0.02565634064,0.1556231081,-2.092532396,9.495404243,-759.6704545454545,15.045454545454549,-802.2840909090909,-8027.397727272727,638.3409090909091,-476.9318181818182,0
2024-06-13 19:43:04,-0.1343903542,0.006108652335,-0.02565634064,0.1556231081,-2.092532396,9.495404243,-589.0112359550562,-385.7752808988764,-607.685393258427,-8245.157303370786,621.0112359550562,-384.13483146067415,0
2024-06-13 19:43:04,0.01588249579,0.04520402849,-0.02809980139,-0.1388636976,-2.56897831,9.572018623,-481.0472972972973,-162.30405405405406,-479.72297297297297,-7842.472972972973,590.527027027027,-532.5608108108108,0
2024-06-13 19:43:04,0.01588249579,0.04520402849,-0.02809980139,-0.1388636976,-2.56897831,9.572018623,-543.4188034188035,288.7606837606838,-257.9230769230769,-8217.837606837607,534.4529914529915,-540.7948717948718,0
2024-06-13 19:43:05,-0.02443460934,0.009773843922,0.006108652335,-0.1005564705,-2.597708941,9.56004715,-16.354838709677438,84.3225806451613,-312.4516129032258,-8288.709677419354,515.0,-548.1612903225806,0
2024-06-13 19:43:05,-0.02443460934,0.00244346098,-0.00122173049,-0.1149216816,-2.49236393,9.591172218,-291.2857142857143,117.28571428571428,-378.6547619047619,-8208.297619047618,279.4642857142857,-135.28571428571428,0
2024-06-13 19:43:05,-0.02443460934,0.00244346098,-0.00122173049,-0.1149216816,-2.49236393,9.591172218,329.3103448275862,-125.79310344827586,25.908045977011493,-8207.931034482759,333.0344827586207,-241.5287356321839,0
2024-06-13 19:43:05,0.01832595654,0.0232128799,-0.02076941915,-0.1029506698,-2.71263051,9.572018623,20.77777777777777,-47.12222222222222,-16.1,-8228.622222222222,323.0444444444444,-473.9888888888889,0
2024-06-13 19:43:05,0.01832595654,0.0232128799,-0.02076941915,-0.1221042871,-2.609679937,9.564835548,-204.2558139534884,54.325581395348834,-69.69767441860465,-7926.53488372093,356.4418604651163,-196.7674418604651,0
2024-06-13 19:43:05,-0.04031710699,0.00122173049,-0.00244346098,-0.1221042871,-2.609679937,9.564835548,-172.77272727272728,179.0,-45.15909090909091,-8067.272727272727,291.22727272727275,-547.7272727272727,0
2024-06-13 19:43:05,-0.04642575979,0.0109955743,0.006108652335,-0.2082955539,-2.645592928,9.653421402,-151.4494382022472,179.2696629213483,-10.168539325842696,-8258.41573033708,536.8089887640449,-568.7528089887641,0
2024-06-13 19:43:05,-0.04642575979,0.0109955743,0.006108652335,-0.2082955539,-2.645592928,9.653421402,-285.1034482758621,238.86206896551724,206.41379310344828,-7932.586206896552,193.27586206896552,-555.8965517241379,0
2024-06-13 19:43:05,0.02076941915,-0.003665191587,-0.01466076635,-0.1508347094,-2.705447912,9.579200745,429.4285714285714,291.967032967033,519.934065934066,-8178.637362637362,212.3956043956044,-602.934065934066,0
2024-06-13 19:43:05,0.00122173049,-0.02809980139,-0.02565634064,-0.04548983276,-2.497152328,9.531316757,532.0930232558139,68.88372093023256,319.43023255813955,-7943.03488372093,424.4651162790698,-429.4418604651163,0
2024-06-13 19:43:06,0.00122173049,-0.02809980139,-0.02565634064,-0.04548983276,-2.497152328,9.531316757,125.76666666666664,-94.23333333333332,306.3666666666667,-7898.055555555556,775.8222222222222,-412.8444444444444,0
2024-06-13 19:43:06,0.02687807009,-0.1221730486,0.01343903504,-0.1125274822,-2.691082716,9.605537415,23.166666666666668,89.41333333333333,-86.04666666666667,-8274.286666666667,471.9933333333333,-403.94666666666666,0
2024-06-13 19:43:06,0.2309070677,-0.2247984111,0.522900641,0.9313444495,-4.067748547,9.141061783,-292.2,-25.40000000000001,65.6,-7906.2,400.2,-540.8,0
2024-06-13 19:43:06,0.2309070677,-0.2247984111,0.522900641,0.9313444495,-4.067748547,9.141061783,71.54545454545455,333.6363636363636,284.3181818181818,-8246.5,426.1818181818182,-401.3636363636364,0
2024-06-13 19:43:06,-0.5351179838,0.02076941915,0.09285151958,-0.1460463107,-2.671929121,9.684545517,-273.0,7.092307692307692,-70.0,-7895.553846153846,845.5692307692308,-593.6769230769231,0
2024-06-13 19:43:06,-0.5351179838,0.02076941915,0.09285151958,-0.1460463107,-2.671929121,9.684545517,-139.66666666666666,58.66666666666666,-46.83333333333333,-7928.333333333333,821.1666666666666,-534.3333333333334,0
2024-06-13 19:43:06,-0.7745771408,0.287106663,-0.08063421398,0.1556231081,-3.888183594,9.469067574,-315.3076923076923,70.25274725274726,53.18681318681319,-8222.307692307691,484.1098901098901,-555.6043956043956,0
2024-06-13 19:43:06,0.2883284092,0.05009094998,0.00122173049,0.0718260482,-2.396595955,9.591172218,-51.62962962962963,42.15873015873016,69.29100529100529,-7889.26455026455,507.8095238095238,-571.5449735449736,0
2024-06-13 19:43:06,0.2883284092,0.05009094998,0.00122173049,0.0718260482,-2.396595955,9.591172218,-225.7037037037037,96.12698412698413,68.23280423280423,-7879.21164021164,503.04761904761904,-576.8359788359788,0
2024-06-13 19:43:06,0.05497787148,0.0,-0.0109955743,-0.009576806799,-2.557007313,9.447520256,-301.2368421052632,-108.02631578947368,84.0,-7922.184210526316,479.7894736842105,-585.7894736842105,0
2024-06-13 19:43:07,0.05497787148,0.0,-0.0109955743,-0.08858546615,-2.705447912,9.59835434,97.63636363636364,-89.9090909090909,-94.36363636363636,-8203.454545454546,536.3636363636364,-600.2727272727273,0
2024-06-13 19:43:07,0.03420845419,0.006108652335,-0.01588249579,-0.08858546615,-2.705447912,9.59835434,-343.060773480663,40.48066298342542,-56.40331491712707,-8167.657458563536,843.4917127071823,-525.1988950276243,0
2024-06-13 19:43:07,-0.004886921961,-0.00122173049,-0.01466076635,-0.06703764945,-2.71502471,9.634267807,-227.59116022099448,27.22099447513812,-90.1049723756906,-8018.486187845304,809.2375690607735,-347.29834254143645,0
2024-06-13 19:43:07,-0.004886921961,-0.00122173049,-0.01466076635,-0.06703764945,-2.71502471,9.634267807,71.74074074074073,-73.87654320987654,-39.80246913580247,-8261.407407407407,797.5555555555555,-573.1481481481482,0
2024-06-13 19:43:07,-0.02076941915,-0.009773843922,-0.0354301855,0.03830722719,-2.913743496,9.543288231,-135.84782608695653,-0.9565217391304373,-190.95652173913044,-8061.608695652174,771.3478260869565,-572.8260869565217,0
2024-06-13 19:43:07,-0.1563815027,0.08674286306,-0.02076941915,-0.01675941236,-3.016694069,9.442731857,-123.64285714285714,-150.96428571428572,-293.5238095238095,-8036.607142857143,487.79761904761904,-211.5952380952381,0
2024-06-13 19:43:07,-0.1563815027,0.08674286306,-0.02076941915,-0.01675941236,-3.016694069,9.442731857,-214.3068181818182,155.38636363636363,-23.125,-7893.943181818182,799.6022727272727,-583.7272727272727,0
2024-06-13 19:43:07,0.2638937831,-0.2528982162,-0.1087340117,-0.3519476354,-0.6871358752,9.191340446,-21.27777777777777,48.477777777777774,82.84444444444445,-8221.833333333334,790.3222222222222,-536.6777777777778,0
2024-06-13 19:43:07,0.1832595766,0.141720742,-0.03665191308,-0.4979939461,-3.497928619,9.753977776,-179.82608695652175,309.8550724637681,93.43478260869566,-8166.057971014493,684.7391304347826,-472.6811594202899,0
2024-06-13 19:43:08,-0.196698606,0.2443460971,-0.1246165112,-0.720654726,-3.588908434,9.437943459,-308.0659340659341,19.362637362637365,-303.35164835164835,-7912.351648351649,412.9120879120879,-162.35164835164835,0
2024-06-13 19:43:08,-0.196698606,0.2443460971,-0.1246165112,-0.720654726,-3.588908434,9.437943459,-308.314606741573,325.9438202247191,-29.247191011235955,-7892.202247191011,434.0337078651685,-566.561797752809,0
2024-06-13 19:43:08,0.1991420686,-0.2700024247,-0.02687807009,-1.149216771,-3.600879431,9.84974575,-343.6027397260274,26.075342465753423,287.986301369863,-8294.452054794521,576.554794520548,-574.2465753424658,0
2024-06-13 19:43:08,-0.3115412891,0.2076941878,0.2223549485,-1.259350061,-4.673481941,9.62469101,-264.1506849315068,-308.85616438356163,185.2465753424657,-8284.86301369863,837.513698630137,-523.5616438356165,0
2024-06-13 19:43:08,-0.3115412891,0.2076941878,0.2223549485,-1.259350061,-4.673481941,9.62469101,-178.6551724137931,109.20689655172411,55.86206896551724,-8315.034482758621,784.2413793103449,-251.6551724137931,0
2024-06-13 19:43:08,0.1356120855,0.3005456924,0.338419348,-0.1915361285,-3.435679436,9.33020401,-344.40425531914894,83.59574468085106,-57.67021276595744,-7923.255319148936,688.7127659574468,-597.3936170212766,0
2024-06-13 19:43:08,-0.02443460934,0.006108652335,-0.1026253626,-0.3064578176,-2.954444885,9.512163162,-25.771084337349407,-92.9156626506024,61.2289156626506,-7950.879518072289,850.3734939759036,-566.0481927710844,0
2024-06-13 19:43:08,-0.0720821023,-0.05742133409,-0.03298672289,-0.3711012602,-3.11964488,9.440337181,-244.80645161290323,-75.64516129032258,-31.903225806451616,-8176.032258064516,670.741935483871,-457.1612903225807,0
2024-06-13 19:43:08,-0.0720821023,-0.05742133409,-0.03298672289,-0.3711012602,-3.11964488,9.440337181,-254.5813953488372,-3.1744186046511627,16.41860465116279,-7896.709302325581,451.7906976744186,-595.4883720930233,0
2024-06-13 19:43:09,0.235793978,-0.3396410644,0.05253441259,-0.9337386489,-3.830722809,9.931148529,-72.68539325842697,-38.61797752808989,115.62921348314607,-7916.494382022472,787.7303370786517,-425.13483146067415,0
2024-06-13 19:43:09,-0.1869247705,0.1918116808,0.3310889602,-0.3256114423,-2.889801502,9.622296333,-322.93023255813955,-22.97674418604651,121.44186046511628,-7911.906976744186,824.9069767441861,-441.1162790697674,0
2024-06-13 19:43:09,-0.1869247705,0.1918116808,0.3310889602,-0.3256114423,-2.889801502,9.622296333,-53.31034482758622,-40.93103448275862,95.24137931034484,-7904.068965517241,833.3103448275862,-457.44827586206895,0
2024-06-13 19:43:09,0.0109955743,0.1295034289,0.1209513173,-0.9097966552,-3.562572241,9.533711433,-315.36559139784947,60.41935483870968,86.95698924731182,-7926.225806451613,862.0860215053764,-447.5268817204301,0
2024-06-13 19:43:09,0.0109955743,0.1295034289,0.1209513173,0.01675941236,-3.172317266,9.157821655,-299.2133333333333,-119.07333333333334,50.36666666666667,-7883.366666666667,865.1,-621.5333333333333,0
2024-06-13 19:43:09,0.05253441259,0.1857030392,0.2761110961,0.01675941236,-3.172317266,9.157821655,-282.93333333333334,-96.13333333333333,46.66666666666666,-7879.666666666667,854.0,-636.3333333333334,0
2024-06-13 19:43:09,-0.07819075137,0.05497787148,-0.08063421398,-0.4525041282,-3.469198227,9.315838814,-182.8314606741573,17.044943820224717,-38.943820224719104,-8203.247191011236,839.5168539325842,-436.4269662921348,0
2024-06-13 19:43:09,-0.07819075137,0.05497787148,-0.08063421398,-0.4525041282,-3.469198227,9.315838814,-278.6818181818182,-21.204545454545453,-61.65909090909091,-7859.25,817.8409090909091,-581.9545454545455,0
2024-06-13 19:43:09,0.04276056588,-0.0109955743,-0.004886921961,-0.3184288144,-3.325546265,9.308655739,-21.40816326530613,330.51020408163265,-53.10204081632653,-8230.469387755102,883.8979591836735,-472.0816326530612,0
2024-06-13 19:43:10,-0.1795943826,-0.06597344577,-0.05497787148,-0.9313444495,-3.763684988,9.627084732,-257.8333333333333,-180.0,-320.93333333333334,-7867.166666666667,758.4333333333333,-618.8333333333334,0
2024-06-13 19:43:10,-0.1795943826,-0.06597344577,-0.05497787148,-0.9313444495,-3.763684988,9.627084732,-70.92045454545455,-51.56818181818182,-0.0340909090909065,-8046.784090909091,788.9204545454545,-586.5340909090909,0
2024-06-13 19:43:10,0.1991420686,0.006108652335,0.1563815027,-0.624886632,-4.441244125,10.42674828,54.651685393258425,-76.59550561797752,-197.30337078651684,-8063.426966292135,820.3932584269663,-600.5730337078652,0
2024-06-13 19:43:10,-0.01954768784,0.004886921961,-0.0171042271,2.561795712,-1.848323703,8.540117264,-337.90909090909093,-23.545454545454547,-109.36363636363636,-7912.545454545455,826.5454545454545,-524.9090909090909,0
2024-06-13 19:43:10,-0.01954768784,0.004886921961,-0.0171042271,2.561795712,-1.848323703,8.540117264,-284.6363636363636,-26.727272727272727,-74.72727272727273,-8040.272727272727,816.9090909090909,-448.1818181818182,0
2024-06-13 19:43:10,-0.5632177591,0.06963863969,-0.2638937831,-0.4046200812,-3.892971992,9.59835434,-257.7586206896552,-79.17241379310344,-335.7241379310345,-7844.724137931034,462.44827586206895,-609.2413793103449,0
2024-06-13 19:43:10,-0.5632177591,0.06963863969,-0.2638937831,-0.4046200812,-3.892971992,9.59835434,-97.4090909090909,158.26136363636363,-234.9090909090909,-8038.931818181818,628.2840909090909,-564.9659090909091,0
2024-06-13 19:43:10,-0.7696902156,0.5876523852,0.4618141353,0.3256114423,-4.941632271,8.42759037,56.53333333333333,227.86666666666667,82.04444444444445,-8230.2,828.2222222222222,-482.6444444444445,0
2024-06-13 19:43:10,0.04276056588,0.04031710699,-0.2260201424,-0.9145850539,-3.663128614,9.17697525,-272.6043956043956,26.230769230769223,79.93406593406593,-7871.351648351649,858.5824175824176,-515.1098901098901,0
2024-06-13 19:43:10,0.04276056588,0.04031710699,-0.2260201424,-0.9145850539,-3.663128614,9.17697525,244.1358024691358,-91.80246913580248,93.4814814814815,-8074.518518518518,854.3456790123457,-474.58024691358025,0
2024-06-13 19:43:10,0.1869247705,0.2076941878,-0.02809980139,-1.884236693,-3.938461781,9.174580574,-182.04651162790697,-119.6046511627907,103.7906976744186,-8074.744186046511,1077.7906976744189,-415.3953488372093,0
2024-06-13 19:43:11,0.1869247705,0.2076941878,-0.02809980139,-1.884236693,-3.938461781,9.174580574,-456.3369565217391,-305.9021739130435,15.673913043478263,-8032.25,1053.3804347826087,-494.3369565217391,0
2024-06-13 19:43:11,-0.01343903504,-0.00122173049,0.1685988009,-0.4932055473,-3.033453465,8.947132111,-22.10526315789474,211.49624060150376,-35.30075187969925,-8046.203007518797,1066.796992481203,-406.9624060150376,0
2024-06-13 19:43:11,0.6291912198,-0.6462954283,0.06963863969,-1.103726983,-1.326387763,9.653421402,10.0,-32.0,-185.0,-8080.5,1127.0,-511.5,0
2024-06-13 19:43:11,0.6291912198,-0.6462954283,0.06963863969,-1.103726983,-1.326387763,9.653421402,-506.2,-51.39999999999998,-156.06666666666666,-7859.733333333334,866.4666666666667,-542.6,0
2024-06-13 19:43:11,-0.1918116808,0.006108652335,0.06841690838,-1.146822572,-3.514688015,9.47146225,62.18181818181819,303.42045454545456,-275.10227272727275,-8201.920454545454,795.7045454545455,-597.7045454545455,0
2024-06-13 19:43:11,0.5510004759,-0.1466076523,0.2247984111,-0.8619126081,-3.445256233,8.621520042,-205.53691275167785,-31.10738255033557,-86.44295302013424,-7910.080536912752,876.6577181208054,-395.7919463087249,0
2024-06-13 19:43:11,0.5510004759,-0.1466076523,0.2247984111,-0.8619126081,-3.445256233,8.621520042,-316.88439306358384,242.9306358381503,-120.82658959537572,-7916.057803468208,653.5780346820809,-453.5780346820809,0
2024-06-13 19:43:11,0.109955743,0.02687807009,0.04398229718,-1.752555609,-2.41335535,9.59835434,-315.728323699422,82.23699421965318,-119.09248554913296,-7916.635838150289,659.3583815028902,-459.35838150289015,0
2024-06-13 19:43:11,0.109955743,0.02687807009,0.04398229718,-1.113303781,-3.390189648,9.40681839,-258.710843373494,-336.8192771084337,162.7831325301205,-7917.518072289156,718.4819277108434,-427.93975903614455,0
2024-06-13 19:43:11,-0.2528982162,0.141720742,-0.1441642046,-1.113303781,-3.390189648,9.40681839,-295.64772727272725,-327.125,-90.75,-7890.727272727273,712.7954545454545,-609.3181818181819,0
2024-06-13 19:43:12,-0.283441484,0.01466076635,-0.1246165112,-0.8379706144,-4.199429989,9.054870605,38.4,-95.35555555555555,-156.13333333333333,-7925.377777777778,713.7555555555556,-551.3777777777777,0
2024-06-13 19:43:12,-0.283441484,0.01466076635,-0.1246165112,-0.8379706144,-4.199429989,9.054870605,-270.77906976744185,83.25581395348837,62.74418604651163,-7884.372093023256,728.0697674418604,-245.68604651162792,0
2024-06-13 19:43:12,0.3750712574,-0.4422664344,-0.1172861308,-0.9720458984,-5.422866821,8.939949036,-20.595505617977523,-103.34831460674158,-241.51685393258427,-7922.033707865168,728.5056179775281,-224.2584269662921,0
2024-06-13 19:43:12,-0.6499606371,0.216246292,0.07574728876,-0.8020575643,-4.632780075,9.255983353,36.98876404494382,286.07865168539325,-233.7528089887641,-7892.449438202248,706.685393258427,-521.9550561797753,0
2024-06-13 19:43:12,-0.6499606371,0.216246292,0.07574728876,-0.8020575643,-4.632780075,9.255983353,69.56521739130434,312.1304347826087,-550.3913043478261,-8228.95652173913,463.0434782608696,-406.82608695652175,0
2024-06-13 19:43:12,-0.2382374406,0.03420845419,-0.0293215327,-0.5961562395,-3.778050184,9.169792175,-294.0,-312.3529411764706,19.352941176470587,-8166.35294117647,404.9411764705882,-539.3529411764706,0
2024-06-13 19:43:12,-0.2382374406,0.03420845419,-0.0293215327,-0.4285621047,-3.572149038,9.22725296,-240.61111111111111,-327.2333333333333,10.977777777777774,-8226.733333333334,479.5777777777778,-210.1555555555556,0
2024-06-13 19:43:12,0.04398229718,-0.02809980139,-0.04642575979,-0.4285621047,-3.572149038,9.22725296,53.39080459770116,-262.2183908045977,174.67816091954023,-7915.528735632184,784.2413793103449,-371.44827586206895,0
2024-06-13 19:43:12,0.03054326214,0.07086037099,0.03176499158,0.1532289088,-3.500322819,9.107542992,151.62585034013603,-220.12925170068027,234.4081632653061,-7894.061224489796,894.0884353741496,-340.03401360544217,0
2024-06-13 19:43:12,0.03054326214,0.07086037099,0.03176499158,0.1532289088,-3.500322819,9.107542992,144.6153846153846,-355.46153846153845,348.0769230769231,-7901.846153846154,1129.3076923076924,-307.53846153846155,0
2024-06-13 19:43:13,-0.5253441334,0.1111774743,-0.141720742,0.1651999205,-3.42131424,8.678980827,-528.1058823529412,312.0352941176471,-362.32941176470587,-7867.023529411765,695.2823529411764,-307.1294117647059,0
2024-06-13 19:43:13,-0.141720742,0.05864306539,-0.1954768747,0.9911994934,-2.956839085,8.468291283,54.0,-199.66666666666669,6.666666666666664,-8151.0,737.6666666666666,-178.33333333333334,0
2024-06-13 19:43:13,-0.141720742,0.05864306539,-0.1954768747,0.9911994934,-2.956839085,8.468291283,31.46206896551724,-206.9103448275862,-183.9379310344828,-8249.11724137931,710.6758620689656,4.868965517241406,0
2024-06-13 19:43:13,-0.1759291887,0.05742133409,0.03909537569,-0.9385270476,-3.720589399,9.3685112,-319.3176470588235,507.8705882352941,-129.85882352941175,-8248.35294117647,605.6705882352941,-156.2941176470588,0
2024-06-13 19:43:13,0.1869247705,-0.07941248268,0.1441642046,-0.9193734527,-3.823540211,9.615114212,-232.7752808988764,163.0,106.48314606741572,-8224.078651685393,757.2359550561798,-557.4494382022472,0
2024-06-13 19:43:13,0.1869247705,-0.07941248268,0.1441642046,-0.9193734527,-3.823540211,9.615114212,-516.5333333333333,252.44444444444449,119.37777777777778,-8219.377777777778,778.8222222222222,-520.5111111111111,0
2024-06-13 19:43:13,-0.9737191796,0.1783726513,-0.1356120855,-0.3280056417,-3.60566783,9.54807663,18.853658536585364,-99.51219512195122,109.04878048780488,-7924.1463414634145,740.0975609756098,-496.2439024390244,0
2024-06-13 19:43:13,-0.9737191796,0.1783726513,-0.1356120855,-0.3280056417,-3.60566783,9.54807663,-346.53932584269666,158.25842696629212,61.39325842696629,-7925.651685393258,701.9101123595506,-362.2247191011236,0
2024-06-13 19:43:13,0.7892379165,0.161268428,0.3200933933,-0.3136404157,-3.165134668,9.332598686,-295.52272727272725,21.75,87.22727272727272,-8229.818181818182,823.5,-204.52272727272728,0
2024-06-13 19:43:14,-0.05742133409,-0.145385921,-0.07941248268,-0.6344634295,-3.816357613,9.437943459,6.597701149425287,-71.58620689655173,69.66666666666667,-7854.367816091954,662.6666666666666,-175.10344827586206,0
2024-06-13 19:43:14,-0.05742133409,-0.145385921,-0.07941248268,-0.6344634295,-3.816357613,9.437943459,54.73913043478262,-61.30434782608694,-75.32608695652175,-8251.695652173914,865.6521739130435,-333.6521739130435,0
2024-06-13 19:43:14,-0.5668829679,0.07696902007,-0.1307251602,0.4429273009,-1.879448295,9.011775017,-282.03370786516854,179.03370786516854,-270.35955056179773,-7870.157303370786,644.5955056179776,-217.8202247191012,0
2024-06-13 19:43:14,-0.5302310586,0.09773843735,-0.09285151958,-0.5027823448,-3.299209833,9.282320023,-339.11494252873564,147.1264367816092,-46.4712643678161,-8217.827586206897,853.4942528735633,-497.1034482758621,0
2024-06-13 19:43:14,-0.5302310586,0.09773843735,-0.09285151958,-0.5027823448,-3.299209833,9.282320023,-256.1954022988506,-49.85057471264368,-48.241379310344826,-8203.034482758621,707.7126436781609,-619.7126436781609,0
2024-06-13 19:43:14,1.017701507,-0.2626720667,-0.389732033,0.5841852427,-1.541865945,10.44350815,-286.93243243243245,-97.0945945945946,20.729729729729726,-7921.986486486487,716.9594594594595,-589.2972972972973,0
2024-06-13 19:43:14,1.017701507,-0.2626720667,-0.389732033,0.5841852427,-1.541865945,10.44350815,-214.0540540540541,84.67567567567568,-46.67567567567568,-7976.972972972973,1051.3513513513512,-216.16216216216216,0
2024-06-13 19:43:14,0.08918632567,-0.03298672289,0.1637118906,-1.089361787,-3.373430252,9.600749016,-235.0632911392405,569.6835443037975,105.27848101265825,-7906.278481012659,653.1645569620254,-599.2405063291139,0
2024-06-13 19:43:14,-1.297477722,0.08063421398,-0.4630358517,0.758961916,-2.796427488,9.021351814,-4.822222222222223,58.28888888888889,243.77777777777777,-8101.688888888889,1045.2666666666669,-389.1777777777778,0
2024-06-13 19:43:14,-1.297477722,0.08063421398,-0.4630358517,0.758961916,-2.796427488,9.021351814,-189.4496644295302,-337.489932885906,-106.70469798657716,-7971.154362416108,1135.8791946308725,-213.9060402684564,0
2024-06-13 19:43:14,0.590095818,-0.2333505303,0.02809980139,-0.490811348,-4.999093056,9.892841339,-147.03571428571428,241.42857142857144,64.96428571428572,-8208.57142857143,1052.571428571429,-590.1428571428571,0
2024-06-13 19:43:15,0.590095818,-0.2333505303,0.02809980139,0.1292868853,-4.144362926,9.593565941,-305.5280898876405,40.77528089887642,20.25842696629213,-8263.112359550561,1025.3033707865168,-516.0,0
2024-06-13 19:43:15,-0.6389650702,0.3848451078,0.1905899495,0.1292868853,-4.144362926,9.593565941,-319.75280898876406,301.1573033707865,50.49438202247191,-8254.775280898877,687.8539325842696,-235.7078651685393,0
2024-06-13 19:43:15,-0.1160643995,-0.1356120855,-0.1918116808,-0.8978256583,-4.596867085,9.148244858,-338.1818181818182,-78.72727272727273,-122.9090909090909,-7852.0,749.9090909090909,-213.27272727272728,0
2024-06-13 19:43:15,-0.1160643995,-0.1356120855,-0.1918116808,-0.8978256583,-4.596867085,9.148244858,46.0,-52.77272727272727,-67.04545454545455,-7910.25,1073.2613636363635,-191.1136363636364,0
2024-06-13 19:43:15,-0.2528982162,0.3921754956,0.4679227769,-0.4477157295,-3.790021181,9.648633003,-115.4318181818182,149.11363636363637,-312.27272727272725,-8034.863636363636,945.0681818181818,-633.0227272727273,0
2024-06-13 19:43:15,0.6352998614,-0.5326744914,-0.1979203373,-1.331176162,-2.904166698,10.13704967,-283.3666666666667,-42.94444444444446,-68.78888888888889,-8041.922222222222,933.3222222222222,-396.9666666666667,0
2024-06-13 19:43:15,0.6352998614,-0.5326744914,-0.1979203373,-1.331176162,-2.904166698,10.13704967,-534.6818181818182,137.04545454545456,-37.227272727272734,-8152.590909090909,1027.7045454545455,-555.25,0
2024-06-13 19:43:15,-0.00122173049,-0.09285151958,0.106290549,1.63763392,-0.9983820915,9.205705643,-548.7849462365591,165.752688172043,-41.08602150537634,-8236.376344086022,1033.52688172043,-564.9677419354839,0
2024-06-13 19:43:15,-0.6084218025,0.2431243658,-0.1747074574,0.7565677166,-2.408566952,9.344569206,94.84146341463416,-37.6219512195122,-362.9878048780488,-7840.292682926829,1095.3658536585365,-540.1341463414634,0
2024-06-13 19:43:15,-0.6084218025,0.2431243658,-0.1747074574,0.7565677166,-2.408566952,9.344569206,84.41758241758242,327.0989010989011,-352.05494505494505,-8244.967032967033,1039.175824175824,-574.6703296703297,0
2024-06-13 19:43:16,-0.08063421398,0.4544837475,0.196698606,-0.6584054828,-2.664746523,9.737217903,-319.9862068965517,-110.72413793103448,-346.7379310344828,-7893.924137931034,853.0689655172414,-556.448275862069,0
2024-06-13 19:43:16,-0.08063421398,0.4544837475,0.196698606,-0.6584054828,-2.664746523,9.737217903,-42.05517241379312,47.896551724137936,-66.04827586206898,-7915.303448275862,842.7241379310345,-539.2068965517242,0
2024-06-13 19:43:16,0.3249803185,-0.1160643995,-0.05497787148,-1.00556469,-3.009511471,9.10036087,52.45669291338583,7.236220472440948,-21.440944881889763,-7927.535433070866,743.7559055118111,-546.6062992125984,0
2024-06-13 19:43:16,0.003665191587,0.6010913849,-0.1282816976,-0.8044517636,-5.090072632,8.046912193,-185.6543209876544,59.76543209876543,308.2469135802469,-7879.086419753086,703.358024691358,-251.08641975308643,0
2024-06-13 19:43:16,0.003665191587,0.6010913849,-0.1282816976,-0.8044517636,-5.090072632,8.046912193,9.266666666666666,334.1777777777778,435.3888888888889,-7926.344444444445,909.8444444444444,-561.9444444444445,0
2024-06-13 19:43:16,-0.1991420686,0.00244346098,0.0171042271,-3.356670856,-7.378929615,11.38682365,-119.90445859872612,193.9235668789809,658.6815286624204,-7871.3121019108285,1103.828025477707,-615.8662420382166,0
2024-06-13 19:43:16,-0.1991420686,0.00244346098,0.0171042271,-0.7445967197,-3.090914488,8.121131897,-339.5652173913044,-46.73913043478261,380.1739130434783,-7837.913043478261,1391.608695652174,-629.6521739130435,0
2024-06-13 19:43:16,0.3946189582,-0.2712241709,0.009773843922,-0.7445967197,-3.090914488,8.121131897,-75.23529411764707,17.941176470588232,-699.1764705882354,-7893.705882352941,1011.529411764706,-592.8823529411765,0
2024-06-13 19:43:16,0.5766568184,-0.232128799,0.02199114859,-1.640028119,-4.05338335,9.179368973,-178.1818181818182,340.0,258.1818181818182,-7931.181818181818,522.2727272727273,-532.4545454545455,0
2024-06-13 19:43:17,-0.02076941915,0.2797762752,-0.0415388383,-1.836352706,-2.765302896,10.41717148,-363.4020618556701,150.30927835051546,593.8144329896907,-7911.144329896907,789.2268041237113,-538.6494845360825,0
2024-06-13 19:43:17,0.7660250068,-0.428827405,0.4520402849,-2.068590164,-4.42448473,7.951143742,-288.2,178.625,1151.0875,-7846.6,1327.2875,-428.9125,0
2024-06-13 19:43:17,0.7660250068,-0.428827405,0.4520402849,-2.068590164,-4.42448473,7.951143742,-322.6896551724138,-164.79310344827587,-1078.8735632183907,-7870.6551724137935,1466.103448275862,-484.9080459770115,0
2024-06-13 19:43:17,0.37751472,-0.5009095073,0.161268428,0.5530605912,-2.801215887,9.179368973,-252.40449438202248,-312.7191011235955,-1349.4494382022472,-7848.08988764045,1034.2696629213483,-622.9325842696629,0
2024-06-13 19:43:17,0.37751472,-0.5009095073,0.161268428,-0.3543418646,-2.398990154,9.572018623,33.18181818181818,307.54545454545456,254.4090909090909,-7825.863636363636,733.6363636363636,-573.9545454545455,0
2024-06-13 19:43:17,-0.2553416789,-0.08674286306,0.1233947799,-0.3543418646,-2.398990154,9.572018623,66.24444444444444,46.55555555555554,48.22222222222223,-8214.577777777778,1277.8222222222223,-794.3333333333334,0
2024-06-13 19:43:17,0.4703662395,-0.248011291,0.1979203373,1.103726983,-3.27287364,8.863334656,17.43181818181818,-176.9090909090909,-854.2045454545455,-8110.045454545455,927.4318181818182,-322.3636363636364,0
2024-06-13 19:43:17,0.4703662395,-0.248011291,0.1979203373,1.103726983,-3.27287364,8.863334656,-299.57142857142856,105.08571428571427,-110.1142857142857,-8030.971428571429,659.0571428571428,-575.8571428571429,0
2024-06-13 19:43:17,0.381179899,0.106290549,-0.02687807009,-0.09816227108,-2.892195702,10.34295177,36.96703296703296,-256.86813186813185,52.89010989010989,-8200.043956043955,997.6593406593406,-592.0879120879121,0
2024-06-13 19:43:18,-0.9028588533,0.2431243658,0.06352998316,-0.1244984865,-3.526659012,9.411606789,-39.08163265306123,-90.55102040816328,-563.5714285714286,-8026.897959183673,1028.8163265306123,-229.79591836734693,0
2024-06-13 19:43:18,-0.9028588533,0.2431243658,0.06352998316,-0.1244984865,-3.526659012,9.411606789,-204.3877551020408,-51.36734693877551,-460.7142857142857,-7895.265306122449,1031.8775510204082,-236.53061224489795,0
2024-06-13 19:43:18,0.1722639948,-0.09529497474,-0.1343903542,-0.7158663273,-5.499481201,8.690952301,-320.561797752809,-90.51685393258428,-236.4943820224719,-8241.213483146068,805.3595505617977,-424.2921348314607,0
2024-06-13 19:43:18,-0.2419026345,0.1368338168,0.106290549,-0.9935936928,-3.215412855,9.782708168,-325.67058823529413,17.294117647058812,-330.78823529411767,-7877.317647058823,480.9294117647059,-356.7058823529412,0
2024-06-13 19:43:18,-0.2419026345,0.1368338168,0.106290549,-0.9935936928,-3.215412855,9.782708168,-335.56043956043953,327.45054945054943,78.14285714285714,-8213.956043956045,463.1648351648352,-579.9230769230769,0
2024-06-13 19:43:18,-0.4862487316,0.3286454976,0.2504547536,-0.3639186621,-2.703053713,8.844181061,-318.3636363636364,51.45454545454545,-71.81818181818181,-8110.636363636364,608.6363636363636,-439.6363636363636,0
2024-06-13 19:43:18,-0.4862487316,0.3286454976,0.2504547536,-0.3639186621,-2.703053713,8.844181061,114.04444444444444,99.4,-27.75555555555556,-8023.355555555556,843.2222222222222,-362.9111111111111,0
2024-06-13 19:43:18,-0.2748893499,0.2040289938,-0.3115412891,-1.493981838,-4.817133904,8.868123055,-291.816091954023,-43.28735632183909,46.42528735632184,-8110.770114942528,842.2528735632184,-538.8045977011494,0
2024-06-13 19:43:18,-0.0415388383,0.06597344577,-0.4214970171,-0.2394201756,-4.417302132,8.667010307,-348.66279069767444,37.88372093023256,48.51162790697674,-7895.372093023256,670.0813953488372,-242.53488372093025,0
2024-06-13 19:43:18,-0.0415388383,0.06597344577,-0.4214970171,-0.2394201756,-4.417302132,8.667010307,-284.57954545454544,-88.35227272727272,53.727272727272734,-8204.84090909091,795.5113636363636,-540.3636363636364,0
2024-06-13 19:43:18,0.7904596329,-0.2932153046,0.5192354321,-1.209071875,-3.651157618,9.071630478,-298.7011494252874,-316.54022988505744,-19.229885057471265,-8252.51724137931,858.1954022988506,-226.32183908045977,0
2024-06-13 19:43:19,-0.6072000265,-0.01588249579,-0.01588249579,-0.9121908545,-4.548983097,9.29189682,-305.87640449438203,-139.1123595505618,92.49438202247192,-7878.112359550561,840.7640449438202,-205.87640449438203,0
2024-06-13 19:43:19,-0.6072000265,-0.01588249579,-0.01588249579,-0.9121908545,-4.548983097,9.29189682,44.67816091954023,-65.75862068965517,176.6206896551724,-8098.574712643678,801.8045977011494,-235.0804597701149,0
2024-06-13 19:43:19,-0.05864306539,0.07330382615,0.1136209369,-0.6895300746,-3.897760391,9.210494041,-236.9890109890109,-207.5604395604396,174.13186813186817,-8008.857142857143,853.1758241758241,-159.63736263736263,0
2024-06-13 19:43:19,-0.05864306539,0.07330382615,0.1136209369,-0.6895300746,-3.897760391,9.210494041,-196.96,-11.319999999999991,-115.28,-8021.72,766.72,-242.96,0
2024-06-13 19:43:19,-0.2785545588,0.04764748737,0.0232128799,-0.672770679,-3.725377798,9.090784073,-7.9199999999999875,-40.04,-103.2,-8000.36,854.24,-214.08,0
2024-06-13 19:43:19,-0.2174680233,0.008552113548,-0.01466076635,-0.7422025204,-4.38617754,8.860940933,-218.5,-173.0,98.0,-8232.0,1014.0,-164.5,0
2024-06-13 19:43:19,-0.2174680233,0.008552113548,-0.01466076635,-0.7422025204,-4.38617754,8.860940933,-341.1523178807947,338.9337748344371,-5.602649006622517,-8194.993377483444,764.9006622516556,-148.66225165562915,0
2024-06-13 19:43:19,0.1783726513,-0.06230825558,-0.03420845419,-0.7134721279,-3.782838583,8.858546257,-284.19867549668874,337.6092715231788,-197.6556291390729,-8214.860927152318,762.9139072847682,-161.90728476821192,0
2024-06-13 19:43:19,-0.1014036313,0.03054326214,-0.009773843922,-0.7422025204,-4.261679173,9.114726067,-95.6206896551724,-196.1264367816092,-327.8620689655172,-8145.827586206897,728.5402298850574,-315.4712643678161,0
2024-06-13 19:43:19,-0.1014036313,0.03054326214,-0.009773843922,-0.7422025204,-4.261679173,9.114726067,-171.49425287356323,211.24137931034485,-253.896551724138,-7877.436781609195,804.8735632183908,-332.13793103448273,0
2024-06-13 19:43:20,-0.2247984111,0.08307767659,-0.1221730486,0.5602431893,-4.963180065,8.820239067,-4.5531914893617085,125.4255319148936,-15.489361702127653,-8298.595744680852,754.1702127659574,-137.59574468085106,0
2024-06-13 19:43:20,-0.2247984111,0.08307767659,-0.1221730486,0.5602431893,-4.963180065,8.820239067,-328.8235294117647,-41.21176470588236,-342.0470588235294,-7903.35294117647,805.4470588235295,-302.7647058823529,0
2024-06-13 19:43:20,0.4373795092,-0.4178318381,-0.3237585723,-0.174776718,-4.314351559,7.927201748,-291.0,-35.0,82.75,-8220.5,716.25,-291.0,0
2024-06-13 19:43:20,-0.4080579877,0.2052507252,0.07696902007,-0.6775590777,-4.244919777,9.737217903,-1.0449438202247163,285.64044943820227,114.65168539325842,-8237.786516853932,815.6741573033707,-176.68539325842698,0
2024-06-13 19:43:20,-0.09529497474,-0.09651670605,-0.1014036313,-0.7182605267,-3.655946016,9.124302864,61.91954022988506,203.51724137931035,-53.67816091954023,-8258.735632183909,856.9080459770115,-163.45977011494253,0
2024-06-13 19:43:20,-0.04642575979,0.1001819,0.02687807009,-0.7661445141,-4.103661537,9.095572472,-90.82162162162162,-34.270270270270274,-97.10810810810813,-8272.297297297297,724.0216216216216,-204.4324324324324,0
2024-06-13 19:43:20,-0.04642575979,0.1001819,0.02687807009,-0.7661445141,-4.103661537,9.095572472,4.85405405405406,-88.32432432432432,-18.729729729729726,-8231.756756756757,708.3459459459459,-190.9189189189189,0
2024-06-13 19:43:20,0.09529497474,-0.02199114859,0.03298672289,-0.6703764796,-3.646369219,9.258378029,-83.19999999999999,-54.0,-105.8,-8091.0,768.0,-162.0,0
2024-06-13 19:43:20,0.09529497474,-0.02199114859,0.03298672289,-0.6703764796,-3.646369219,9.258378029,-302.4761904761905,176.9047619047619,-5.80952380952381,-8004.714285714285,857.2857142857143,-187.66666666666663,0
2024-06-13 19:43:21,0.4043927789,-0.2333505303,0.01221730467,-0.8044517636,-4.733336926,9.097966194,-346.4171779141104,425.9815950920245,-98.80981595092024,-7816.791411042945,855.6993865030674,-198.11656441717795,0
2024-06-13 19:43:21,-0.2809980214,0.04764748737,-0.01832595654,0.2274491638,-2.987963676,8.961497307,13.058823529411768,944.4117647058824,-82.05882352941177,-8017.411764705882,620.3529411764706,-359.4117647058823,0
2024-06-13 19:43:21,-0.2809980214,0.04764748737,-0.01832595654,0.2274491638,-2.987963676,8.961497307,-157.76923076923077,-332.8241758241758,-90.28571428571428,-7900.461538461538,837.1318681318681,-439.27472527472526,0
2024-06-13 19:43:21,0.161268428,-0.01343903504,-0.05375614017,-0.6296750307,-2.837129116,9.107542992,-292.34507042253523,45.429577464788736,-85.2394366197183,-7875.401408450704,814.9718309859155,-616.5633802816901,0
2024-06-13 19:43:21,-0.1197295859,0.2296853364,-0.05619960278,-0.5913678408,-3.076549292,9.358934402,-361.3333333333333,-24.333333333333336,-118.16666666666669,-7902.666666666667,843.5,-632.6666666666666,0
2024-06-13 19:43:21,0.3665191531,-0.6194173694,-0.5656611919,0.5147533417,-3.241749048,8.432378769,-266.0,-115.5909090909091,-9.045454545454543,-7904.681818181818,704.0,-600.8636363636364,0
2024-06-13 19:43:21,0.3665191531,-0.6194173694,-0.5656611919,0.5147533417,-3.241749048,8.432378769,-277.4943820224719,-96.53932584269664,-43.50561797752809,-7878.808988764045,756.2471910112359,-607.1573033707865,0
2024-06-13 19:43:21,-0.830776751,-0.05742133409,-0.196698606,1.795651317,-1.920149803,8.171410561,-349.7191011235955,-93.68539325842696,-277.1348314606741,-7925.134831460674,752.2471910112359,-615.5505617977528,0
2024-06-13 19:43:22,-0.228463605,0.2724458873,-0.3213151097,-1.97042799,-5.932831764,8.985439301,-341.6363636363636,-92.72727272727272,23.181818181818183,-7907.318181818182,672.7727272727273,-601.0,0
2024-06-13 19:43:22,-0.228463605,0.2724458873,-0.3213151097,-1.97042799,-5.932831764,8.985439301,-271.8636363636364,-78.2840909090909,-120.1931818181818,-7902.0,695.5113636363636,-610.2386363636364,0
2024-06-13 19:43:22,0.3213151097,0.1478293836,-0.06352998316,-0.6943184733,-3.600879431,9.119514465,-273.6363636363636,-80.31818181818181,-109.5909090909091,-7909.636363636364,722.5909090909091,-608.3636363636364,0
2024-06-13 19:43:22,-0.1991420686,-0.1820378453,-0.1710422635,0.586579442,-2.53067112,8.61912632,-288.0,-73.4494382022472,116.8988764044944,-7900.775280898876,738.2247191011236,-618.3258426966293,0
2024-06-13 19:43:22,-0.1991420686,-0.1820378453,-0.1710422635,0.586579442,-2.53067112,8.61912632,-301.7865168539326,-68.42696629213484,105.06741573033707,-7893.932584269663,740.3595505617977,-609.6404494382023,0
2024-06-13 19:43:22,-0.07574728876,-0.1893682331,0.008552113548,-1.082179189,-2.56897831,9.593565941,-287.26666666666665,-73.11111111111111,83.64444444444445,-7891.733333333334,763.7333333333333,-604.2111111111111,0
2024-06-13 19:43:22,-0.07574728876,-0.1893682331,0.008552113548,-1.082179189,-2.56897831,9.593565941,-309.6666666666667,79.42528735632183,40.96551724137931,-7923.908045977011,750.471264367816,-608.6551724137931,0
2024-06-13 19:43:22,0.04031710699,-0.1148426682,0.06475171447,-0.3974374831,-3.059789658,9.313444138,-301.13548387096773,-84.1741935483871,55.63870967741936,-7895.935483870968,749.7290322580645,-605.2258064516129,0
2024-06-13 19:43:22,0.02687807009,0.02565634064,0.009773843922,-0.3974374831,-2.992752075,9.423578262,-305.2608695652174,-82.17391304347827,23.913043478260867,-7897.521739130435,742.4347826086956,-604.8695652173913,0
2024-06-13 19:43:22,0.02687807009,0.02565634064,0.009773843922,-0.3974374831,-2.992752075,9.423578262,-311.2325581395349,-86.72093023255815,-225.61627906976744,-7904.383720930233,722.1511627906976,-610.7674418604652,0
2024-06-13 19:43:22,0.00122173049,-0.008552113548,0.00244346098,-0.4405331016,-3.224989653,9.382876396,-298.59574468085106,-109.88297872340424,-273.52127659574467,-7905.478723404255,690.7978723404256,-599.3191489361702,0
2024-06-13 19:43:23,0.008552113548,-0.05131268129,0.01466076635,-0.4620809257,-3.181894064,9.332598686,-282.5870967741935,-83.58709677419355,36.94193548387097,-7904.470967741935,688.8838709677419,-592.8838709677419,0
2024-06-13 19:43:23,0.008552113548,-0.05131268129,0.01466076635,-0.4620809257,-3.181894064,9.332598686,-287.989247311828,-98.01075268817203,51.70967741935484,-7906.075268817204,689.258064516129,-595.0,0
2024-06-13 19:43:23,-0.02076941915,0.01466076635,-0.004886921961,-0.4525041282,-3.162740469,9.33020401,-306.6136363636364,104.02272727272728,-359.5,-7923.795454545455,721.9318181818181,-609.3863636363636,0
2024-06-13 19:43:23,-0.02076941915,0.01466076635,-0.004886921961,-0.4525041282,-3.162740469,9.33020401,-279.67816091954023,-121.17241379310344,-353.5402298850575,-7902.206896551724,834.8735632183908,-577.8965517241379,0
2024-06-13 19:43:23,-0.003665191587,0.01221730467,-0.006108652335,-0.4525041282,-3.141192675,9.296685219,-72.95505617977528,75.78651685393258,-182.92134831460675,-7911.67415730337,816.629213483146,-540.0,0
2024-06-13 19:43:23,0.02076941915,-0.00244346098,0.0171042271,-0.4501099288,-3.11964488,9.346963882,-317.1460674157304,-69.25842696629213,45.3370786516854,-7910.494382022472,788.7640449438202,-534.8314606741573,0
2024-06-13 19:43:23,0.02076941915,-0.00244346098,0.0171042271,-0.4501099288,-3.11964488,9.346963882,-309.5764705882353,-49.68235294117647,55.976470588235294,-7917.341176470588,497.3411764705882,-539.8,0
2024-06-13 19:43:23,0.06230825558,-0.04276056588,0.02443460934,-0.4261679053,-2.839523315,9.385271072,-273.0,-32.0,23.0,-8133.333333333333,735.3333333333334,-579.6666666666666,0
2024-06-13 19:43:23,0.0109955743,-0.0109955743,0.009773843922,-0.3064578176,-2.920926094,9.469067574,-305.6666666666667,25.0,55.55555555555554,-7994.555555555556,862.4444444444445,-536.2222222222222,0
2024-06-13 19:43:23,0.0109955743,-0.0109955743,0.009773843922,-0.3064578176,-2.920926094,9.469067574,-280.2111111111111,260.3111111111112,-83.86666666666667,-7892.644444444444,828.7888888888889,-545.3888888888889,0
2024-06-13 19:43:24,0.01466076635,-0.03665191308,-0.02199114859,-0.2849099934,-2.736572504,9.447520256,-169.80459770114942,-74.66666666666667,-344.4942528735632,-7921.620689655172,682.2298850574713,-588.9885057471264,0
2024-06-13 19:43:24,-0.1160643995,-0.05864306539,0.006108652335,-0.4141969085,-2.655169725,9.48343277,32.880503144654085,-260.0817610062893,-344.2704402515723,-8281.566037735849,640.1006289308176,-524.8805031446541,0
2024-06-13 19:43:24,-0.4141666293,-0.03420845419,-0.06719517708,0.3280056417,-3.339911461,8.906430244,13.38364779874214,-241.84276729559747,-314.71069182389937,-8247.603773584906,640.7295597484276,-305.3836477987421,0
2024-06-13 19:43:24,-0.4141666293,-0.03420845419,-0.06719517708,0.3280056417,-3.339911461,8.906430244,61.24719101123596,105.70786516853931,117.6067415730337,-8230.213483146068,783.0786516853932,-153.85393258426967,0
2024-06-13 19:43:24,0.9077457786,-0.2076941878,0.3909537494,-0.02154781483,-3.167528868,9.562441826,-242.06666666666663,-300.4,-178.46666666666667,-8051.333333333333,1054.9333333333334,-272.2,0
2024-06-13 19:43:24,0.03665191308,-0.03420845419,0.04642575979,-0.5099649429,-2.616862535,9.785101891,-229.98876404494385,55.25842696629213,-332.123595505618,-7918.842696629214,828.8202247191011,17.48314606741573,0
2024-06-13 19:43:24,0.03665191308,-0.03420845419,0.04642575979,-0.5099649429,-2.616862535,9.785101891,-326.6143790849673,249.6339869281045,-130.23529411764707,-7888.751633986928,839.0718954248366,-337.281045751634,0
2024-06-13 19:43:24,-0.85765481,0.4654793143,-0.3604104817,1.048660398,-1.556231141,9.3685112,-85.66666666666666,254.75,0.75,-8130.166666666667,768.5833333333334,-273.25,0
2024-06-13 19:43:24,-0.85765481,0.4654793143,-0.3604104817,1.048660398,-1.556231141,9.3685112,-196.63636363636363,0.4545454545454541,-310.3636363636364,-7880.0,873.8181818181819,-297.0,0
2024-06-13 19:43:25,-0.05009094998,0.2431243658,0.06841690838,-1.719036818,-3.045424461,9.689333916,-304.4606741573034,426.2247191011236,-225.47191011235955,-8243.14606741573,770.685393258427,-562.7752808988764,0
2024-06-13 19:43:25,-0.1820378453,0.06963863969,0.02809980139,-0.7948749661,-3.074155092,9.354146004,-219.47191011235955,-150.80898876404495,343.561797752809,-7903.966292134832,1078.887640449438,-244.35955056179776,0
2024-06-13 19:43:25,-0.1820378453,0.06963863969,0.02809980139,-0.7948749661,-3.074155092,9.354146004,-455.4269662921348,-55.30337078651685,324.46067415730334,-7987.112359550561,1072.7078651685392,-224.1348314606741,0
2024-06-13 19:43:25,-0.004886921961,-0.03909537569,-0.02687807009,-0.8236053586,-2.923320293,9.43315506,198.90123456790124,30.77777777777778,-325.6296296296296,-8235.037037037036,721.9382716049382,-552.9135802469136,0
2024-06-13 19:43:25,-0.4483750761,-0.1991420686,-0.07574728876,-0.5482721925,-3.222595453,9.557653427,-321.8021978021978,-146.92307692307693,-279.5274725274725,-8236.615384615385,832.1428571428571,-306.08791208791206,0
2024-06-13 19:43:25,-0.4483750761,-0.1991420686,-0.07574728876,-0.5482721925,-3.222595453,9.557653427,-334.7333333333333,97.35555555555555,-277.2888888888889,-7847.333333333333,819.4666666666667,-284.7111111111111,0
2024-06-13 19:43:25,0.3946189582,0.109955743,-0.1038470939,0.8499416113,-0.7829039693,9.165003777,-273.08988764044943,-26.415730337078656,-33.95505617977528,-8133.247191011236,775.9101123595506,-188.04494382022472,0
2024-06-13 19:43:25,0.3946189582,0.109955743,-0.1038470939,0.8499416113,-0.7829039693,9.165003777,36.627906976744185,-5.209302325581405,22.90697674418604,-8031.720930232558,744.2558139534884,-349.13953488372096,0
2024-06-13 19:43:25,0.08796459436,0.08185594529,-0.09285151958,-1.019929886,-3.552995205,9.325415611,89.36170212765958,313.06382978723406,-94.25531914893617,-8253.0,1044.723404255319,-146.85106382978722,0
2024-06-13 19:43:25,0.1844813079,-0.2089159191,0.08552113175,-0.7996633649,-3.244143248,9.440337181,-168.5568181818182,26.0,-317.32954545454544,-7901.045454545455,671.4545454545455,-332.0113636363636,0
2024-06-13 19:43:26,0.1844813079,-0.2089159191,0.08552113175,-0.7996633649,-3.244143248,9.440337181,-310.05479452054794,297.041095890411,-32.178082191780824,-7905.698630136986,661.2465753424658,-340.8767123287671,0
2024-06-13 19:43:26,-0.8393288255,0.3481931984,0.2736676335,-1.012747288,-5.051765442,9.11233139,-338.13698630136986,330.6027397260274,-210.94520547945208,-7926.246575342466,662.6164383561644,-190.1917808219178,0
2024-06-13 19:43:26,0.196698606,0.0354301855,0.05619960278,-0.7829039693,-2.772485495,9.646238327,-366.1428571428571,328.2857142857143,-238.1428571428572,-8005.142857142857,736.0,-536.4285714285714,0
2024-06-13 19:43:26,0.196698606,0.0354301855,0.05619960278,-0.7829039693,-2.772485495,9.646238327,-549.6736842105263,341.9157894736842,-313.9684210526316,-8253.768421052631,831.1578947368421,-557.3789473684211,0
2024-06-13 19:43:26,-1.060462117,0.04031710699,0.3872885704,-0.739808321,-6.093243122,8.386888504,-297.25714285714287,-21.828571428571426,-311.2857142857143,-8086.857142857143,798.4571428571429,-584.0857142857143,0
2024-06-13 19:43:26,-1.060462117,0.04031710699,0.3872885704,-0.739808321,-6.093243122,8.386888504,-185.1935483870968,-110.2258064516129,84.58064516129032,-8215.483870967742,581.8064516129032,-569.6774193548387,0
2024-06-13 19:43:26,0.1881465018,0.1246165112,-0.3188716471,-0.2346317619,-2.959233284,9.751583099,-86.25581395348837,11.151162790697668,105.40697674418604,-8253.418604651162,823.1511627906976,-543.9186046511628,0
2024-06-13 19:43:26,-0.1808161139,0.290771842,0.08918632567,-0.6631938815,-3.900154591,9.047688484,-291.04395604395603,-264.5054945054945,63.53846153846154,-7872.692307692308,734.2087912087912,4.395604395604396,0
2024-06-13 19:43:26,0.216246292,0.0109955743,0.08674286306,-0.7182605267,-3.490746021,9.066842079,243.1764705882353,-280.94117647058823,229.2941176470588,-8103.0,796.0,15.588235294117649,0
2024-06-13 19:43:27,0.1734857261,-0.4043927789,0.06719517708,-1.685518026,-6.675034523,9.478644371,-228.44565217391303,-710.0652173913044,21.195652173913047,-7937.163043478261,914.1521739130436,274.6195652173913,0
2024-06-13 19:43:27,0.1734857261,-0.4043927789,0.06719517708,-1.685518026,-6.675034523,9.478644371,-338.0,375.0,23.64,-7985.08,833.56,-4.640000000000001,0
2024-06-13 19:43:27,0.01466076635,-0.1001819,-0.1111774743,-1.441309452,-3.500322819,9.859322548,0.8965517241379359,457.8965517241379,-116.3793103448276,-8098.9655172413795,805.6206896551724,-143.27586206896552,0
2024-06-13 19:43:27,0.01466076635,-0.1001819,-0.1111774743,-1.441309452,-3.500322819,9.859322548,-347.3636363636364,196.27272727272725,7.863636363636363,-7862.818181818182,805.8181818181818,-304.1363636363636,0
2024-06-13 19:43:27,-0.908967495,0.2773328125,-0.1197295859,-0.3782838583,-4.280832767,9.26556015,-405.1111111111111,567.1111111111111,105.11111111111111,-8264.0,865.1111111111111,-187.66666666666663,0
2024-06-13 19:43:27,0.4337143302,-0.09773843735,-0.008552113548,0.2178723514,-1.692700624,8.209717751,32.206896551724135,290.3103448275862,34.37931034482759,-8253.206896551725,663.448275862069,-209.6206896551724,0
2024-06-13 19:43:27,0.4337143302,-0.09773843735,-0.008552113548,0.2178723514,-1.692700624,8.209717751,-189.4391891891892,49.25675675675676,13.797297297297298,-8034.222972972973,797.6756756756756,-158.92567567567568,0
2024-06-13 19:43:27,0.05864306539,-0.09040805697,0.2345722616,-1.805228114,-3.490746021,9.751583099,-334.5238095238095,139.1547619047619,41.38095238095238,-7882.059523809524,667.8214285714286,-261.4404761904762,0
2024-06-13 19:43:27,-0.3359758854,0.2724458873,0.1185078546,-1.017535686,-3.775655985,9.701305389,80.82926829268293,-46.26829268292683,-134.64634146341464,-8280.829268292682,818.5243902439024,-544.7926829268292,0
2024-06-13 19:43:27,-0.3359758854,0.2724458873,0.1185078546,-1.017535686,-3.775655985,9.701305389,-533.4545454545455,-290.09090909090907,-179.63636363636363,-8202.636363636364,424.09090909090907,-240.45454545454547,0
2024-06-13 19:43:28,0.3726277947,0.2944370508,0.2370157093,-1.331176162,-2.279279947,9.564835548,-474.3636363636364,-265.4155844155844,-142.62337662337663,-8215.623376623376,392.27272727272725,-217.07792207792207,0
2024-06-13 19:43:28,0.3726277947,0.2944370508,0.2370157093,-1.331176162,-2.279279947,9.564835548,351.66265060240966,-241.132530120482,249.91566265060243,-8194.987951807228,872.8554216867469,-299.9277108433735,0
2024-06-13 19:43:28,0.3433062732,0.05619960278,0.02199114859,-0.6464344859,-3.01429987,9.682151794,303.90697674418607,-216.18604651162792,60.93023255813952,-7915.976744186047,1091.1627906976744,102.44186046511628,0
2024-06-13 19:43:28,0.03054326214,0.3005456924,0.590095818,-0.8571242094,-5.099649429,8.973467827,-166.8426966292135,-137.34831460674158,48.4494382022472,-7905.280898876404,831.3483146067415,92.8988764044944,0
2024-06-13 19:43:28,0.03054326214,0.3005456924,0.590095818,-0.8571242094,-5.099649429,8.973467827,-360.2386363636364,290.72727272727275,62.23863636363636,-7956.102272727273,657.25,72.375,0
2024-06-13 19:43:28,0.2956587672,-0.1661553532,-0.09529497474,-0.7086837292,-2.985569477,9.358934402,-242.9,-33.6,44.8,-7933.6,670.2,52.1,0
2024-06-13 19:43:28,0.2956587672,-0.1661553532,-0.09529497474,-0.7086837292,-2.985569477,9.358934402,-342.42857142857144,543.8571428571429,35.142857142857146,-8284.142857142857,833.4285714285714,-208.1428571428572,0
2024-06-13 19:43:28,0.3249803185,0.2309070677,0.3310889602,-0.7469909191,-3.708618402,9.387664795,-385.7865168539326,222.2134831460674,48.35955056179776,-8008.91011235955,672.7865168539325,-248.3483146067416,0
2024-06-13 19:43:28,0.3249803185,0.2309070677,0.3310889602,-0.7469909191,-3.708618402,9.387664795,-470.04597701149424,419.9425287356322,-110.13793103448276,-7991.206896551724,798.6436781609195,-271.5977011494253,0
2024-06-13 19:43:29,-0.04642575979,-0.1197295859,-0.04520402849,-0.9265560508,-2.928108692,9.313444138,320.67045454545456,117.3068181818182,359.89772727272725,-8080.102272727273,923.3977272727273,-252.88636363636363,0
2024-06-13 19:43:29,0.01221730467,-0.01588249579,-0.05619960278,-0.7158663273,-2.992752075,9.308655739,28.51685393258427,-219.47191011235955,39.932584269662925,-8035.303370786517,993.056179775281,-166.64044943820224,0
2024-06-13 19:43:29,0.01221730467,-0.01588249579,-0.05619960278,-0.7158663273,-2.992752075,9.308655739,-257.42105263157896,137.6315789473684,-359.1578947368421,-8232.842105263158,821.6315789473684,-236.0,0
2024-06-13 19:43:29,0.0,0.007330383174,-0.004886921961,-0.9696516991,-3.047818661,9.404424667,-130.85714285714286,99.42857142857144,-102.28571428571428,-8233.285714285714,718.7142857142857,-376.7142857142857,0
2024-06-13 19:43:29,0.008552113548,-0.00122173049,-0.006108652335,-0.9050082564,-2.964021683,9.375694275,-131.5438596491228,-32.0,45.52046783625731,-8243.21052631579,683.6783625730994,-252.76023391812865,0
2024-06-13 19:43:29,0.03176499158,-0.008552113548,-0.00244346098,-0.9457096457,-2.873042107,9.363722801,-45.578947368421055,-232.0,32.07017543859649,-7990.578947368421,780.7543859649122,-296.03508771929825,0
2024-06-13 19:43:29,0.03176499158,-0.008552113548,-0.00244346098,-0.9457096457,-2.873042107,9.363722801,4.4,-151.6,-15.6,-7998.6,773.4,-253.6,0
2024-06-13 19:43:29,0.0171042271,0.006108652335,-0.006108652335,-0.9864110947,-3.05021286,9.440337181,-176.72093023255815,45.825581395348834,91.7906976744186,-8208.453488372093,927.6395348837208,-370.4186046511628,0
2024-06-13 19:43:29,-0.003665191587,0.008552113548,-0.007330383174,-0.9361328483,-2.959233284,9.411606789,-312.4533333333333,276.25333333333333,46.906666666666666,-8076.4,681.44,-338.56,0
2024-06-13 19:43:30,-0.003665191587,0.008552113548,-0.007330383174,-0.9361328483,-2.959233284,9.411606789,-48.57777777777778,82.62222222222223,-76.15555555555555,-7913.588888888888,822.1777777777778,-321.5,0
2024-06-13 19:43:30,0.01832595654,-0.006108652335,0.00244346098,-0.9481038451,-3.098097086,9.411606789,-220.40860215053763,347.2903225806452,-320.1182795698925,-7970.086021505376,967.5806451612904,-212.7311827956989,0
2024-06-13 19:43:30,0.2797762752,-0.05864306539,0.05742133409,-0.653617084,-2.456450939,9.528923035,-253.7560975609756,-3.7317073170731874,-58.5609756097561,-8244.926829268292,854.6585365853658,-178.21951219512195,0
2024-06-13 19:43:30,-0.161268428,0.1026253626,0.1380555481,-0.5051765442,-3.004723072,9.157821655,-260.1264367816092,290.17241379310343,-16.71264367816092,-7920.35632183908,761.2528735632184,-244.80459770114945,0
2024-06-13 19:43:30,-0.161268428,0.1026253626,0.1380555481,-0.5051765442,-3.004723072,9.157821655,-290.7752808988764,75.2247191011236,-320.4943820224719,-8267.258426966293,757.8202247191011,-525.8202247191011,0
2024-06-13 19:43:30,-0.08552113175,0.00244346098,-0.05131268129,-0.7278373241,-2.928108692,9.3685112,-220.4494382022472,31.247191011235955,-239.3370786516854,-8112.404494382023,665.943820224719,-412.7640449438202,0
2024-06-13 19:43:30,-0.7660250068,-0.004886921961,0.08185594529,-0.1963245422,-3.485957623,9.387664795,258.97752808988764,34.17977528089888,-42.88764044943821,-7910.797752808989,692.5393258426966,-347.438202247191,0
2024-06-13 19:43:30,-0.7660250068,-0.004886921961,0.08185594529,-0.1963245422,-3.485957623,9.387664795,83.94117647058823,34.84313725490196,91.68627450980392,-8018.78431372549,815.686274509804,-187.5686274509804,0
2024-06-13 19:43:30,-0.5729916096,0.007330383174,-0.2186897546,0.1843535304,-3.244143248,8.585607529,-80.76470588235293,284.51633986928107,91.0326797385621,-8237.084967320261,681.6993464052288,-224.16993464052288,0
2024-06-13 19:43:31,1.003040791,-0.2981022298,-0.5937610269,-0.04309562966,-3.746925592,9.244012833,-332.2,34.166666666666664,-24.866666666666674,-7953.333333333333,741.4666666666667,-375.7,0
2024-06-13 19:43:31,1.003040791,-0.2981022298,-0.5937610269,-0.04309562966,-3.746925592,9.244012833,104.4186046511628,13.372093023255816,223.86046511627907,-8236.627906976744,1023.8604651162792,-164.13953488372093,0
2024-06-13 19:43:31,0.235793978,0.1087340117,-0.1001819,-1.630451322,-2.865859509,9.538499832,98.52941176470588,-68.23529411764706,157.58823529411765,-8044.705882352941,966.7058823529412,-199.8235294117647,0
2024-06-13 19:43:31,0.235793978,0.1087340117,-0.1001819,-1.630451322,-2.865859509,9.538499832,-293.2048192771084,113.71084337349396,50.54216867469879,-7873.421686746988,650.6746987951807,-362.2530120481928,0
2024-06-13 19:43:31,-0.1661553532,-0.2064724565,-0.01466076635,-1.120486379,-3.766079187,9.497797966,119.75555555555556,-65.6,-79.98888888888888,-8253.966666666667,750.8666666666667,-191.5,0
2024-06-13 19:43:31,-0.006108652335,0.161268428,0.235793978,-0.8140285611,-4.316745758,9.004592896,84.11627906976744,85.18604651162791,-280.06976744186045,-7911.697674418605,742.7906976744187,-349.9767441860465,0
2024-06-13 19:43:31,-0.006108652335,0.161268428,0.235793978,-0.8140285611,-4.316745758,9.004592896,-248.97752808988764,-72.10112359550561,-374.3033707865168,-7895.842696629214,761.3258426966293,-365.5730337078652,0
2024-06-13 19:43:31,-0.5082398653,0.161268428,-0.08429940045,-0.5626373887,-3.780444384,9.375694275,-172.4494382022472,228.6067415730337,52.943820224719104,-8084.370786516853,874.2808988764045,-204.9438202247191,0
2024-06-13 19:43:31,-1.016479731,0.299323976,-0.1295034289,0.2992752194,-2.844311714,8.154650688,-256.0232558139535,55.58139534883722,-348.86046511627904,-8264.60465116279,872.6511627906976,-249.65116279069767,0
2024-06-13 19:43:31,-1.016479731,0.299323976,-0.1295034289,0.2992752194,-2.844311714,8.154650688,-505.752688172043,-80.50537634408602,-153.5268817204301,-8202.731182795698,571.9677419354839,-197.9032258064516,0
2024-06-13 19:43:32,-0.07574728876,-0.06108652428,-0.06230825558,-2.365471363,-5.64313364,9.232041359,-154.8,-239.52941176470588,589.7058823529412,-8217.129411764707,672.6705882352941,-140.42352941176472,0
2024-06-13 19:43:32,-0.07574728876,-0.06108652428,-0.06230825558,-2.365471363,-5.64313364,9.232041359,316.7415730337079,-333.314606741573,-8.426966292134807,-7888.505617977528,1160.438202247191,-284.1011235955056,0
2024-06-13 19:43:32,-0.5180137157,0.4386012554,0.4471533597,-0.9600749016,-2.93768549,9.33020401,-561.934065934066,310.3076923076923,-144.94505494505495,-7916.912087912088,1005.8131868131868,44.06593406593407,0
2024-06-13 19:43:32,0.2089159191,-0.09285151958,-0.1160643995,-1.163581967,-3.670311213,8.995016098,-296.6744186046512,336.6046511627907,-361.0232558139535,-8237.302325581395,648.1395348837209,-317.2325581395349,0
2024-06-13 19:43:32,0.2089159191,-0.09285151958,-0.1160643995,-1.163581967,-3.670311213,8.995016098,63.8,-35.12222222222222,-209.82777777777773,-8236.972222222223,856.75,-355.02777777777777,0
2024-06-13 19:43:32,-0.2919935882,-0.2309070677,-0.4105014503,0.3591302633,-3.936067581,9.038111687,83.8,-56.23333333333333,-43.71666666666667,-8223.083333333334,731.75,-368.9166666666667,0
2024-06-13 19:43:32,0.3591887653,0.05742133409,-0.007330383174,-1.252167463,-4.000710964,9.06205368,-140.11627906976744,-32.395348837209305,52.33720930232558,-7914.720930232558,692.4767441860465,-253.1860465116279,0
2024-06-13 19:43:32,0.3591887653,0.05742133409,-0.007330383174,-1.252167463,-4.000710964,9.06205368,-214.1733333333333,287.05333333333334,-653.0,-8236.293333333333,813.1733333333334,-204.90666666666667,0
2024-06-13 19:43:32,-0.05619960278,0.02199114859,0.03665191308,-1.04147768,-3.94085598,9.083600998,-192.73913043478265,341.0869565217391,-590.9565217391304,-8210.434782608696,660.8260869565217,-211.3913043478261,0
2024-06-13 19:43:32,-0.05619960278,0.02199114859,0.03665191308,-1.04147768,-3.94085598,9.083600998,-303.1764705882353,-29.647058823529413,-358.52941176470586,-8223.470588235294,432.4705882352941,-237.8235294117647,0
2024-06-13 19:43:33,-0.00244346098,0.02565634064,0.02076941915,-0.9528923035,-3.543418407,9.15063858,113.75308641975307,70.30864197530865,-332.0123456790124,-8238.172839506173,390.962962962963,-222.0,0
2024-06-13 19:43:33,-0.0109955743,0.03054326214,-0.009773843922,-0.9792284966,-3.797203779,9.069235802,-291.978021978022,35.76923076923077,20.95604395604396,-8218.318681318682,577.7362637362637,-170.94505494505495,0
2024-06-13 19:43:33,-0.0109955743,0.03054326214,-0.009773843922,-0.9792284966,-3.797203779,9.069235802,60.90909090909091,-266.72727272727275,-66.27272727272728,-8241.90909090909,607.4545454545455,-177.0,0
2024-06-13 19:43:33,0.2076941878,-0.1490511149,0.03054326214,-1.139639974,-3.876212597,9.119514465,67.36363636363636,21.81818181818182,261.82954545454544,-8211.772727272728,433.1022727272728,-362.09090909090907,0
2024-06-13 19:43:33,0.1698205322,-0.106290549,0.02565634064,-0.8379706144,-3.043030262,9.33020401,14.755555555555556,88.5111111111111,-54.37777777777778,-8205.577777777778,500.6,-325.1333333333333,0
2024-06-13 19:43:33,0.1698205322,-0.106290549,0.02565634064,-0.8379706144,-3.043030262,9.33020401,-69.27272727272727,132.0909090909091,-80.0909090909091,-8106.272727272727,804.4545454545455,-111.72727272727272,0
2024-06-13 19:43:33,-0.1979203373,-0.08429940045,-0.1857030392,0.1604115069,-3.555389643,11.24556541,-1469.9651162790697,1633.4186046511627,7.883720930232556,-7928.662790697675,584.7441860465117,-511.04651162790697,0
2024-06-13 19:43:33,-0.1979203373,-0.08429940045,-0.1857030392,0.1604115069,-3.555389643,11.24556541,-1136.258064516129,1328.3548387096776,69.12903225806451,-8079.419354838709,429.8064516129032,-725.8709677419355,0
2024-06-13 19:43:33,-0.8100073338,0.09651670605,-0.1563815027,-1.489193439,-5.056553841,9.430760384,-112.10714285714286,283.3571428571429,-277.2857142857143,-8225.357142857143,496.57142857142856,-876.8214285714286,0
2024-06-13 19:43:33,0.3836233616,0.2736676335,0.3335324228,-0.6368576288,-3.727771997,9.167398453,-55.92045454545455,273.8636363636364,255.38636363636363,-7874.295454545455,415.02272727272725,-1130.5454545454545,0
2024-06-13 19:43:34,0.3836233616,0.2736676335,0.3335324228,-0.6368576288,-3.727771997,9.167398453,1019.0674846625768,-717.963190184049,658.282208588957,-8499.613496932516,89.31288343558282,-1065.0122699386502,0
2024-06-13 19:43:34,-0.2565633953,0.08918632567,-0.1808161139,-1.22583127,-3.885789394,9.11233139,2322.194285714286,-1718.6857142857143,1177.5828571428572,-7739.977142857143,1694.4685714285715,108.12571428571428,0
2024-06-13 19:43:34,-0.3090978265,0.01466076635,-0.334754169,-1.632845521,-3.38300705,9.308655739,1640.48,-1424.4,932.44,-7773.12,1915.04,225.84,0
2024-06-13 19:43:34,-0.3090978265,0.01466076635,-0.334754169,-1.632845521,-3.38300705,9.308655739,-621.8461538461538,86.06593406593407,-55.021978021978015,-7625.021978021978,1749.2417582417584,281.2197802197802,0
2024-06-13 19:43:34,0.6585127115,0.04642575979,0.01954768784,-0.2442085743,-3.098097086,8.54251194,-1751.1985815602836,1868.326241134752,31.92198581560284,-7856.475177304965,1323.4609929078017,-264.2340425531915,0
2024-06-13 19:43:34,0.6585127115,0.04642575979,0.01954768784,-0.2442085743,-3.098097086,8.54251194,-1514.3191489361702,1850.595744680851,103.55319148936172,-7911.085106382979,1309.276595744681,-249.3404255319149,0
2024-06-13 19:43:34,0.6719517708,0.1392772794,0.5106833577,-2.873042107,-4.86741209,9.660603523,-101.0,-332.1111111111111,265.8888888888889,-7944.111111111111,1379.111111111111,-809.6666666666666,0
2024-06-13 19:43:34,0.2761110961,-0.01221730467,0.3909537494,-0.6584054828,-1.982398987,9.313444138,278.1428571428572,-404.7142857142857,159.57142857142858,-7689.142857142857,1116.7142857142858,-607.5714285714286,0
2024-06-13 19:43:34,0.2761110961,-0.01221730467,0.3909537494,-0.6584054828,-1.982398987,9.313444138,420.1573033707865,336.0,-23.741573033707866,-7849.011235955056,774.7078651685393,-226.2134831460674,0
2024-06-13 19:43:34,-0.3677408695,-0.008552113548,-0.07941248268,-1.204283476,-3.639186621,9.157821655,547.4418604651163,521.046511627907,1475.3953488372092,-7566.116279069767,1770.3023255813953,-532.1860465116279,0
2024-06-13 19:43:35,-0.05619960278,-0.4459316432,-0.09040805697,-2.760514498,-2.11647439,9.200917244,-325.39772727272725,1511.1931818181818,663.0568181818182,-7672.147727272727,2506.75,-992.6022727272727,0
2024-06-13 19:43:35,-0.05619960278,-0.4459316432,-0.09040805697,-2.760514498,-2.11647439,9.200917244,-208.23913043478265,999.608695652174,323.2826086956522,-7838.217391304348,2265.260869565217,-1103.695652173913,0
2024-06-13 19:43:35,-0.2602286041,0.161268428,-0.1014036313,-1.04147768,-3.320757866,9.385271072,689.8636363636364,990.3977272727273,134.64772727272728,-7308.363636363636,1767.125,-1160.7613636363635,0
2024-06-13 19:43:35,-0.2602286041,0.161268428,-0.1014036313,-1.04147768,-3.320757866,9.385271072,808.3411764705883,2132.835294117647,801.2941176470588,-7487.976470588235,2038.4117647058824,-1598.4470588235297,0
2024-06-13 19:43:35,0.830776751,-0.03054326214,0.125838235,-0.962469101,-5.226542473,8.985439301,448.87777777777774,1737.9333333333334,271.02222222222224,-7369.888888888889,2043.155555555556,-2328.055555555556,0
2024-06-13 19:43:35,-0.2125810981,0.1075122803,0.05742133409,-1.515529633,-3.363853455,9.593565941,-193.8181818181818,655.1363636363636,-513.5454545454545,-7536.909090909091,2244.5454545454545,-2495.6363636363635,0
2024-06-13 19:43:35,-0.2125810981,0.1075122803,0.05742133409,-1.515529633,-3.363853455,9.593565941,-612.5887096774193,-241.1935483870968,-498.9274193548387,-7438.701612903225,1900.5806451612905,-2577.717741935484,0
2024-06-13 19:43:35,0.6267477274,-0.3701843321,-0.2919935882,-1.881842494,-1.312022567,8.267178535,193.34567901234567,-643.5432098765432,-884.2345679012345,-7347.111111111111,1983.3703703703704,-2550.962962962963,0
2024-06-13 19:43:35,-0.2211332172,0.1307251602,0.04031710699,-1.613691926,-4.963180065,9.399636269,-2270.5,-1760.1,-1356.8,-7204.4,1954.0,-1658.8,0
2024-06-13 19:43:35,-0.2211332172,0.1307251602,0.04031710699,-1.613691926,-4.963180065,9.399636269,-1604.1666666666667,-688.5,-1764.1666666666667,-7624.166666666667,452.5,-1079.5,0
2024-06-13 19:43:36,-0.04520402849,0.2663372457,0.2003637999,-0.4860229492,-2.463633537,9.797073364,-270.2125,-480.275,-953.0,-7930.16875,516.15,-736.48125,0
2024-06-13 19:43:36,-0.04520402849,0.2663372457,0.2003637999,-0.4860229492,-2.463633537,9.797073364,63.53750000000002,-277.775,-853.0,-7844.54375,751.15,-707.10625,0
2024-06-13 19:43:36,-0.2296853364,0.008552113548,-0.7232644558,-1.192312479,-3.97676897,9.186552048,-34.909090909090935,-178.8181818181818,233.0,-7817.727272727273,1821.909090909091,-1093.090909090909,0
2024-06-13 19:43:36,0.5571091175,-0.1698205322,0.1844813079,0.04788403213,-3.581725836,8.765172005,110.14772727272724,-650.9545454545455,-338.45454545454544,-7939.079545454545,1368.7727272727273,-941.4318181818182,0
2024-06-13 19:43:36,0.5571091175,-0.1698205322,0.1844813079,0.04788403213,-3.581725836,8.765172005,797.0666666666667,-911.4333333333332,-137.9,-7993.833333333333,1331.2333333333331,-578.7333333333333,0
2024-06-13 19:43:36,0.08674286306,-0.1392772794,0.4349360466,-2.370259762,-4.647145271,9.758766174,257.367816091954,-567.7126436781609,-321.2988505747127,-7989.0,1373.9540229885058,-223.3448275862069,0
2024-06-13 19:43:36,0.4190535545,0.1954768747,0.3677408695,-1.048660398,-3.588908434,9.174580574,-172.41379310344828,247.31034482758625,-54.689655172413794,-7892.413793103448,909.0,-551.9655172413793,0
2024-06-13 19:43:36,-0.5253441334,0.3579670191,0.2504547536,-0.6679822803,-4.481945515,8.825027466,-219.8314606741573,-61.7752808988764,-41.056179775280896,-7901.23595505618,1066.6741573033707,-543.370786516854,0
2024-06-13 19:43:36,-0.5253441334,0.3579670191,0.2504547536,-0.6679822803,-4.481945515,8.825027466,-571.7701149425287,236.1034482758621,18.05747126436782,-7891.16091954023,1296.7241379310344,-418.81609195402297,0
2024-06-13 19:43:37,0.4117231667,-0.2504547536,-0.1502728462,-0.6991068721,-2.375048161,9.409213066,-90.71264367816092,-42.14942528735632,-79.48275862068965,-7883.287356321839,1326.0114942528735,-619.7011494252873,0
2024-06-13 19:43:37,-0.3237585723,0.2125810981,0.196698606,-0.2705447972,-1.984793186,9.366117477,-88.27586206896552,167.17241379310346,-43.10344827586207,-7918.931034482759,1398.7241379310344,-455.8965517241379,0
2024-06-13 19:43:37,-0.3237585723,0.2125810981,0.196698606,-0.2705447972,-1.984793186,9.366117477,-340.96629213483146,-235.91011235955057,198.51685393258427,-8025.404494382023,1200.9101123595506,-545.2921348314607,0
2024-06-13 19:43:37,-0.3164281845,-0.2675589919,-0.3836233616,-0.09097966552,-4.173093796,9.22725296,27.55367231638418,141.16949152542372,-197.75706214689265,-7992.581920903955,1369.1525423728813,-431.7570621468927,0
2024-06-13 19:43:37,0.728151381,-0.3909537494,-0.3836233616,-1.362300754,-4.489128113,8.755595207,19.5,292.0,-302.625,-8014.6875,1385.0625,-453.5,0
2024-06-13 19:43:37,0.728151381,-0.3909537494,-0.3836233616,-1.362300754,-4.489128113,8.755595207,-133.5,375.5,77.5,-7924.5,1293.5,-774.0,0
2024-06-13 19:43:37,0.5131267905,0.09407325089,0.4569272101,-1.465251446,-4.060565948,9.569623947,56.84848484848485,42.78787878787879,-110.36363636363636,-7822.606060606061,1365.0,-447.5757575757576,0
2024-06-13 19:43:37,0.5131267905,0.09407325089,0.4569272101,-1.465251446,-4.060565948,9.569623947,33.81818181818181,78.54545454545455,-117.63636363636364,-7934.727272727273,1245.0,-479.0909090909091,0
2024-06-13 19:43:37,0.2638937831,-0.2406809032,-0.4764748812,0.9840168953,-2.296039343,10.67095661,73.13333333333334,44.12222222222222,-55.74444444444444,-7891.033333333334,1180.1,-424.97777777777776,0
2024-06-13 19:43:37,-0.4935791194,0.08918632567,-0.05619960278,-1.323993564,-4.455609322,9.052476883,-198.25,219.29545454545456,-157.22727272727275,-7985.204545454545,1245.75,-491.8863636363636,0
2024-06-13 19:43:38,-0.4935791194,0.08918632567,-0.05619960278,-1.323993564,-4.455609322,9.052476883,-124.77272727272728,-45.19318181818182,101.8181818181818,-7937.431818181818,1371.1704545454545,-456.59090909090907,0
2024-06-13 19:43:38,1.060462117,-0.4239404798,-0.5290092826,0.06943184882,-3.450044632,8.990227699,-241.06741573033707,284.1011235955056,16.258426966292134,-7888.146067415731,1325.808988764045,-808.3483146067416,0
2024-06-13 19:43:38,-0.8368853927,0.2235766798,0.08918632567,-1.400607944,-3.56496644,9.181763649,-37.41758241758242,59.76923076923077,89.82417582417582,-8006.406593406593,1395.6703296703297,-831.945054945055,0
2024-06-13 19:43:38,-0.8368853927,0.2235766798,0.08918632567,-1.400607944,-3.56496644,9.181763649,15.642857142857142,300.10714285714283,-337.75,-8042.357142857143,1169.321428571429,-851.5714285714286,0
2024-06-13 19:43:38,0.06963863969,0.0232128799,-0.006108652335,-1.007958889,-3.313575268,9.174580574,-161.1195652173913,-34.19565217391305,-259.17391304347825,-7810.195652173913,1381.1304347826087,-649.0217391304348,0
2024-06-13 19:43:38,0.06963863969,0.0232128799,-0.006108652335,-1.007958889,-3.313575268,9.174580574,-134.33333333333334,-15.917525773195877,37.14776632302406,-8030.879725085911,1362.890034364261,-879.0824742268042,0
2024-06-13 19:43:38,1.133765936,-0.5192354321,-0.4923573732,-0.02394201607,-1.537077546,8.664615631,-201.0,-14.88659793814433,-73.50515463917526,-8041.876288659794,1361.5154639175255,-880.1134020618557,0
2024-06-13 19:43:38,0.08429940045,0.08063421398,0.1466076523,-1.309628367,-3.371036053,9.282320023,-267.66666666666663,-13.855670103092784,-184.1580756013745,-8052.872852233677,1360.1408934707904,-881.1443298969073,0
2024-06-13 19:43:38,0.08429940045,0.08063421398,0.1466076523,-1.309628367,-3.371036053,9.282320023,-309.0769230769231,-24.29230769230769,-222.53846153846155,-8058.6461538461535,1311.7692307692307,-697.1846153846154,0
2024-06-13 19:43:38,-0.1783726513,0.04398229718,-0.04398229718,-0.9959878922,-3.699041605,9.102754593,-315.1034482758621,-12.344827586206897,77.55172413793103,-8042.9655172413795,1350.0,-647.551724137931,0
2024-06-13 19:43:39,0.03054326214,0.03298672289,0.02443460934,-1.244984865,-3.790021181,9.184157372,-371.44827586206895,-29.655172413793103,-301.7241379310345,-7913.793103448276,992.7931034482758,-681.6551724137931,0
2024-06-13 19:43:39,0.03054326214,0.03298672289,0.02443460934,-1.244984865,-3.790021181,9.184157372,-77.32978723404256,-261.24468085106383,-195.54255319148936,-7870.585106382979,985.7340425531914,-709.9574468085107,0
2024-06-13 19:43:39,0.04642575979,-0.0354301855,-0.01343903504,-1.165976286,-3.696647406,9.088389397,109.10714285714286,-591.0595238095239,59.595238095238095,-7960.297619047619,922.5238095238096,-778.952380952381,0
2024-06-13 19:43:39,0.04642575979,-0.0354301855,-0.01343903504,-1.165976286,-3.696647406,9.088389397,-270.0,178.0,-23.28571428571429,-8046.857142857143,1238.142857142857,-816.2857142857143,0
2024-06-13 19:43:39,0.1502728462,-0.2235766798,-0.09040805697,-1.146822572,-3.780444384,9.30386734,81.81818181818181,34.0,-77.36363636363636,-7881.545454545455,1349.5454545454545,-510.0,0
2024-06-13 19:43:39,0.632856369,0.01588249579,0.1185078546,-0.3447650373,-2.97599268,9.694122314,21.0,-66.69536423841059,-346.8079470198675,-8017.834437086092,1257.1655629139073,-488.682119205298,0
2024-06-13 19:43:39,0.632856369,0.01588249579,0.1185078546,-0.3447650373,-2.97599268,9.694122314,21.0,-77.29139072847683,-314.3576158940397,-7910.549668874172,1064.4503311258277,-486.6953642384106,0
2024-06-13 19:43:39,-0.2724458873,0.06475171447,-0.00122173049,-1.089361787,-3.507505417,9.145850182,-288.1264367816092,-81.4367816091954,-310.18390804597703,-7909.114942528736,986.3448275862067,-468.35632183908046,0
2024-06-13 19:43:39,0.1502728462,0.1185078546,0.07452555746,-1.965639591,-5.214571476,9.248801231,-294.5978260869565,296.6630434782609,-321.20652173913044,-7832.847826086957,966.1304347826087,-777.1304347826087,0
2024-06-13 19:43:39,0.1502728462,0.1185078546,0.07452555746,-1.965639591,-5.214571476,9.248801231,-334.7977528089888,-25.853932584269664,-83.34831460674158,-7848.876404494382,1189.8314606741574,-826.1348314606741,0
2024-06-13 19:43:40,-0.6194173694,0.3408628106,0.3860668242,-1.161187768,-4.209006786,8.731653214,-287.1058823529412,69.05882352941177,-209.2117647058824,-7859.447058823529,1041.3176470588237,-533.035294117647,0
2024-06-13 19:43:40,-0.6194173694,0.3408628106,0.3860668242,-1.161187768,-4.209006786,8.731653214,-352.1348314606741,146.14606741573033,-219.8314606741573,-7833.404494382023,1081.202247191011,-825.7415730337079,0
2024-06-13 19:43:40,0.3652974069,-0.04764748737,-0.1172861308,-1.252167463,-3.849876404,9.040505409,-271.0229885057471,-45.14942528735634,43.67816091954023,-7925.793103448276,680.919540229885,-498.0114942528736,0
2024-06-13 19:43:40,-0.1050688252,0.05742133409,0.02809980139,-1.388636947,-4.048594952,8.985439301,-207.2209302325581,499.5116279069768,67.43023255813954,-7918.906976744186,1029.3488372093022,-743.5232558139535,0
2024-06-13 19:43:40,-0.1050688252,0.05742133409,0.02809980139,-1.388636947,-4.048594952,8.985439301,-214.48314606741573,-59.91011235955057,43.438202247191015,-8215.011235955057,1079.0898876404494,-761.7640449438202,0
2024-06-13 19:43:40,-0.02199114859,-0.09285151958,-0.125838235,-1.434126854,-3.983951569,9.234436035,23.620689655172413,-35.0,-107.06896551724138,-7744.379310344828,1143.3793103448277,-846.6896551724138,0
2024-06-13 19:43:40,0.1197295859,0.02687807009,0.1246165112,-0.05985504389,-3.275267839,8.590395927,-14.75,60.79545454545453,-60.04545454545455,-7995.954545454545,1052.8863636363635,-856.9545454545455,0
2024-06-13 19:43:40,0.1197295859,0.02687807009,0.1246165112,-0.05985504389,-3.275267839,8.590395927,-192.38888888888889,-256.1666666666667,3.48888888888888,-8002.644444444444,978.7444444444444,-633.5444444444445,0
2024-06-13 19:43:40,0.3714060783,0.04520402849,-0.07941248268,-1.434126854,-2.652775526,9.698910713,-170.32258064516128,-24.05806451612904,-93.26451612903226,-7845.941935483871,927.8451612903226,-488.4967741935484,0
2024-06-13 19:43:40,0.3714060783,0.04520402849,-0.07941248268,-1.434126854,-2.652775526,9.698910713,-98.22222222222224,106.22222222222224,-70.33333333333333,-7887.888888888889,957.8888888888888,-491.0,0
2024-06-13 19:43:41,-0.574213326,-0.1026253626,-0.2712241709,-0.3351882398,-3.277662039,9.105149269,-315.07142857142856,70.78571428571428,-23.666666666666657,-7832.5,1130.2619047619048,-406.7857142857143,0
2024-06-13 19:43:41,0.2724458873,-0.283441484,-0.3787364662,-0.9481038451,-4.632780075,8.441955566,-263.9368421052632,-55.82105263157894,118.5157894736842,-7869.231578947369,920.4526315789474,-462.0315789473684,0
2024-06-13 19:43:41,0.2724458873,-0.283441484,-0.3787364662,-0.9481038451,-4.632780075,8.441955566,-96.11409395973156,-80.02684563758389,-124.76510067114094,-7886.845637583892,923.523489932886,-469.12080536912754,0
2024-06-13 19:43:41,-0.8112290502,0.1991420686,0.109955743,-1.249773264,-4.692635536,8.937555313,-246.67441860465115,240.4651162790697,13.790697674418606,-8042.6511627906975,1036.813953488372,-498.2325581395349,0
2024-06-13 19:43:41,0.4911356568,-0.09896016866,-0.03787364438,-1.288080573,-4.493916512,8.765172005,70.625,20.409090909090907,-3.05681818181818,-7959.5,1073.3636363636365,-458.3636363636364,0
2024-06-13 19:43:41,0.4911356568,-0.09896016866,-0.03787364438,-1.288080573,-4.493916512,8.765172005,40.77906976744186,-121.45348837209302,69.44186046511628,-8046.46511627907,1175.7325581395348,-446.8837209302326,0
2024-06-13 19:43:41,-0.1026253626,-0.03909537569,0.01588249579,-1.182735682,-3.993528366,9.057265282,-143.50526315789477,102.47368421052632,45.14736842105263,-7891.452631578947,951.5052631578948,-452.8631578947368,0
2024-06-13 19:43:41,-0.1026253626,-0.03909537569,0.01588249579,-1.182735682,-3.993528366,9.057265282,-98.79761904761904,-29.952380952380963,-113.45238095238096,-7971.75,1042.047619047619,-393.6904761904762,0
2024-06-13 19:43:41,-0.2247984111,0.08429940045,-0.1673770845,0.5530605912,-3.574543238,8.418013573,72.95454545454545,-47.36363636363636,-53.54545454545455,-7873.136363636364,952.5454545454544,-407.77272727272725,0
2024-06-13 19:43:41,0.6572909951,-0.2272418737,0.141720742,-2.023100376,-3.598485231,9.852140427,-239.27586206896552,-51.67816091954023,322.8045977011494,-7821.724137931034,1317.7011494252874,-634.080459770115,0
2024-06-13 19:43:42,-0.1123992056,0.106290549,0.2125810981,-1.082179189,-4.395754337,9.145850182,-267.7586206896552,-88.79310344827586,244.90804597701148,-7844.977011494253,1162.2413793103449,-468.7586206896552,0
2024-06-13 19:43:42,-0.7257078886,0.17715092,-0.9321803451,-1.079784989,-3.366247654,9.263166428,-310.3260869565217,291.89130434782606,70.08695652173913,-7942.304347826087,1167.9891304347825,-562.5,0
2024-06-13 19:43:42,-0.7257078886,0.17715092,-0.9321803451,-1.079784989,-3.366247654,9.263166428,-165.183908045977,172.85057471264366,-24.701149425287355,-7827.896551724138,1189.183908045977,-793.5402298850574,0
2024-06-13 19:43:42,0.7990117669,0.2296853364,0.6914994717,-0.5937620401,-3.440467834,9.524134636,-37.58333333333333,285.4761904761905,-279.70238095238096,-7834.392857142857,1217.1309523809523,-686.6309523809524,0
2024-06-13 19:43:42,0.7990117669,0.2296853364,0.6914994717,-0.5937620401,-3.440467834,9.524134636,-291.75,123.57142857142858,-318.3928571428572,-7843.321428571428,1170.107142857143,-664.6071428571429,0
2024-06-13 19:43:42,0.3677408695,-0.4679227769,0.07819075137,-1.046266198,-3.289633036,9.514557838,-135.25555555555556,76.87777777777777,169.1111111111111,-8011.644444444444,988.5444444444444,-823.7666666666667,0
2024-06-13 19:43:42,0.4593706727,0.3103195429,0.632856369,-0.4285621047,-4.843470097,9.749189377,-77.03278688524591,19.147540983606547,100.24590163934424,-8096.081967213115,1058.9180327868853,-867.360655737705,0
2024-06-13 19:43:42,0.4593706727,0.3103195429,0.632856369,-0.4285621047,-4.843470097,9.749189377,-19.10928961748634,-174.8415300546448,-234.1803278688525,-7917.939890710382,1170.3934426229507,-830.2021857923497,0
2024-06-13 19:43:43,0.4422664344,-0.08307767659,-0.1930334121,-0.05746084079,-4.479551315,8.418013573,502.7142857142857,-225.46938775510205,140.85714285714286,-7845.897959183673,1130.7551020408164,-549.5918367346939,0
2024-06-13 19:43:43,0.4422664344,-0.08307767659,-0.1930334121,-0.05746084079,-4.479551315,8.418013573,-40.33689839572192,-40.70053475935829,-197.4224598930481,-7941.604278074867,1268.764705882353,-543.4224598930481,0
2024-06-13 19:43:43,-0.6658431292,0.1209513173,0.0109955743,-1.482010841,-7.972691536,7.991845131,-197.0213903743316,120.79679144385024,-414.5347593582888,-7949.625668449198,1227.5882352941176,-460.5347593582888,0
2024-06-13 19:43:43,-0.6658431292,0.1209513173,0.0109955743,-1.482010841,-7.972691536,7.991845131,-470.3076923076923,199.03846153846155,-320.61538461538464,-8161.0,1066.3076923076924,-602.8076923076923,0
2024-06-13 19:43:43,0.2797762752,0.3762930036,0.3518583775,-1.379060149,-2.803610086,9.387664795,-264.7647058823529,269.6470588235294,-104.47058823529412,-7839.294117647059,1004.2352941176472,-824.1764705882352,0
2024-06-13 19:43:43,0.4520402849,-0.2003637999,-0.007330383174,-1.15400517,-3.833117008,9.193734169,12.285714285714278,-68.71428571428572,-35.53846153846153,-7850.8351648351645,988.1428571428572,-787.6043956043956,0
2024-06-13 19:43:43,0.4520402849,-0.2003637999,-0.007330383174,-1.15400517,-3.833117008,9.193734169,-112.0909090909091,83.27272727272727,91.9090909090909,-7833.181818181818,1357.5454545454545,-701.1818181818182,0
2024-06-13 19:43:43,0.5106833577,-0.338419348,-0.3909537494,-0.4453215301,-2.501940727,9.313444138,-216.53333333333333,-99.8,77.26666666666667,-7819.733333333334,1049.2666666666669,-529.4,0
2024-06-13 19:43:43,0.06352998316,0.3860668242,0.4105014503,-0.7182605267,-2.425326347,10.25197124,-228.2696629213483,-56.46067415730337,-119.7191011235955,-7829.887640449439,1009.8988764044944,-825.1797752808989,0
2024-06-13 19:43:43,0.06352998316,0.3860668242,0.4105014503,-0.7182605267,-2.425326347,10.25197124,-85.0,-28.200000000000003,-85.3,-7883.3,1294.5,-446.6,0
2024-06-13 19:43:44,-0.3066543639,0.3225368559,-0.06352998316,-0.8858546019,-3.529053211,9.543288231,-159.28735632183907,277.58620689655174,-72.89655172413794,-7822.620689655172,1200.3563218390805,-472.7241379310345,0
2024-06-13 19:43:44,-0.3066543639,0.3225368559,-0.06352998316,-0.8858546019,-3.529053211,9.543288231,94.80851063829788,-127.73404255319149,-135.3936170212766,-8096.574468085107,1302.1914893617022,-450.24468085106383,0
2024-06-13 19:43:44,0.3225368559,-0.00122173049,0.09651670605,-0.940921247,-3.241749048,9.02374649,-55.31944444444446,-101.11111111111111,-274.0833333333333,-8019.111111111111,1268.875,-444.0833333333333,0
2024-06-13 19:43:44,0.04398229718,-0.4092797041,-0.1759291887,-1.297657371,-3.854664803,9.634267807,-476.8472222222222,104.44444444444446,-144.91666666666666,-8013.555555555556,1362.625,-614.9166666666666,0
2024-06-13 19:43:44,0.04398229718,-0.4092797041,-0.1759291887,-1.297657371,-3.854664803,9.634267807,4.386666666666667,-32.653333333333336,-181.66666666666663,-7817.866666666667,1069.8533333333332,-615.7333333333333,0
2024-06-13 19:43:44,-0.2211332172,0.4373795092,0.2797762752,0.2896983922,-4.000710964,9.943120003,74.45263157894736,-85.10526315789474,-199.3368421052632,-7831.915789473684,1086.0947368421052,-594.5684210526316,0
2024-06-13 19:43:44,0.109955743,-0.08918632567,-0.1404990107,-1.039083481,-3.60566783,9.22725296,-102.28571428571428,-10.714285714285715,-154.42857142857142,-7891.0,1110.857142857143,-627.4285714285714,0
2024-06-13 19:43:44,0.109955743,-0.08918632567,-0.1404990107,-1.039083481,-3.60566783,9.22725296,-360.4269662921348,356.2134831460674,-56.71910112359552,-7880.191011235955,942.6629213483146,-497.9325842696629,0
2024-06-13 19:43:44,-0.2296853364,0.1844813079,0.2309070677,-0.8475474119,-3.435679436,9.129091263,-348.59550561797755,-2.4494382022471903,-63.31460674157304,-7963.280898876404,1388.4719101123596,-393.9438202247191,0
2024-06-13 19:43:44,-0.2296853364,0.1844813079,0.2309070677,-0.8475474119,-3.435679436,9.129091263,-367.1777777777778,217.84444444444443,-69.34444444444445,-8031.366666666667,1358.3111111111111,-463.3333333333333,0
2024-06-13 19:43:45,-0.07574728876,-0.02076941915,-0.1111774743,-1.199495077,-3.514688015,9.258378029,-325.49411764705883,72.45882352941176,-279.88235294117646,-7902.8,1372.964705882353,-474.3529411764706,0
2024-06-13 19:43:45,0.05131268129,-0.01954768784,-0.01466076635,-1.237802267,-3.615244627,9.179368973,-150.10344827586206,61.28735632183908,-326.3793103448276,-8034.816091954023,1147.183908045977,-422.44827586206895,0
2024-06-13 19:43:45,0.05131268129,-0.01954768784,-0.01466076635,-1.237802267,-3.615244627,9.179368973,-174.6521739130435,338.2173913043478,-289.3478260869565,-7960.95652173913,1123.5652173913045,-457.7391304347826,0
2024-06-13 19:43:45,-0.08429940045,-0.03909537569,-0.0109955743,-1.091755986,-3.833117008,9.117119789,-173.05882352941177,-63.11764705882353,84.70588235294117,-7914.764705882353,933.8235294117648,-469.4705882352941,0
2024-06-13 19:43:45,0.09529497474,-0.03665191308,0.02565634064,-1.086967587,-3.459621429,9.174580574,-226.66666666666663,117.6,37.56666666666666,-7768.2,945.7,-788.5,0
2024-06-13 19:43:45,0.09529497474,-0.03665191308,0.02565634064,-1.086967587,-3.459621429,9.174580574,-280.52272727272725,311.84090909090907,220.6136363636364,-8212.75,967.25,-778.6363636363636,0
2024-06-13 19:43:45,-0.1001819,-0.01221730467,-0.05497787148,-0.988805294,-3.667917013,9.131484985,-170.13186813186817,312.5164835164835,-108.5934065934066,-7684.967032967032,1534.6043956043957,-663.4175824175825,0
2024-06-13 19:43:45,-0.1001819,-0.01221730467,-0.05497787148,-0.988805294,-3.667917013,9.131484985,-354.9945355191257,-170.78688524590163,-95.15300546448088,-7889.338797814207,1305.3060109289618,-494.9016393442623,0
2024-06-13 19:43:45,0.008552113548,-0.04398229718,-0.02199114859,-1.048660398,-3.529053211,9.172186852,-87.44444444444446,-295.77777777777777,120.88888888888889,-7906.444444444444,1321.111111111111,-459.3333333333333,0
2024-06-13 19:43:45,-0.1185078546,-0.1392772794,-0.01221730467,-1.15161097,-2.956839085,9.124302864,-107.40462427745663,276.66473988439304,-266.1907514450867,-7899.578034682081,1169.0520231213873,-782.1618497109827,0
2024-06-13 19:43:46,-0.1185078546,-0.1392772794,-0.01221730467,-1.15161097,-2.956839085,9.124302864,-426.7872340425532,-278.6808510638298,31.297872340425528,-7908.95744680851,1212.127659574468,-657.5744680851064,0
2024-06-13 19:43:46,0.008552113548,0.1038470939,0.5461135507,-2.300827742,-5.23611927,9.301473618,-47.375,322.3125,61.3125,-7860.4375,1185.9375,-796.4375,0
2024-06-13 19:43:46,-0.09651670605,0.03909537569,-0.1490511149,-1.572990537,-4.656722069,8.832210541,-218.07142857142856,87.5,-375.0,-8036.785714285715,1303.571428571429,-794.2857142857143,0
2024-06-13 19:43:46,-0.09651670605,0.03909537569,-0.1490511149,-1.572990537,-4.656722069,8.832210541,-231.1304347826087,-5.326086956521735,-305.0,-7883.478260869565,1067.1739130434785,-785.4347826086956,0
2024-06-13 19:43:46,0.441044718,-0.3017674387,0.1905899495,-0.3950432837,-1.874659896,9.17697525,73.69411764705882,-103.88235294117646,71.41176470588235,-7834.7411764705885,1255.4470588235297,-798.4705882352941,0
2024-06-13 19:43:46,0.441044718,-0.3017674387,0.1905899495,-0.3950432837,-1.874659896,9.17697525,-273.5730337078652,-110.30337078651688,29.10112359550562,-8059.191011235955,1321.0449438202247,-780.0898876404494,0
2024-06-13 19:43:46,0.326202035,0.04031710699,0.03665191308,-1.309628367,-4.261679173,9.617507935,-332.34065934065933,-65.3956043956044,67.34065934065934,-7835.0,1306.5824175824175,-801.4395604395604,0
2024-06-13 19:43:46,0.1380555481,0.009773843922,0.1808161139,-0.7015010715,-3.131615877,9.909601212,-222.42222222222225,-196.94444444444449,-164.22222222222223,-7849.544444444445,1329.2333333333331,-805.0555555555555,0
2024-06-13 19:43:46,0.1380555481,0.009773843922,0.1808161139,-0.7015010715,-3.131615877,9.909601212,-58.8,-583.7,-1017.0,-7905.1,1293.6,-697.8,0
2024-06-13 19:43:46,-0.4923573732,0.4031710625,-0.06352998316,0.04788403213,-3.052607059,9.354146004,45.305882352941175,-272.7176470588236,-940.7764705882352,-7863.047058823529,854.3294117647059,-590.1764705882352,0
2024-06-13 19:43:47,-0.04398229718,-0.4740314186,-0.5106833577,-0.3136404157,-1.850717902,8.978256226,118.5764705882353,-345.16470588235296,-611.2705882352941,-8219.282352941176,525.0588235294117,-523.2588235294118,0
2024-06-13 19:43:47,-0.04398229718,-0.4740314186,-0.5106833577,-0.3136404157,-1.850717902,8.978256226,-88.01030927835052,-361.4742268041237,-329.90721649484533,-8249.432989690722,563.2474226804123,-226.6701030927835,0
2024-06-13 19:43:47,-0.1356120855,0.004886921961,-0.2101376504,-1.884236693,-3.770867586,9.21528244,-39.568345323741006,-314.49640287769785,-169.88489208633092,-8091.5395683453235,530.863309352518,-168.4820143884892,0
2024-06-13 19:43:47,-0.1356120855,0.004886921961,-0.2101376504,-1.884236693,-3.770867586,9.21528244,-37.9,-74.1,-51.30000000000001,-8217.5,446.1,-364.3,0
2024-06-13 19:43:47,0.05986479297,-0.2443460971,-0.1808161139,-1.556231141,-3.845088005,9.655815125,-342.1123595505618,269.75280898876406,173.13483146067415,-8200.23595505618,488.23595505617976,-360.5505617977528,0
2024-06-13 19:43:47,0.05986479297,-0.2443460971,-0.1808161139,-1.556231141,-3.845088005,9.655815125,-154.3050847457627,243.16949152542367,130.40677966101694,-8227.372881355932,822.4406779661017,-138.23728813559322,0
2024-06-13 19:43:47,0.6585127115,-0.2199114859,0.3652974069,-1.165976286,-1.364694953,9.835380554,-140.180790960452,94.5819209039548,133.79661016949152,-8213.813559322034,842.7796610169491,-156.8813559322034,0
2024-06-13 19:43:47,-0.4092797041,0.7525860071,-0.5290092826,-1.37666595,-2.932897091,10.30464458,-338.9268292682927,318.0243902439024,155.4390243902439,-7920.463414634146,687.2926829268292,-195.1707317073171,0
2024-06-13 19:43:47,-0.4092797041,0.7525860071,-0.5290092826,-1.37666595,-2.932897091,10.30464458,-361.183908045977,282.0574712643678,-47.689655172413794,-7926.494252873563,693.816091954023,-222.816091954023,0
2024-06-13 19:43:48,0.3860668242,0.2406809032,0.125838235,-0.4285621047,-4.431667328,9.030928612,-350.69072164948454,302.64948453608247,-43.886597938144334,-7913.412371134021,708.7835051546392,-239.06185567010309,0
2024-06-13 19:43:48,0.3860668242,0.2406809032,0.125838235,-0.4285621047,-4.431667328,9.030928612,-351.75,317.5,-67.0,-7918.0,739.5,-562.25,0
2024-06-13 19:43:48,0.668286562,0.1001819,0.3054326177,-0.2609679997,-5.329493046,8.24802494,-353.6896551724138,286.3793103448276,-56.3448275862069,-7894.379310344828,746.1149425287356,-590.4597701149426,0
2024-06-13 19:43:48,0.8698720932,-0.9187413454,0.2419026345,-1.391031146,-0.9600749016,9.782708168,-310.35164835164835,277.84615384615387,-11.483516483516482,-7901.692307692308,1053.362637362637,-610.0439560439561,0
2024-06-13 19:43:48,0.8698720932,-0.9187413454,0.2419026345,-1.391031146,-0.9600749016,9.782708168,-142.7674418604651,-59.74418604651163,-75.4186046511628,-7921.372093023256,907.4418604651164,-392.5116279069768,0
2024-06-13 19:43:48,1.246165156,-0.3824016452,0.5265658498,-1.63763392,-2.477998734,10.18493366,-356.7415730337079,-92.82022471910112,-81.91011235955057,-7881.662921348315,917.0112359550562,-627.8539325842696,0
2024-06-13 19:43:48,0.1307251602,0.2736676335,-0.06597344577,-1.30005157,-3.775655985,9.478644371,-306.17977528089887,-122.51685393258428,110.26966292134831,-7869.91011235955,948.0,-614.6966292134831,0
2024-06-13 19:43:48,0.1307251602,0.2736676335,-0.06597344577,-1.30005157,-3.775655985,9.478644371,-339.16470588235296,-104.21176470588236,46.90588235294118,-7897.0,916.9058823529411,-613.5058823529412,0
2024-06-13 19:43:48,-0.381179899,0.3310889602,0.1893682331,-1.795651317,-3.086126089,9.524134636,-313.39325842696627,-117.48314606741572,19.89887640449438,-7891.483146067416,1124.426966292135,-594.1123595505618,0
2024-06-13 19:43:48,-0.381179899,0.3310889602,0.1893682331,-1.795651317,-3.086126089,9.524134636,-265.4418604651163,119.6046511627907,82.23255813953489,-7882.279069767442,1133.7674418604652,-558.1860465116279,0
2024-06-13 19:43:49,0.2272418737,-0.08674286306,-0.0109955743,-1.096544385,-3.071760893,9.224859238,-326.3666666666667,-78.86666666666667,121.93333333333334,-7880.966666666666,946.0666666666668,-585.5666666666667,0
2024-06-13 19:43:49,0.08185594529,-0.06230825558,0.02565634064,-0.9361328483,-3.105279684,9.241618156,-348.4943820224719,-85.38202247191012,34.550561797752806,-7865.23595505618,930.7191011235956,-595.2471910112359,0
2024-06-13 19:43:49,0.08185594529,-0.06230825558,0.02565634064,-0.9361328483,-3.105279684,9.241618156,-2.6666666666666856,-89.94623655913979,-261.48387096774195,-7895.709677419355,897.3978494623656,-627.247311827957,0
2024-06-13 19:43:49,-0.007330383174,0.0,-0.0232128799,-1.012747288,-3.136404276,9.339780807,26.448275862068964,120.10344827586206,-325.2413793103448,-7895.0,1089.8275862068965,-615.2758620689655,0
2024-06-13 19:43:49,0.04398229718,-0.07819075137,-0.007330383174,-1.046266198,-3.165134668,9.399636269,-206.6,-309.6,-285.2,-8182.8,746.6,-467.6,0
2024-06-13 19:43:49,0.04398229718,-0.07819075137,-0.007330383174,-1.046266198,-3.165134668,9.399636269,-296.1123595505618,15.550561797752806,33.674157303370784,-7842.5842696629215,1041.2134831460671,-545.370786516854,0
2024-06-13 19:43:49,0.6609562039,-0.3445279896,0.03787364438,-1.00317049,-2.983175278,8.748413086,-168.2528735632184,-89.71264367816092,-59.79310344827586,-8242.275862068966,1043.1609195402298,-284.17241379310343,0
2024-06-13 19:43:49,0.6609562039,-0.3445279896,0.03787364438,-1.00317049,-2.983175278,8.748413086,-178.4943820224719,-241.96629213483143,-90.38202247191012,-7993.438202247191,1097.584269662921,-363.8314606741573,0
2024-06-13 19:43:49,-0.3836233616,0.4043927789,0.1331686229,-0.4213795066,-4.879383087,9.294290543,-328.39130434782606,160.8695652173913,-77.30434782608695,-7894.913043478261,1066.5652173913045,-365.4347826086956,0
2024-06-13 19:43:49,-0.9896016717,0.04031710699,-1.236391306,-0.01197100803,-2.291250944,8.944737434,-48.15476190476191,-293.1428571428571,-54.69047619047619,-8204.238095238095,988.654761904762,-296.57142857142856,0
2024-06-13 19:43:50,-0.9896016717,0.04031710699,-1.236391306,-0.01197100803,-2.291250944,8.944737434,83.6043956043956,-159.83516483516485,-16.736263736263737,-7919.285714285715,998.7142857142856,-303.5054945054945,0
2024-06-13 19:43:50,0.1368338168,0.2260201424,1.191187263,-1.505952835,-4.12999773,9.124302864,-301.42857142857144,354.3928571428571,107.51190476190476,-7930.726190476191,1107.809523809524,-349.5119047619048,0
2024-06-13 19:43:50,0.7012733221,-0.3066543639,-0.2626720667,-0.5506663918,0.1268926859,9.59835434,-363.7888888888889,16.566666666666666,-84.18888888888888,-8180.8,1137.2222222222222,-148.11111111111111,0
2024-06-13 19:43:50,0.7012733221,-0.3066543639,-0.2626720667,-0.5506663918,0.1268926859,9.59835434,-155.2037037037037,-221.9320987654321,-113.5,-7900.679012345679,1107.641975308642,-353.30864197530866,0
2024-06-13 19:43:50,0.7183775306,0.1197295859,-0.1673770845,-0.3208230138,-5.882553577,8.054094315,-268.16666666666663,149.05555555555554,-63.5,-8010.555555555556,987.8888888888888,-366.8888888888889,0
2024-06-13 19:43:50,0.7183775306,0.1197295859,-0.1673770845,-0.3208230138,-5.882553577,8.054094315,48.36363636363636,-50.77272727272727,1.0,-8069.045454545455,1383.3181818181818,-212.0909090909091,0
2024-06-13 19:43:50,0.5277875662,-0.248011291,0.4691445231,-1.833958507,-3.56496644,9.339780807,-213.1818181818182,138.27272727272728,-136.14772727272728,-7876.875,974.181818181818,-168.67045454545453,0
2024-06-13 19:43:50,-0.4911356568,-0.3714060783,-0.1979203373,-1.549048543,-5.286397457,9.10036087,-240.66666666666663,289.3333333333333,30.0,-7893.666666666667,942.6666666666666,-292.6666666666667,0
2024-06-13 19:43:50,-0.4911356568,-0.3714060783,-0.1979203373,-1.549048543,-5.286397457,9.10036087,-306.20338983050846,330.5762711864407,48.64406779661017,-7913.440677966101,908.2033898305084,-498.8813559322034,0
2024-06-13 19:43:50,-0.4251621962,0.4153883755,0.3139847219,-1.740584612,-4.235342979,9.011775017,-84.55555555555556,101.33333333333334,87.11111111111111,-7903.333333333333,950.2222222222222,-218.5555555555556,0
2024-06-13 19:43:51,0.2138028294,-0.05742133409,-0.08429940045,-1.012747288,-3.821146011,8.939949036,63.329670329670336,97.31868131868131,-86.01098901098902,-7887.186813186813,955.6703296703296,-174.46153846153845,0
2024-06-13 19:43:51,0.2138028294,-0.05742133409,-0.08429940045,-1.012747288,-3.821146011,8.939949036,20.78048780487805,99.21951219512196,125.39024390243902,-8060.182926829269,1356.560975609756,-403.5,0
2024-06-13 19:43:51,0.6646214128,-0.5656611919,-0.2467895597,-1.37427175,-5.111620426,8.532935143,-242.74444444444444,-50.48888888888889,42.01111111111111,-7848.044444444445,1282.7888888888888,-474.18888888888887,0
2024-06-13 19:43:51,0.6646214128,-0.5656611919,-0.2467895597,-1.37427175,-5.111620426,8.532935143,-198.54444444444445,-14.93333333333333,-70.82222222222222,-7944.411111111111,1192.2,-598.2777777777778,0
2024-06-13 19:43:51,-0.235793978,-0.1307251602,-0.03909537569,-1.9321208,-5.035006046,9.363722801,-266.54545454545456,318.52272727272725,-91.22727272727272,-7863.5,1269.5227272727273,-468.34090909090907,0
2024-06-13 19:43:51,0.06352998316,-0.05986479297,-0.2944370508,-0.7805097699,-2.217030764,8.834604263,-224.92045454545456,26.568181818181813,13.534090909090908,-7911.340909090909,982.9204545454544,-422.5681818181818,0
2024-06-13 19:43:51,0.06352998316,-0.05986479297,-0.2944370508,-0.7805097699,-2.217030764,8.834604263,74.91011235955057,-308.53932584269666,62.3370786516854,-7983.539325842697,982.2022471910112,-565.2584269662922,0
2024-06-13 19:43:51,1.932777643,-0.4337143302,-0.3139847219,-0.2992752194,-4.307168961,9.56004715,-283.34831460674155,213.6966292134832,-46.66292134831461,-7854.157303370786,1370.4606741573034,-603.2359550561798,0
2024-06-13 19:43:51,-0.2064724565,-0.1551597714,-0.06841690838,0.09576806426,-2.837129116,8.930372238,-26.696629213483163,-23.5730337078652,-90.70786516853931,-7892.067415730337,1398.8539325842696,-608.3258426966293,0
2024-06-13 19:43:51,-0.2064724565,-0.1551597714,-0.06841690838,0.09576806426,-2.837129116,8.930372238,51.65384615384615,-56.64423076923077,-279.9326923076923,-7836.201923076923,1023.8557692307692,-563.125,0
2024-06-13 19:43:52,-0.2846632004,0.2700024247,-0.1356120855,-0.3543418646,-4.493916512,9.210494041,17.03846153846154,-21.067307692307693,26.798076923076906,-7856.3942307692305,1309.4326923076924,-575.625,0
2024-06-13 19:43:52,-0.2846632004,0.2700024247,-0.1356120855,-0.3543418646,-4.493916512,9.210494041,-345.8988764044944,338.97752808988764,-362.9213483146068,-7920.38202247191,1000.2921348314608,-430.4157303370786,0
2024-06-13 19:43:52,0.779464066,-0.2003637999,0.08918632567,-1.312022567,-3.203441858,9.299078941,-338.03370786516854,131.67415730337078,-362.3595505617977,-8094.539325842697,995.2359550561798,-440.5280898876405,0
2024-06-13 19:43:52,-0.1136209369,0.007330383174,-0.04520402849,-1.098938584,-3.648763418,9.126696587,-189.78481012658227,361.1898734177215,-174.9746835443038,-8081.329113924051,959.4430379746836,-416.2658227848101,0
2024-06-13 19:43:52,-0.1136209369,0.007330383174,-0.04520402849,-1.098938584,-3.648763418,9.126696587,-202.2978723404256,181.6808510638297,-292.1914893617021,-7861.510638297872,937.1702127659574,-643.1276595744681,0
2024-06-13 19:43:52,0.09162978828,-0.2761110961,0.3543018401,-1.759738207,-3.912125587,9.473855972,-179.76190476190476,142.45238095238096,-163.41666666666666,-7915.309523809524,953.309523809524,-589.3690476190476,0
2024-06-13 19:43:52,-0.5803219676,0.06963863969,-0.03054326214,-1.403002143,-5.281609058,9.085995674,-471.8247422680412,10.391752577319588,-182.97938144329896,-7889.515463917526,923.9381443298968,-579.0824742268042,0
2024-06-13 19:43:52,-0.5803219676,0.06963863969,-0.03054326214,-1.403002143,-5.281609058,9.085995674,83.2962962962963,-230.3333333333333,-72.72839506172839,-7888.358024691358,1125.2469135802469,-295.3333333333333,0
2024-06-13 19:43:52,-0.1551597714,0.3445279896,0.09162978828,-1.108515382,-3.811569214,8.997409821,381.5111111111111,-225.5555555555556,-23.84444444444444,-7868.022222222222,1301.6222222222225,-151.84444444444443,0
2024-06-13 19:43:52,-0.1551597714,0.3445279896,0.09162978828,-1.108515382,-3.811569214,8.997409821,-117.75862068965516,-75.28735632183908,-272.3333333333333,-7844.758620689655,1337.9310344827586,-373.9770114942529,0
2024-06-13 19:43:53,-0.09896016866,0.02687807009,0.06841690838,-1.031900883,-3.699041605,9.02374649,29.176470588235293,175.76470588235293,61.11764705882353,-8221.64705882353,1341.0,-224.41176470588235,0
2024-06-13 19:43:53,0.04886921868,0.007330383174,-0.0415388383,-1.132457376,-3.715801001,9.038111687,328.2857142857143,333.956043956044,-291.5824175824176,-8209.626373626374,1184.2197802197802,-534.9120879120879,0
2024-06-13 19:43:53,0.04886921868,0.007330383174,-0.0415388383,-1.132457376,-3.715801001,9.038111687,214.95505617977528,230.40449438202248,-801.5056179775281,-7910.393258426966,1221.685393258427,-549.1460674157304,0
2024-06-13 19:43:53,-0.04031710699,0.02199114859,-0.03787364438,-1.26653266,-3.842693806,9.102754593,-655.0,697.0909090909091,-1305.215909090909,-7872.079545454545,521.784090909091,-652.7840909090909,0
2024-06-13 19:43:53,0.1160643995,0.2309070677,0.1295034289,-0.5650315881,-4.57531929,9.076418877,-393.5172413793104,728.0344827586207,-1047.4827586206898,-7869.724137931034,67.24137931034483,-704.2413793103449,0
2024-06-13 19:43:53,0.1160643995,0.2309070677,0.1295034289,-0.5650315881,-4.57531929,9.076418877,63.994505494505496,654.9010989010989,-395.3681318681319,-7855.7307692307695,280.8901098901099,-1068.357142857143,0
2024-06-13 19:43:53,-0.3518583775,-0.06963863969,-0.1111774743,-0.9648633003,-3.507505417,9.17697525,74.43406593406593,442.8131868131868,-195.9175824175824,-7867.2692307692305,289.68131868131866,-1089.7857142857142,0
2024-06-13 19:43:53,-0.3518583775,-0.06963863969,-0.1111774743,-0.9648633003,-3.507505417,9.17697525,-296.97701149425285,-46.816091954022966,124.5632183908046,-7867.977011494253,172.97701149425288,-1122.6206896551723,0
2024-06-13 19:43:53,-0.2370157093,0.00244346098,-0.4520402849,-0.3687070608,-3.363853455,8.954314232,-358.74149659863946,-239.4897959183673,435.95238095238096,-7854.863945578231,372.7755102040816,-1068.5102040816328,0
2024-06-13 19:43:53,0.590095818,-0.1685988009,-0.06230825558,-0.4788403511,-2.93768549,8.815450668,-143.93478260869566,-126.07608695652176,187.58695652173915,-7982.369565217391,646.9565217391304,-697.054347826087,0
2024-06-13 19:43:54,0.590095818,-0.1685988009,-0.06230825558,-0.4788403511,-2.93768549,8.815450668,-214.57142857142856,-17.285714285714285,281.0,-7943.285714285715,716.8571428571429,-749.0,0
2024-06-13 19:43:54,-0.1185078546,0.06230825558,0.1233947799,-1.252167463,-3.430891037,9.244012833,-595.9435028248588,-318.14689265536725,111.75706214689264,-8027.774011299435,883.0734463276837,-750.1412429378531,0
2024-06-13 19:43:54,0.07819075137,0.06230825558,-0.04398229718,-1.218648672,-3.512293816,9.136273384,-616.8474576271186,-323.79661016949154,71.64406779661016,-8011.389830508475,885.8983050847457,-747.8813559322034,0
2024-06-13 19:43:54,0.07819075137,0.06230825558,-0.04398229718,-1.218648672,-3.512293816,9.136273384,-208.27551020408163,-559.4795918367347,30.56122448979592,-7830.755102040816,429.0408163265306,-836.9489795918367,0
2024-06-13 19:43:54,0.05253441259,0.01221730467,0.009773843922,-1.273715258,-3.414131641,9.143456459,-313.47222222222223,-721.5,-49.41666666666666,-8218.333333333334,822.0833333333334,-579.0833333333334,0
2024-06-13 19:43:54,0.05253441259,0.01221730467,0.009773843922,-1.273715258,-3.414131641,9.143456459,-319.81609195402297,-314.7471264367816,-55.22988505747127,-7951.862068965517,808.4137931034483,-250.8965517241379,0
2024-06-13 19:43:54,-0.02687807009,0.02076941915,-0.00244346098,-1.22583127,-3.526659012,9.083600998,36.35227272727273,-286.32954545454544,-273.75,-8233.704545454546,768.625,-148.3181818181818,0
2024-06-13 19:43:54,0.0109955743,0.0109955743,-0.02443460934,-1.304839969,-3.588908434,9.172186852,270.9340659340659,-218.1318681318681,46.50549450549451,-8133.417582417583,484.6923076923077,-365.8901098901099,0
2024-06-13 19:43:54,0.0109955743,0.0109955743,-0.02443460934,-1.304839969,-3.588908434,9.172186852,1.333333333333333,-509.1666666666667,244.16666666666663,-7786.333333333333,1093.1666666666667,87.5,0
2024-06-13 19:43:54,0.02565634064,0.0109955743,-0.007330383174,-1.352723956,-3.612850428,9.0740242,-158.40425531914894,57.212765957446805,-357.4148936170213,-7676.404255319149,864.2659574468086,83.34042553191489,0
2024-06-13 19:43:55,0.02076941915,-0.01343903504,0.007330383174,-1.328781962,-3.521870613,9.06205368,-181.1764705882353,287.11764705882354,-227.0,-8009.941176470588,833.1176470588235,-92.76470588235291,0
2024-06-13 19:43:55,0.02076941915,-0.01343903504,0.007330383174,-1.328781962,-3.521870613,9.06205368,-58.81111111111112,134.0888888888889,443.4555555555555,-8187.544444444445,887.6555555555556,-335.02222222222224,0
2024-06-13 19:43:55,0.141720742,-0.2052507252,-0.05009094998,-1.345541358,-3.509899616,9.217676163,25.151898734177216,-55.9493670886076,-201.08860759493672,-7900.632911392405,720.4810126582279,57.0,0
2024-06-13 19:43:55,0.141720742,-0.2052507252,-0.05009094998,-1.345541358,-3.509899616,9.217676163,-121.375,269.5,321.375,-8254.25,1065.375,-75.125,0
2024-06-13 19:43:55,-0.03909537569,-0.09040805697,-0.06108652428,-0.6177040339,-3.938461781,8.77235508,-126.2663043478261,267.3260869565217,343.6576086956522,-8261.858695652174,1096.3532608695652,-237.625,0
2024-06-13 19:43:55,-0.3652974069,-0.2712241709,-0.3286454976,-0.7829039693,-1.726219416,9.473855972,-199.1,74.7,-312.8,-8237.6,1003.6,36.8,0
2024-06-13 19:43:55,-0.3652974069,-0.2712241709,-0.3286454976,-0.7829039693,-1.726219416,9.473855972,-325.5,-35.09090909090909,67.25,-8195.90909090909,1030.25,43.72727272727273,0
2024-06-13 19:43:55,1.0726794,-0.4007275999,-0.3762930036,-1.280897856,-5.94719696,8.183381081,-336.6363636363636,-50.81818181818182,-329.90909090909093,-8229.818181818182,980.0,9.181818181818182,0
2024-06-13 19:43:55,-0.2260201424,0.1844813079,0.3164281845,-1.611297727,-3.746925592,9.258378029,-228.23076923076923,-54.69230769230769,-303.0,-8225.307692307691,777.1538461538462,47.30769230769231,0
2024-06-13 19:43:55,-0.2260201424,0.1844813079,0.3164281845,-1.611297727,-3.746925592,9.258378029,-274.57142857142856,309.73809523809524,-284.35714285714283,-8032.928571428572,865.2857142857143,-274.2857142857143,0
2024-06-13 19:43:56,0.05253441259,-0.1343903542,-0.06597344577,-1.44849205,-3.363853455,9.222464561,-645.2173913043478,402.1304347826087,-280.20652173913044,-7908.097826086957,793.9239130434783,-228.0,0
2024-06-13 19:43:56,0.05253441259,-0.1343903542,-0.06597344577,-1.44849205,-3.363853455,9.222464561,-193.21839080459768,227.05747126436785,-164.27586206896552,-8282.114942528735,858.2183908045977,-238.42528735632183,0
2024-06-13 19:43:56,0.2528982162,0.1343903542,0.232128799,-0.6799532771,-3.01429987,9.066842079,-483.0,192.27472527472528,-196.01098901098905,-8195.527472527472,966.2637362637364,-226.9890109890109,0
2024-06-13 19:43:56,-0.07452555746,-0.2431243658,-0.4190535545,-0.806845963,-1.218648672,9.806650162,-553.5176470588235,-111.62352941176472,94.8,-8243.011764705883,860.3882352941176,-206.94117647058823,0
2024-06-13 19:43:56,-0.01221730467,-0.141720742,0.0415388383,-2.197877169,-6.928819656,8.379706383,-525.528735632184,277.08045977011494,-288.1609195402299,-7848.977011494253,683.2988505747127,-258.5632183908046,0
2024-06-13 19:43:56,-0.09285151958,0.2785545588,0.3200933933,-1.407790542,-3.177105665,9.701305389,-311.4,309.50857142857143,83.18285714285715,-8314.794285714286,840.3942857142857,-271.10285714285715,0
2024-06-13 19:43:56,-0.09285151958,0.2785545588,0.3200933933,-1.407790542,-3.177105665,9.701305389,-51.39999999999998,68.93714285714287,84.32571428571428,-8288.50857142857,874.1085714285714,-284.24571428571426,0
2024-06-13 19:43:56,0.7696902156,-0.1319468915,-0.09773843735,-0.3711012602,-1.668758631,9.124302864,-308.0681818181818,159.9659090909091,-46.85227272727273,-8047.261363636364,666.5795454545455,-308.27272727272725,0
2024-06-13 19:43:56,0.7696902156,-0.1319468915,-0.09773843735,-0.3711012602,-1.668758631,9.124302864,-264.6666666666667,22.33333333333333,-76.66666666666667,-8266.555555555555,858.3333333333334,-274.8888888888889,0
2024-06-13 19:43:57,-0.106290549,0.06352998316,0.0109955743,-1.379060149,-3.871424198,9.064447403,-97.59550561797752,77.98876404494382,90.95505617977528,-7871.258426966292,748.1910112359551,-355.7303370786517,0
2024-06-13 19:43:57,-0.1600466967,-0.2101376504,0.02565634064,-1.738190413,-3.782838583,9.088389397,16.941860465116278,11.174418604651152,-39.81395348837208,-8204.67441860465,742.3255813953489,-317.4186046511628,0
2024-06-13 19:43:57,-0.1600466967,-0.2101376504,0.02565634064,-1.738190413,-3.782838583,9.088389397,-646.7405405405406,535.3783783783783,-320.62702702702705,-7924.983783783784,1063.8108108108108,-583.2918918918919,0
2024-06-13 19:43:57,0.1185078546,0.2138028294,0.2211332172,-1.477222443,-3.562572241,9.167398453,-466.65060240963857,-326.566265060241,327.4457831325301,-8182.349397590361,846.3614457831326,-192.9638554216868,0
2024-06-13 19:43:57,0.03909537569,-0.02809980139,-0.02076941915,-1.223437071,-3.734954596,9.102754593,238.63636363636363,301.1363636363636,22.159090909090907,-8059.568181818182,1012.6363636363636,-391.1818181818182,0
2024-06-13 19:43:57,0.03909537569,-0.02809980139,-0.02076941915,-1.223437071,-3.734954596,9.102754593,-213.05882352941177,-57.47058823529412,-57.47058823529412,-7855.117647058823,955.7058823529412,-230.2941176470588,0
2024-06-13 19:43:57,0.006108652335,0.009773843922,0.0,-1.309628367,-3.720589399,9.117119789,-171.80346820809248,150.16184971098266,20.312138728323703,-7878.075144508671,1055.7687861271677,-224.67052023121389,0
2024-06-13 19:43:57,0.006108652335,0.009773843922,0.0,-1.309628367,-3.720589399,9.117119789,-79.0,46.38461538461539,-210.3846153846154,-7882.538461538462,965.2307692307692,-238.30769230769232,0
2024-06-13 19:43:57,-0.1514945775,0.04764748737,0.08063421398,-1.395819545,-3.23456645,9.157821655,-320.92134831460675,-90.1685393258427,-312.19101123595505,-8045.808988764045,696.1123595505618,-231.41573033707863,0
2024-06-13 19:43:58,-0.7538077235,0.141720742,-0.3640756905,-0.5458779931,-3.296815634,9.217676163,-316.3296703296703,-78.38461538461539,66.63736263736264,-7991.0,676.978021978022,-251.7142857142857,0
2024-06-13 19:43:58,-0.7538077235,0.141720742,-0.3640756905,-0.5458779931,-3.296815634,9.217676163,-291.3296703296703,-52.747252747252745,88.04395604395604,-7901.384615384615,736.4285714285714,-447.1648351648352,0
2024-06-13 19:43:58,-0.04520402849,-0.2015855312,-0.3139847219,-0.5530605912,-4.118026733,9.337387085,-360.75,-23.0,117.0,-7916.75,758.75,-531.0,0
2024-06-13 19:43:58,-0.2382374406,0.1747074574,0.06841690838,-1.383848548,-3.60566783,9.323021889,-310.04545454545456,-55.95454545454545,-66.18181818181819,-7920.272727272727,965.4090909090908,-544.5909090909091,0
2024-06-13 19:43:58,-0.2382374406,0.1747074574,0.06841690838,-1.383848548,-3.60566783,9.323021889,-278.60919540229884,-66.65517241379311,118.95402298850574,-7906.298850574713,1050.8735632183907,-537.0229885057471,0
2024-06-13 19:43:58,0.06475171447,-0.02076941915,-0.03909537569,-1.18991828,-3.521870613,9.148244858,-285.5054945054945,-79.57142857142857,99.92307692307692,-7902.0,1034.4835164835165,-520.1098901098901,0
2024-06-13 19:43:58,0.06475171447,-0.02076941915,-0.03909537569,-1.18991828,-3.521870613,9.148244858,-290.26666666666665,-74.78888888888889,112.57777777777778,-7909.577777777778,1032.9444444444443,-525.8444444444444,0
2024-06-13 19:43:58,-0.03787364438,-0.008552113548,-0.02565634064,-1.316810966,-3.512293816,9.10036087,-297.92857142857144,-46.85714285714286,-113.42857142857144,-7898.892857142857,1078.5357142857142,-535.9642857142857,0
2024-06-13 19:43:58,-0.0293215327,0.04764748737,0.02809980139,-1.302445769,-3.610456228,9.222464561,-300.5730337078652,-34.58426966292135,102.52808988764043,-7902.730337078651,1050.943820224719,-546.056179775281,0
2024-06-13 19:43:58,-0.0293215327,0.04764748737,0.02809980139,-1.302445769,-3.610456228,9.222464561,-296.46153846153845,-101.15384615384616,101.3076923076923,-8158.2307692307695,1077.923076923077,-541.9230769230769,0
2024-06-13 19:43:58,0.003665191587,0.01221730467,0.008552113548,-1.441309452,-3.711012602,8.923190117,-321.2413793103448,-57.89655172413793,61.58620689655172,-7881.241379310345,1120.7241379310344,-553.551724137931,0
2024-06-13 19:43:59,0.004886921961,-0.3469714522,-0.1808161139,-1.623268723,-4.814739704,9.021351814,-298.8125,-75.40625,66.40625,-7900.3125,1095.71875,-557.4375,0
2024-06-13 19:43:59,-0.09407325089,0.3066543639,0.2076941878,-1.127668977,-2.33913517,9.346963882,-268.5164835164835,-95.86813186813188,74.03296703296704,-7910.32967032967,1083.5934065934066,-550.1868131868132,0
2024-06-13 19:43:59,-0.09407325089,0.3066543639,0.2076941878,-1.127668977,-2.33913517,9.346963882,-221.0813953488372,-126.1279069767442,50.825581395348834,-7898.744186046511,1077.7906976744189,-255.0,0
2024-06-13 19:43:59,0.03298672289,-0.0354301855,-0.07330382615,-1.285686255,-3.734954596,9.02374649,-298.8,-56.44444444444444,51.333333333333336,-7914.133333333333,1098.7111111111112,-249.46666666666667,0
2024-06-13 19:43:59,0.009773843922,0.0109955743,0.02565634064,-1.340752959,-3.840299606,9.052476883,-297.5217391304348,111.34782608695652,28.43478260869565,-7909.826086956522,1062.608695652174,-225.5217391304348,0
2024-06-13 19:43:59,0.009773843922,0.0109955743,0.02565634064,-1.340752959,-3.840299606,9.052476883,-137.8452380952381,-120.39285714285714,62.25,-7908.488095238095,1052.202380952381,-209.29761904761904,0
2024-06-13 19:43:59,-0.03054326214,0.01221730467,-0.007330383174,-1.304839969,-3.469198227,9.15063858,-292.4269662921348,-64.8314606741573,-22.629213483146067,-7899.483146067416,1037.438202247191,-199.8202247191012,0
2024-06-13 19:43:59,0.07330382615,-0.0109955743,-0.003665191587,-1.283292055,-3.349488258,9.198522568,-360.3,-101.4888888888889,307.5,-7895.833333333333,1139.888888888889,-231.2111111111111,0
2024-06-13 19:43:59,0.07330382615,-0.0109955743,-0.003665191587,-1.283292055,-3.349488258,9.198522568,10.506024096385543,-52.65060240963855,-118.289156626506,-7909.6626506024095,942.4578313253012,-231.10843373493967,0
2024-06-13 19:44:00,0.02199114859,-0.01466076635,0.00244346098,-1.297657371,-3.514688015,9.143456459,56.20879120879121,-120.6923076923077,-224.3956043956044,-7908.252747252747,1110.4395604395604,-230.9010989010989,0
2024-06-13 19:44:00,0.02199114859,-0.01466076635,0.00244346098,-1.297657371,-3.514688015,9.143456459,-359.42045454545456,297.3863636363636,292.84090909090907,-7893.125,695.8863636363636,-204.2159090909091,0
2024-06-13 19:44:00,0.01221730467,0.003665191587,-0.004886921961,-1.352723956,-3.507505417,9.124302864,-322.4590163934426,189.0327868852459,494.9180327868853,-7907.770491803279,1120.7540983606557,-571.0655737704918,0
2024-06-13 19:44:00,-1.180191636,0.1991420686,-1.21195662,-1.00317049,-3.258508444,8.944737434,-336.120218579235,178.10382513661202,322.24043715846994,-7917.606557377049,1136.0546448087432,-582.5409836065573,0
2024-06-13 19:44:00,-1.180191636,0.1991420686,-1.21195662,-1.00317049,-3.258508444,8.944737434,-307.26506024096386,140.710843373494,-351.09638554216866,-7873.373493975903,881.5421686746988,-568.5542168674699,0
2024-06-13 19:44:00,0.3982841372,0.4459316432,0.5192354321,-1.046266198,-3.301604033,8.47786808,-383.55913978494624,147.65591397849462,-276.63440860215053,-7873.268817204301,875.3440860215054,-554.2043010752689,0
2024-06-13 19:44:00,0.5632177591,-0.3200933933,0.3469714522,-2.087743998,-1.841141105,9.502586365,-373.5111111111111,288.24444444444447,-71.86666666666667,-7879.655555555555,730.1666666666666,-550.6888888888889,0
2024-06-13 19:44:00,0.5632177591,-0.3200933933,0.3469714522,-2.087743998,-1.841141105,9.502586365,-316.4943820224719,-67.71910112359551,-10.40449438202247,-8011.640449438202,1087.123595505618,-602.8988764044943,0
2024-06-13 19:44:00,0.441044718,-0.05253441259,-0.02809980139,-2.396595955,-3.766079187,9.830592155,-294.6309523809524,-61.17857142857143,15.214285714285715,-7880.666666666667,1060.845238095238,-596.3928571428571,0
2024-06-13 19:44:00,0.441044718,-0.05253441259,-0.02809980139,-2.396595955,-3.766079187,9.830592155,-294.0,-30.0,-15.0,-7893.0,1115.0,-618.0,0
2024-06-13 19:44:01,0.4605923891,0.1270599663,0.5962044597,-1.046266198,-2.698265314,9.272743225,-309.95522388059703,-52.6865671641791,-106.43283582089552,-7874.671641791045,909.3134328358208,-620.4328358208955,0
2024-06-13 19:44:01,-0.6756169796,-0.1160643995,-0.1808161139,-1.110909581,-3.801992416,9.234436035,-262.3369565217391,-67.07608695652173,122.69565217391305,-7866.402173913043,924.695652173913,-608.0869565217391,0
2024-06-13 19:44:01,-0.6756169796,-0.1160643995,-0.1808161139,-1.110909581,-3.801992416,9.234436035,-91.1413043478261,-71.96739130434783,103.13043478260867,-7863.684782608696,1055.1304347826087,-599.3913043478261,0
2024-06-13 19:44:01,0.02809980139,-0.03176499158,-0.006108652335,-1.031900883,-3.031059265,9.325415611,-315.2962962962963,49.33333333333333,25.679012345679013,-8033.024691358025,959.20987654321,-596.0864197530864,0
2024-06-13 19:44:01,-0.06352998316,-0.04886921868,-0.008552113548,-0.8930372596,-3.488351822,9.167398453,-345.9655172413793,349.0689655172414,29.03448275862069,-8096.931034482759,1038.8275862068965,-436.6896551724138,0
2024-06-13 19:44:01,-0.06352998316,-0.04886921868,-0.008552113548,-0.8930372596,-3.488351822,9.167398453,-91.8876404494382,-167.5730337078652,57.651685393258425,-8285.213483146068,1143.2808988764043,-559.4719101123595,0
2024-06-13 19:44:01,0.007330383174,-0.1637118906,0.09285151958,-1.125274777,-2.647987127,9.686940193,-195.9890109890109,-60.62637362637363,-302.35164835164835,-7950.351648351649,1083.3956043956043,-576.5494505494505,0
2024-06-13 19:44:01,0.007330383174,-0.1637118906,0.09285151958,-1.125274777,-2.647987127,9.686940193,8.666666666666668,96.75,-216.3333333333333,-7899.5,1099.75,-535.9166666666666,0
2024-06-13 19:44:01,-0.6414085031,0.07086037099,-0.1331686229,0.05267243832,-3.670311213,8.882488251,17.555555555555557,88.41666666666667,-134.11111111111111,-7862.833333333333,1118.0833333333333,-546.4722222222222,0
2024-06-13 19:44:01,0.326202035,-0.09285151958,-0.2858849466,-0.8786720037,-4.419696331,9.387664795,-258.64835164835165,-76.20879120879121,-350.38461538461536,-7895.065934065934,727.2967032967033,-614.7692307692307,0
2024-06-13 19:44:02,0.326202035,-0.09285151958,-0.2858849466,-0.8786720037,-4.419696331,9.387664795,-322.45454545454544,12.159090909090908,-362.59090909090907,-7919.318181818182,647.3863636363636,-495.4090909090909,0
2024-06-13 19:44:02,-0.283441484,0.2211332172,0.1783726513,-1.00317049,-3.411737442,9.282320023,88.3409090909091,20.27272727272728,-194.38636363636363,-7972.363636363636,697.9090909090909,-539.2727272727273,0
2024-06-13 19:44:02,0.1673770845,-0.01466076635,0.03909537569,-1.142034173,-3.339911461,9.25358963,53.310344827586206,-34.58620689655173,55.241379310344826,-7926.172413793103,713.2758620689655,-524.8275862068965,0
2024-06-13 19:44:02,0.1673770845,-0.01466076635,0.03909537569,-1.142034173,-3.339911461,9.25358963,-335.46666666666664,9.866666666666667,58.93333333333334,-8196.466666666667,665.4,-214.26666666666668,0
2024-06-13 19:44:02,-0.4532620013,0.06597344577,-0.1881465018,-0.3711012602,-3.169923067,8.908824921,39.39795918367347,-5.41836734693878,-46.63265306122449,-8009.5204081632655,915.4489795918367,-183.08163265306123,0
2024-06-13 19:44:02,-0.4532620013,0.06597344577,-0.1881465018,-0.3711012602,-3.169923067,8.908824921,-213.5853658536585,-63.25609756097561,42.85365853658537,-8116.426829268293,835.8658536585366,-191.76829268292684,0
2024-06-13 19:44:02,-0.01832595654,0.05009094998,-0.04398229718,-1.505952835,-3.452438831,9.255983353,-109.76744186046513,43.046511627906966,-6.674418604651152,-8215.348837209302,864.4186046511628,-318.3953488372093,0
2024-06-13 19:44:02,-0.2052507252,-0.00122173049,-0.0354301855,-1.18991828,-3.368641853,9.47146225,-114.86516853932584,374.5280898876405,-103.30337078651684,-8027.359550561798,1058.3483146067415,-530.685393258427,0
2024-06-13 19:44:02,-0.2052507252,-0.00122173049,-0.0354301855,-1.18991828,-3.368641853,9.47146225,-284.7613636363636,231.9090909090909,-333.3636363636364,-7831.102272727273,1064.0454545454545,-411.5568181818182,0
2024-06-13 19:44:02,-0.0109955743,0.1722639948,0.1087340117,-0.4620809257,-4.740519524,8.978256226,-482.0,550.9767441860465,-281.6744186046512,-7926.3488372093025,988.6744186046512,-851.0697674418604,0
2024-06-13 19:44:03,0.5974262357,-0.2638937831,0.1307251602,-1.800439715,-4.94402647,9.497797966,54.62921348314607,-57.550561797752806,-35.7752808988764,-8239.741573033707,992.1910112359552,-711.2359550561798,0
2024-06-13 19:44:03,0.5974262357,-0.2638937831,0.1307251602,-1.800439715,-4.94402647,9.497797966,-382.6179775280899,-441.9438202247191,-655.5168539325844,-7933.314606741573,1003.7865168539324,-464.70786516853934,0
2024-06-13 19:44:03,-0.3433062732,0.290771842,0.3090978265,-1.199495077,-4.331110954,9.162610054,-546.2307692307693,-35.230769230769226,-1557.6923076923076,-7957.692307692308,953.4615384615385,-504.9230769230769,0
