Timestamp,Gyro_x_x,Gyro_y_x,Gyro_z_x,Acc_x_x,Acc_y_x,Acc_z_x,Gyro_x_y,Gyro_y_y,Gyro_z_y,Acc_x_y,Acc_y_y,Acc_z_y,combined_action_num
2025-06-27 16:50:30.934,3.4356794357299805,-6.682217121124268,4.469974517822266,-0.7916813492774963,-0.9334021210670472,-0.8100073337554932,-8005,150,1551,-10567,3217,873,3
2025-06-27 16:50:31.131,8.523358345031738,-5.717353820800781,5.226542472839356,-0.3689626157283783,-0.6902777552604675,-1.0506882667541504,-6921,3158,747,-475,1668,654,3
2025-06-27 16:50:31.225,8.398859977722168,-4.268861770629883,3.995922565460205,-0.1795943826436996,-0.5595525503158569,-0.9553932547569276,-6457,3106,1533,-4423,1780,1478,3
2025-06-27 16:50:31.419,8.343792915344238,-3.141192674636841,3.3279404640197754,0.1111774742603302,-0.4667010605335235,-0.5070181488990784,-7287,4041,-1526,-1676,4169,380,3
2025-06-27 16:50:31.519,8.918401718139648,-3.162740468978882,3.507505416870117,0.1759291887283325,-0.1966986060142517,-0.1466076523065567,-7026,4498,-2131,-518,2324,-116,3
2025-06-27 16:50:31.626,8.939949035644531,-3.138798475265503,3.758896589279175,0.3677408695220947,0.0769690200686454,0.4813618063926697,-6776,4529,-2405,-765,841,-494,3
2025-06-27 16:50:31.936,9.390059471130373,-8.664615631103516,2.468421936035156,-2.5973989963531494,0.7770205736160278,1.897347450256348,-6071,4652,-1426,-940,-1732,-1045,3
2025-06-27 16:50:32.119,5.03021764755249,-8.238448143005371,1.486799240112305,-0.0806342139840126,-0.0500909499824047,1.9792033433914185,-5950,2524,-205,-1453,-629,-1393,3
2025-06-27 16:50:32.324,1.6831238269805908,-9.050082206726074,1.5729905366897583,-0.1282816976308822,-0.3982841372489929,0.7757988572120667,-7015,1974,-340,-1860,-241,-2118,3
2025-06-27 16:50:32.619,-0.0574608407914638,-8.695740699768066,1.1827356815338137,-0.6829473376274109,-0.4080579876899719,0.4776966273784637,-7516,2113,-152,-2201,-158,-2036,3
2025-06-27 16:50:32.819,-0.5386953949928284,-9.51695156097412,0.7134721279144287,-0.1392772793769836,-0.5351179838180542,0.1966986060142517,-7555,1803,798,-2629,-424,-1236,3
2025-06-27 16:50:33.019,-2.140416383743286,-9.78989028930664,-7.960720539093018,-8.46048355102539,-0.5693264007568359,0.1954768747091293,-7649,712,2100,-4161,117,-1871,3
2025-06-27 16:50:33.221,-1.8411411046981807,-6.294356346130371,-9.239224433898926,-3.578448534011841,-0.9382890462875366,0.1954768747091293,-8164,778,3296,-1552,-878,735,3
2025-06-27 16:50:33.342,-1.5634137392044067,-3.514688014984131,-5.499481201171875,1.1679743528366089,-0.5937610268592834,0.2663372457027435,-7653,2114,2275,2831,1336,396,3
2025-06-27 16:50:33.542,-3.7876269817352295,-7.407660007476807,-7.000645637512207,13.026090621948242,-0.5119050741195679,1.8118263483047483,-8457,-840,2440,-1302,-362,-2659,3
2025-06-27 16:50:33.747,-0.5410895943641663,-3.77565598487854,8.291120529174805,0.475253164768219,0.3995058834552765,-0.0940732508897781,-7840,-328,2255,1172,-333,-30,3
2025-06-27 16:50:33.934,-2.499546527862549,-1.558625340461731,6.335057735443115,0.0488692186772823,0.36529740691185,-0.5974262356758118,-8642,-163,2679,1243,-223,-14,3
2025-06-27 16:50:34.037,-6.1267619132995605,-0.2059013396501541,9.033323287963867,1.240056395530701,-0.2724458873271942,0.3543018400669098,-8103,-349,1418,1405,232,330,3
2025-06-27 16:50:34.260,-3.07415509223938,-10.192116737365724,4.611232280731201,-1.7006487846374512,1.0201449394226074,-1.3060299158096311,-8111,-311,1411,1152,200,288,3
2025-06-27 16:50:34.621,-2.8179752826690674,-10.828974723815918,3.6559460163116455,-3.011565685272217,1.3744467496871948,-1.673770785331726,-8257,551,1812,1255,-623,795,3
2025-06-27 16:50:34.828,-5.16429328918457,-2.8562827110290527,12.155362129211426,-1.3463469743728638,0.9334021210670472,-1.832595705986023,-8070,77,1931,283,-373,-364,3
2025-06-27 16:50:34.919,-0.2537853717803955,-7.161057472229004,4.144362926483154,0.5864306092262268,-0.4911356568336487,1.428202986717224,-8300,620,2261,153,11,370,3
2025-06-27 16:50:35.056,-9.344569206237791,3.955221176147461,8.62630844116211,1.8875735998153689,-0.6108652353286743,1.3927727937698364,-8456,554,2742,-1385,-646,85,3
2025-06-27 16:50:35.334,-5.987898349761963,-6.291962146759033,11.781867027282717,-1.4367550611495972,0.4862487316131592,-0.3665191531181335,-8298,640,3141,-1146,-710,596,3
2025-06-27 16:50:35.419,-5.987898349761963,-6.291962146759033,11.781867027282717,-1.4367550611495972,0.4862487316131592,-0.3665191531181335,-7864,161,2706,-1612,-331,-265,3
2025-06-27 16:50:35.538,-1.5322890281677246,-8.188169479370117,-1.4915876388549805,-1.2021827697753906,0.2907718420028686,-0.6621779203414917,-7842,170,3321,-309,-362,-354,3
2025-06-27 16:50:35.654,-8.042123794555664,5.6455278396606445,11.57596492767334,4.107458114624023,-1.274264931678772,3.378084897994995,-8072,-367,3123,-925,227,-268,3
2025-06-27 16:50:35.719,-3.141192674636841,-6.564900875091553,7.527369976043701,-3.847229242324829,1.7214182615280151,-3.0641000270843506,-8173,9,4119,344,-389,-55,3
2025-06-27 16:50:35.828,-5.731719017028809,1.9584569931030276,13.63258457183838,-3.3316590785980225,0.2565633952617645,-1.8936822414398196,-8728,58,3266,-463,-135,-269,3
2025-06-27 16:50:36.019,-5.791574001312256,10.06043529510498,12.385205268859863,4.034153938293457,-1.5699236392974854,2.3127357959747314,-8203,84,3092,164,251,-596,3
2025-06-27 16:50:36.434,-2.4636335372924805,-10.608707427978516,5.058948040008545,-4.824613571166992,1.4538593292236328,-1.389107584953308,-8359,266,3791,5,-275,369,3
2025-06-27 16:50:36.519,-2.4636335372924805,-10.608707427978516,5.058948040008545,-4.824613571166992,1.4538593292236328,-1.389107584953308,-8359,266,3791,5,-275,369,3
2025-06-27 16:50:36.719,-4.5609540939331055,-1.8770540952682493,10.56800651550293,-4.112344741821289,1.6957619190216064,-3.554013967514038,-8232,-5,4246,184,116,580,3
2025-06-27 16:50:36.830,0.4740519225597381,-3.687070608139038,1.9800047874450684,1.9743164777755735,-0.9370672702789308,0.7757988572120667,-7811,283,4333,430,-259,113,3
2025-06-27 16:50:36.937,-4.168305397033691,-8.068459510803223,6.473921298980713,-5.092172622680664,1.9718730449676516,-3.696956396102905,-8109,112,4143,489,283,-167,3
2025-06-27 16:50:37.019,-4.168305397033691,-8.068459510803223,6.473921298980713,-5.092172622680664,1.9718730449676516,-3.696956396102905,-7840,352,3805,459,87,-111,3
2025-06-27 16:50:37.152,-5.509057998657227,-4.331110954284668,7.1490864753723145,4.76230525970459,-0.3824016451835632,1.588249683380127,-8507,364,3634,270,-157,569,3
2025-06-27 16:50:37.219,-6.313509941101074,-10.378864288330078,6.102819919586182,-7.701788902282715,2.026850938796997,-4.006054401397705,-7676,204,4213,130,-819,-22,3
2025-06-27 16:50:37.320,-0.9026140570640564,-4.941632270812988,7.405265808105469,5.5649824142456055,-1.274264931678772,2.869844913482666,-8228,132,3604,-360,282,63,3
2025-06-27 16:50:37.434,-6.782773494720459,-13.618219375610352,3.246537446975708,4.288273811340332,-0.1356120854616165,1.027475357055664,-8192,-66,4034,-9,-1144,142,3
2025-06-27 16:50:37.539,-5.216965675354004,-11.379640579223633,5.602431774139404,-9.165422439575195,2.007303237915039,-2.2736403942108154,-7774,505,4644,1101,-706,-6,3
2025-06-27 16:50:37.619,-3.936067581176758,-0.1173158809542656,9.222464561462402,6.22593879699707,-2.102598190307617,2.9907963275909424,-7640,396,3795,300,309,-121,3
2025-06-27 16:50:37.736,-1.9800047874450684,2.583343744277954,9.703699111938477,-2.439795732498169,0.098960168659687,-1.6578882932662964,-8089,280,4454,306,-351,-288,3
2025-06-27 16:50:37.819,-4.2760443687438965,-14.915876388549805,8.034940719604492,-4.626693248748779,0.9053022861480712,-1.4208725690841677,-7772,576,4731,637,-63,-706,3
2025-06-27 16:50:37.926,-6.524199485778809,6.703764915466309,10.745177268981934,5.974262237548828,-2.2968533039093018,2.9040534496307373,-7840,187,3745,-339,852,-870,3
2025-06-27 16:50:38.039,-3.2178070545196533,-2.0446481704711914,13.22317600250244,-5.183802604675293,0.8234463334083557,-2.381152629852295,-7772,555,3991,185,-380,208,3
2025-06-27 16:50:38.232,-8.465897560119629,10.062829971313477,13.0914945602417,6.194173812866211,-1.7922786474227903,1.765400528907776,-8712,116,3765,-519,-594,555,3
2025-06-27 16:50:38.437,-0.0311246216297149,-6.414066314697266,0.5171475410461426,2.948035717010498,-0.5143485069274902,0.9370672702789308,-7950,1026,4034,-117,592,43,3
2025-06-27 16:50:38.547,-7.443572998046875,9.981427192687988,11.33654499053955,4.123340606689453,-1.1594222784042358,1.7922786474227903,-8715,105,3857,-430,781,42,3
2025-06-27 16:50:38.720,-5.889736175537109,-2.717418909072876,11.745953559875488,-7.105584621429443,2.094046115875244,-4.371351718902588,-7845,-11,4205,482,-205,269,3
2025-06-27 16:50:38.827,0.6392518281936646,-1.939303398132324,3.751713991165161,5.083620548248291,-1.2217304706573486,1.291369080543518,-7984,826,4181,-105,449,-900,3
2025-06-27 16:50:38.936,-5.032611846923828,-13.563152313232422,4.395754337310791,-9.602801322937012,1.9914207458496092,-2.945592164993286,-7965,334,4204,781,-217,885,3
2025-06-27 16:50:39.133,-1.0893617868423462,-6.651092529296875,7.338228225708008,5.236336708068848,-1.540602207183838,3.152064561843872,-7841,684,3662,418,799,1138,3
2025-06-27 16:50:39.219,-5.906495571136475,-10.290278434753418,9.500192642211914,-8.20147705078125,1.7092009782791138,-2.886949062347412,-8018,387,4156,191,-1600,98,3
2025-06-27 16:50:39.332,2.7724854946136475,0.363918662071228,2.6623523235321045,6.250373363494873,-2.107485055923462,2.161241292953491,-8016,1268,3793,-556,334,871,3
2025-06-27 16:50:39.421,-6.878541469573975,-10.17296314239502,4.462791919708252,5.400048732757568,0.1759291887283325,0.5082398653030396,-8320,748,3751,-680,24,141,3
2025-06-27 16:50:39.522,-7.213729858398437,-11.4849853515625,6.797138690948486,-8.825780868530273,1.673770785331726,-3.533244609832764,-8024,832,4425,-330,-734,-556,3
2025-06-27 16:50:39.639,3.3854012489318848,-1.8531121015548704,3.813963413238525,6.19783878326416,-1.9132299423217771,2.3017401695251465,-8520,594,4185,129,304,38,3
2025-06-27 16:50:40.253,-5.092466831207275,0.6823474764823914,13.03403377532959,-4.709771156311035,0.5290092825889587,-3.455053806304932,-7579,1013,4533,830,-146,3,3
2025-06-27 16:50:40.326,-0.8188169598579407,-12.66053867340088,3.864241600036621,-8.420166969299316,2.0891592502593994,-2.079385280609131,-8040,1146,4722,-259,111,53,3
2025-06-27 16:50:40.426,0.1747767180204391,-10.666168212890623,1.580173134803772,1.214400053024292,-0.7195992469787598,1.5454890727996826,-8067,851,4420,-215,565,129,3
2025-06-27 16:50:40.543,-3.770867586135864,-1.3623007535934448,8.078036308288574,2.8270843029022217,-1.8765780925750728,2.7036895751953125,-8100,812,4416,-129,214,194,3
2025-06-27 16:50:40.735,-2.935291290283203,-5.39174222946167,6.27280855178833,-4.767192363739014,1.6505578756332395,-3.011565685272217,-7161,671,5178,753,989,-1477,3
2025-06-27 16:50:40.919,1.37906014919281,-7.541735172271728,-0.7565677165985107,0.394618958234787,-0.8026769161224365,1.2974777221679688,-8213,220,4397,-1717,-730,286,3
2025-06-27 16:50:41.019,-4.079719543457031,-4.517858505249023,8.803479194641113,2.1587977409362797,-1.447750687599182,2.31640100479126,-7759,-378,4522,-705,-645,-756,3
2025-06-27 16:50:41.136,-6.3733649253845215,4.086902141571045,11.171344757080078,2.6792550086975098,-0.8698720932006836,2.057394027709961,-7875,-15,4561,220,-28,-481,3
2025-06-27 16:50:41.428,1.3192051649093628,-11.33654499053955,-1.6831238269805908,-1.246165156364441,0.9553932547569276,-0.6316346526145935,-7771,872,4512,36,254,348,3
2025-06-27 16:50:41.536,1.3192051649093628,-11.33654499053955,-1.6831238269805908,-1.246165156364441,0.9553932547569276,-0.6316346526145935,-7771,872,4512,36,254,348,3
2025-06-27 16:50:41.919,-3.612850427627564,-0.3974374830722809,10.539276123046877,-2.802649736404419,0.1905899494886398,-2.113593816757202,-8274,224,4445,-452,212,375,3
2025-06-27 16:50:42.019,-0.3375824391841888,-5.961562156677246,6.912060260772705,1.819156646728516,-0.5876523852348328,-0.8784242272377014,-8217,872,4353,-1913,1321,637,3
2025-06-27 16:50:42.231,-4.661510944366455,-8.022970199584961,10.160991668701172,2.5228734016418457,-0.4166100919246673,0.4789183437824249,-7835,585,4475,-1165,437,118,3
2025-06-27 16:50:42.531,2.2816741466522217,-12.768278121948242,3.756502389907837,0.1233947798609733,0.0684169083833694,0.5253441333770752,-7916,879,4270,-434,236,1045,3
2025-06-27 16:50:42.619,-0.9433154463768004,-8.030152320861816,2.9041666984558105,0.7024950385093689,-0.8772025108337402,2.5607471466064453,-8218,301,4393,-441,540,105,3
2025-06-27 16:50:42.828,-5.118803024291992,-1.012747287750244,11.310209274291992,0.1771509200334549,-0.685390830039978,1.4501941204071045,-7830,352,4443,1897,-799,273,3
2025-06-27 16:50:42.935,-4.8482584953308105,2.8562827110290527,10.599130630493164,0.461814135313034,-0.4581489264965057,0.8881980776786804,-7826,1638,4465,2054,70,258,3
2025-06-27 16:50:43.142,-5.025429248809815,-1.6879122257232666,10.230423927307127,1.216843605041504,0.2541199326515198,-0.5681046843528748,-8048,1672,4296,-689,308,964,3
2025-06-27 16:50:43.430,5.305551052093506,-13.350069046020508,-1.3120225667953491,0.0122173046693205,-0.4434881806373596,2.1368067264556885,-7639,623,3762,-2655,404,19,3
2025-06-27 16:50:43.533,-5.714959621429443,-7.723694801330566,3.409343242645264,0.6401867866516113,-2.4055874347686768,2.984687566757202,-8219,-257,3575,-1366,754,-411,3
2025-06-27 16:50:43.729,-4.841075897216797,4.4532151222229,12.938265800476074,0.759916365146637,-2.03540301322937,3.2962288856506348,-8214,-310,3338,149,742,-187,3
2025-06-27 16:50:43.819,-6.370970726013184,-1.434126853942871,9.72285270690918,0.5192354321479797,1.359786033630371,-1.973094701766968,-8286,1503,3845,735,-229,942,3
2025-06-27 16:50:44.030,-4.446032524108887,-6.279991149902344,4.81473970413208,-0.8674286603927612,2.107485055923462,-2.1783454418182373,-8024,1638,3926,-909,-32,808,3
2025-06-27 16:50:44.219,-3.3231520652771,-9.457097053527832,0.2298433631658554,0.2382374405860901,-1.7666223049163818,0.9346238374710084,-8456,852,3058,-1579,326,244,3
2025-06-27 16:50:44.438,-5.159504890441895,1.414973258972168,10.450690269470217,-0.0464257597923278,1.1276572942733765,-1.166752576828003,-8221,2094,4200,1194,-326,-440,3
2025-06-27 16:50:44.619,-2.7102363109588623,-9.188945770263672,1.965639591217041,-0.9627236127853394,1.626123309135437,-1.683544635772705,-8026,1481,3388,-411,876,152,3
2025-06-27 16:50:44.825,-1.1013327836990356,-8.489839553833008,0.706289529800415,0.5558874011039734,-2.0500638484954834,1.4526375532150269,-8486,666,3008,-554,79,-1081,3
2025-06-27 16:50:44.920,-5.264849662780762,-2.580949544906616,8.20492935180664,0.2736676335334778,-2.8551840782165527,1.7971655130386353,-7966,-617,3225,1370,20,-1472,3
2025-06-27 16:50:45.019,-5.264849662780762,-2.580949544906616,8.20492935180664,0.2736676335334778,-2.8551840782165527,1.7971655130386353,-8134,543,3153,2581,627,-1221,3
2025-06-27 16:50:45.336,-4.4508209228515625,-6.433219909667969,7.649474620819092,-0.6621779203414917,1.4172073602676392,-1.5222761631011963,-8045,1674,3256,-641,163,1363,3
2025-06-27 16:50:45.524,-2.985569477081299,-7.812280178070068,1.9560627937316892,-0.0684169083833694,-1.147204875946045,0.6487388610839844,-7836,1431,3073,-2316,1287,1177,3
2025-06-27 16:50:45.730,-4.527435302734375,-2.056619167327881,10.271124839782717,-0.4288274049758911,1.595579981803894,-1.441641926765442,-8032,1919,3443,1907,-1011,229,3
2025-06-27 16:50:46.131,-4.642356872558594,-0.0550666376948356,8.987833023071289,0.9932668805122375,-2.196671485900879,1.813048005104065,-7936,2353,3087,-1549,313,610,3
2025-06-27 16:50:46.233,-2.85867691040039,-9.05247688293457,11.638214111328123,-0.0134390350431203,0.7159340381622314,0.2895501255989074,-7986,1380,3477,1467,-1658,-328,3
2025-06-27 16:50:46.323,-2.85867691040039,-9.05247688293457,11.638214111328123,-0.0134390350431203,0.7159340381622314,0.2895501255989074,-7986,1380,3477,1467,-1658,-328,3
2025-06-27 16:50:46.530,0.969651699066162,-15.569493293762209,-1.6974890232086182,-0.1136209368705749,0.2834414839744568,-0.5021312236785889,-7081,2481,4281,-14,-167,240,3
2025-06-27 16:50:46.619,-0.150834709405899,-11.824962615966797,-1.939303398132324,-0.2956587672233581,-1.0592403411865234,1.177748203277588,-7583,2285,3296,-615,1126,-93,3
2025-06-27 16:50:47.019,-4.69024133682251,-2.786850690841675,8.633491516113281,-0.2321287989616394,1.0910053253173828,-1.7605136632919312,-7357,2743,4130,1993,-1321,-287,3
2025-06-27 16:50:47.119,-3.562572240829468,-7.280767440795898,4.472368717193604,-1.1264355182647705,1.2999212741851809,-2.2687535285949707,-7093,3306,3869,-1373,949,128,3
2025-06-27 16:50:47.219,3.608062028884888,-16.23029327392578,-2.279279947280884,0.1588249653577804,0.2651155292987823,-0.36529740691185,-7497,3095,3674,-2663,1796,366,3
2025-06-27 16:50:47.319,0.0335188247263431,-10.778696060180664,-1.2449848651885986,-1.0897835493087769,-1.0519099235534668,1.447750687599182,-7918,1906,3049,-1597,1084,-249,3
2025-06-27 16:50:47.427,-5.537788391113281,-6.1315507888793945,7.16584587097168,0.4068362414836883,-1.946216702461243,2.152689218521118,-8219,1445,3842,781,-246,-848,3
2025-06-27 16:50:47.642,-6.200982570648193,1.702277421951294,10.168174743652344,0.7867944240570068,0.2858849465847015,-1.2901474237442017,-7745,2671,4351,1997,-1089,-844,3
2025-06-27 16:50:47.933,3.780444383621216,-15.64610767364502,-3.129221677780152,-1.7153096199035645,0.0,-0.0965167060494422,-8489,1201,889,-526,2194,-665,3
2025-06-27 16:50:48.119,-0.8451532125473022,-9.08838939666748,0.8523358106613159,0.607200026512146,-1.156978726387024,1.6884315013885498,-8513,599,640,132,392,-731,3
2025-06-27 16:50:48.231,-4.594472885131836,-2.3726539611816406,10.187328338623049,1.4782938957214355,-1.3720033168792725,2.279749155044556,-8065,190,694,1052,-627,-753,3
2025-06-27 16:50:48.340,-4.6950297355651855,5.327098846435547,13.326127052307127,0.9077457785606384,-0.3274237811565399,0.8234463334083557,-8239,578,748,1339,-507,-553,3
2025-06-27 16:50:48.425,-4.228160381317139,0.1532289087772369,10.029311180114746,0.7269296646118164,0.2528982162475586,0.0769690200686454,-8073,1582,1796,213,-1558,269,3
2025-06-27 16:50:48.844,-4.264073371887207,1.81959331035614,13.266271591186523,0.0525344125926494,-1.4098769426345823,1.176526427268982,-8051,-97,3398,-3084,-1524,1646,3
2025-06-27 16:50:49.019,-6.555324077606201,-0.8523358106613159,9.016563415527344,0.1661553531885147,0.4899139404296875,-0.2932153046131134,-7301,488,3568,-2149,-1897,2082,3
2025-06-27 16:50:49.140,-4.565742492675781,-4.378994941711426,8.492233276367188,0.3090978264808655,1.6664403676986694,-1.2705997228622437,-6844,3765,5342,-392,-1654,2027,3
2025-06-27 16:50:49.238,-4.290409564971924,-5.580883979797363,4.278438568115234,-0.4043927788734436,1.750739812850952,-1.7385225296020508,-6972,3514,5658,-136,-519,263,3
2025-06-27 16:50:49.422,-1.2186486721038818,-11.262324333190918,-0.5578489899635315,0.6829473376274109,-1.0922271013259888,0.7660250067710876,-7340,2686,4471,-176,-416,-1513,3
2025-06-27 16:50:49.531,-5.284003257751465,3.318363666534424,15.52160930633545,1.9413297176361084,-1.1362093687057495,0.6902777552604675,-7706,1642,4269,3613,-943,-654,3
2025-06-27 16:50:49.820,-3.117250680923462,-4.137180328369141,6.94079065322876,-0.1722639948129654,1.2779301404953003,-1.1496484279632568,-7351,2044,4332,3553,-749,-449,3
2025-06-27 16:50:50.119,-0.2968810200691223,-9.77791976928711,0.3160346150398254,0.6988298296928406,-0.6780604124069214,0.940732479095459,-7695,2546,4486,3116,-787,-236,3
2025-06-27 16:50:50.319,-3.6320040225982666,3.754108190536499,12.595894813537598,2.0231857299804688,-1.036027431488037,1.6505578756332395,-7637,2007,4280,1715,-915,-536,3
2025-06-27 16:50:50.428,-5.216965675354004,0.1125274822115898,9.971850395202637,-0.8808676600456238,0.6279694437980652,-0.058643065392971,-7723,2046,4645,1712,-973,-605,3
2025-06-27 16:50:50.519,-5.228936672210693,-1.460463047027588,8.542511940002441,-0.197920337319374,0.8161159753799438,-1.67254900932312,-7696,2341,4485,1679,-925,-607,3
2025-06-27 16:50:50.745,1.5059528350830078,-12.02846908569336,-0.0622492432594299,0.6499606370925903,-0.7440338730812073,1.2424999475479126,-7524,2641,5572,1080,-976,93,3
2025-06-27 16:50:50.919,-3.4835634231567383,-6.150704383850098,7.711723804473877,0.8943067193031311,-1.6517796516418457,2.1783454418182373,-8119,2096,3564,580,647,303,3
2025-06-27 16:50:51.019,-1.6424223184585571,5.157110691070557,12.677297592163086,0.6914994716644287,-0.0879645943641662,0.8515461683273315,-8034,1756,4052,1802,-1338,-379,3
2025-06-27 16:50:51.119,-4.23773717880249,3.0885202884674072,8.880094528198242,0.5375614166259766,0.2370157092809677,-0.6475171446800232,-7673,2092,4338,1916,-1457,9,3
2025-06-27 16:50:51.330,-5.078101634979248,-3.821146011352539,9.074024200439451,0.0195476878434419,0.7757988572120667,-2.207667112350464,-7472,1349,4979,3121,-2192,66,3
2025-06-27 16:50:51.529,0.3423708379268646,-10.08198356628418,5.078101634979248,0.1380555480718612,0.147829383611679,0.1685988008975982,-7566,2546,4241,-1775,1374,1345,3
2025-06-27 16:50:51.719,-6.466738700866699,-1.766920804977417,9.749189376831056,0.2370157092809677,-1.1606439352035522,2.5888469219207764,-7414,2590,4517,1490,-168,-1315,3
2025-06-27 16:50:51.829,-3.663128614425659,6.62236213684082,10.029311180114746,0.759916365146637,0.0500909499824047,1.119105100631714,-7356,2332,4565,3000,-1290,-1370,3
2025-06-27 16:50:52.219,-1.2258312702178955,-9.708487510681152,0.7422025203704834,-3.089756488800049,0.9456194043159484,-2.7769935131073,-6826,3058,5648,752,-938,-312,3
2025-06-27 16:50:52.426,-0.4213795065879822,-4.486733913421631,0.6177040338516235,3.302337408065796,-0.7220427393913269,0.788016140460968,-7589,2257,4333,-141,-224,-81,3
2025-06-27 16:50:52.536,-8.904036521911621,-11.693281173706056,3.588908433914185,-0.3726277947425842,-0.5925393104553223,-1.5063936710357666,-7528,1938,5268,1034,-1356,-406,3
2025-06-27 16:50:52.721,1.4484920501708984,-13.843274116516112,-1.601720929145813,0.3176499307155609,0.7574729323387146,1.0946705341339111,-7000,2229,5037,402,-1081,-408,3
2025-06-27 16:50:52.851,-7.146692276000977,-7.070077419281006,8.446743965148926,1.7751743793487549,-0.7220427393913269,-0.5791002511978149,-7442,1957,5232,-68,-12,345,3
2025-06-27 16:50:53.219,-3.914519786834717,-14.43224811553955,10.187328338623049,-1.9901989698410036,0.2504547536373138,-0.9443976879119872,-7194,2925,4824,-36,-175,-114,3
2025-06-27 16:50:53.332,-3.914519786834717,-14.43224811553955,10.187328338623049,-1.9901989698410036,0.2504547536373138,-0.9443976879119872,-7194,2925,4824,-36,-175,-114,3
2025-06-27 16:50:53.636,-7.326257228851318,-6.497863292694092,9.009381294250488,0.271224170923233,-0.2199114859104156,-0.9810495972633362,-7312,2116,5099,-681,-110,189,3
2025-06-27 16:50:53.719,-0.4405331015586853,-12.895170211791992,3.203441858291626,-0.8417723178863525,0.8552113175392151,-0.7757988572120667,-7240,2808,4960,-535,-208,-86,3
2025-06-27 16:50:54.019,-5.959167957305908,-8.652645111083984,9.301473617553713,-0.8686503767967224,-1.55892813205719,0.6597344875335693,-7744,1833,4749,-874,520,313,3
2025-06-27 16:50:54.247,-1.7142484188079834,-0.1771709322929382,8.880094528198242,0.4789183437824249,-0.7195992469787598,0.8796459436416626,-7474,3399,4951,-1574,1361,1048,3
2025-06-27 16:50:54.631,-2.691082715988159,-1.9105730056762693,11.27190113067627,1.4721852540969849,-1.9559905529022217,1.2522737979888916,-7484,3062,3816,-1974,3703,647,3
2025-06-27 16:50:54.836,-0.545877993106842,-3.141192674636841,10.256759643554688,-0.4190535545349121,0.607200026512146,-0.6304129362106323,-7598,2636,3326,-2822,3195,527,3
2025-06-27 16:50:55.219,-2.432508945465088,-2.205059766769409,9.895236015319824,2.001194477081299,-2.1563544273376465,1.2327260971069336,-8208,2314,1534,-253,523,-671,3
2025-06-27 16:50:55.419,-1.5418659448623655,-2.516305923461914,14.226346969604492,0.5241223573684692,0.1490511149168014,-0.4605923891067505,-8022,1782,1769,1406,-1095,-430,3
2025-06-27 16:50:55.619,-2.1978771686553955,-6.619967937469482,3.450044631958008,-1.7250834703445437,1.7580702304840088,-1.538158655166626,-7995,2399,2508,31,-396,-164,3
2025-06-27 16:50:55.934,-2.717418909072876,0.3806780576705932,12.665327072143556,2.455678224563598,-1.266934514045715,0.970054030418396,-7861,1695,2932,879,-1278,-480,3
2025-06-27 16:50:56.219,-2.47560453414917,-9.761159896850586,2.559401512145996,-0.5143485069274902,1.3096951246261597,-1.3451253175735474,-7376,2292,3978,1676,-1855,0,3
2025-06-27 16:50:56.319,1.5298948287963867,-14.535198211669922,-2.389413356781006,-0.342084527015686,0.452040284872055,-0.0940732508897781,-7424,2051,4176,-2071,57,-554,3
2025-06-27 16:50:56.426,-2.4899697303771973,-11.322179794311523,-1.620874524116516,-0.3909537494182586,-1.2596040964126587,1.0775662660598757,-7982,1890,3890,-2065,802,533,3
2025-06-27 16:50:56.631,-4.410119533538818,-4.745307922363281,7.726089000701904,0.856433093547821,-2.1368067264556885,1.858252048492432,-8256,1853,3499,166,-117,793,3
2025-06-27 16:50:57.025,-1.807622313499451,-7.134721279144287,4.20421838760376,-1.995085835456848,1.742187738418579,-1.5931365489959717,-7463,3338,4567,-1589,1349,791,3
2025-06-27 16:50:57.120,-0.3758896589279175,-13.66610336303711,-3.428496837615967,-1.1630873680114746,0.3213151097297668,-0.5375614166259766,-7326,3236,4104,-3407,1256,511,3
2025-06-27 16:50:57.232,-2.1499931812286377,-10.819397926330566,0.0095768067985773,-0.2993239760398865,-1.9987510442733765,0.7024950385093689,-7550,3353,3832,-3702,1215,795,3
2025-06-27 16:50:57.323,-5.451597213745117,-6.2392897605896,12.9741792678833,1.7751743793487549,-2.427578449249268,1.8460347652435305,-7411,2254,3782,-2513,865,367,3
2025-06-27 16:50:57.534,-1.259350061416626,-2.2601263523101807,6.9024834632873535,0.3530801236629486,1.4929546117782593,-0.2138028293848037,-7368,3075,4663,2073,-957,792,3
2025-06-27 16:50:57.733,-3.579331636428833,-11.571176528930664,-0.5722141861915588,-0.5534439086914062,-0.6988298296928406,-1.2559388875961304,-6827,3430,4740,1446,-1074,853,3
2025-06-27 16:50:57.931,-4.074931144714356,-3.1507694721221924,12.401965141296388,0.9334021210670472,-0.2419026345014572,1.389107584953308,-7410,2765,3013,997,-559,-13,3
2025-06-27 16:50:58.025,-2.126051187515259,-2.9688100814819336,8.434772491455078,0.4361577928066253,1.076344609260559,0.0830776765942573,-7361,3384,3412,1491,-489,338,3
2025-06-27 16:50:58.141,-0.0430956296622753,-4.271255970001221,2.3104045391082764,-0.9517280459403992,1.3353514671325684,-1.3854423761367798,-7303,3651,3667,1893,-765,180,3
2025-06-27 16:50:58.224,-2.930502891540528,-11.563994407653809,-1.213860273361206,-0.5387831330299377,-0.8662069439888,-1.359786033630371,-7035,3741,4408,1363,-160,-12,3
2025-06-27 16:50:58.320,-5.243301868438721,-10.687716484069824,10.067618370056152,0.9529497623443604,-2.1759018898010254,1.1349875926971436,-7159,2781,3146,-1480,220,-403,3
2025-06-27 16:50:58.459,-1.3838485479354858,-1.3646949529647827,12.648567199707031,1.1606439352035522,0.140499010682106,1.045801281929016,-7384,2478,3116,-1170,517,-705,3
2025-06-27 16:50:58.528,-1.7525556087493896,-1.5873557329177856,6.48828649520874,-0.0916297882795333,1.3377948999404907,-0.5644394755363464,-7683,2485,3096,-828,167,-813,3
2025-06-27 16:50:58.743,-4.783615112304688,-14.420276641845703,4.029441356658936,-0.0268780700862407,-1.833817481994629,-0.3481931984424591,-7732,2960,3778,-24,562,-591,3
2025-06-27 16:50:58.929,0.3016694188117981,-4.005499362945557,10.24239444732666,-0.1466076523065567,1.0885618925094604,0.2748893499374389,-7716,3860,3107,-2121,1879,-2977,3
2025-06-27 16:50:59.022,-0.7326257228851318,-4.505887508392334,3.5051112174987797,-0.2125810980796814,1.0897835493087769,-0.8930850028991699,-7826,1539,3367,-2283,2365,-320,3
2025-06-27 16:50:59.119,-3.3494882583618164,-11.762712478637695,6.66785192489624,-0.351858377456665,-1.742187738418579,0.0549778714776039,-8319,1486,1503,-3510,4258,-1042,3
2025-06-27 16:50:59.329,-2.0374655723571777,-4.383783340454102,12.61265468597412,1.52105450630188,-0.4190535545349121,1.1081095933914185,-8052,943,247,-3427,3189,-1703,3
2025-06-27 16:50:59.537,0.90979665517807,-4.972756862640381,2.6455929279327397,-0.7770205736160278,0.912632703781128,-1.350012183189392,-7813,1136,138,-3329,3094,-1893,3
2025-06-27 16:50:59.631,0.90979665517807,-4.972756862640381,2.6455929279327397,-0.7770205736160278,0.912632703781128,-1.350012183189392,-7973,610,55,-1368,2320,-875,3
2025-06-27 16:50:59.939,0.6871358752250671,-1.8962076902389529,3.24414324760437,-0.2761110961437225,2.0256290435791016,-1.4135421514511108,-7746,1180,-317,-1028,1015,805,3
2025-06-27 16:51:00.038,-0.3351882398128509,-10.666168212890623,-1.4484920501708984,-0.8026769161224365,-0.4288274049758911,-1.4672982692718506,-7295,2414,305,1030,-1232,1782,3
2025-06-27 16:51:00.131,-1.0414776802062988,-12.507309913635254,8.085219383239746,-0.8161159753799438,-1.7043139934539795,0.0916297882795333,-7394,2911,-124,406,-412,1545,3
2025-06-27 16:51:00.223,-3.1459810733795166,-6.114790916442871,13.55357551574707,2.367713689804077,-0.1453859210014343,1.654223084449768,-7683,2612,-285,897,-1560,750,3
2025-06-27 16:51:00.442,0.48602294921875,-9.32302188873291,2.4444799423217773,1.0616837739944458,-1.0519099235534668,-0.8307767510414124,-7171,3909,1579,2937,-3433,2407,3
2025-06-27 16:51:00.626,-2.0231003761291504,-8.628703117370605,12.897564888000488,0.7281513810157776,-0.7330383062362671,0.759916365146637,-7011,3546,1281,1759,-1706,421,3
2025-06-27 16:51:00.735,-0.5027823448181152,-3.907337188720703,9.131484985351562,0.8833111524581909,1.0067058801651,0.4227187633514404,-7283,3376,760,2211,-1579,770,3
2025-06-27 16:51:00.839,1.0773907899856567,-5.046977043151856,1.8794482946395876,-1.1520918607711792,0.6585127115249634,-0.90408056974411,-6904,3875,960,2757,-1517,1236,3
2025-06-27 16:51:01.028,-2.4205379486083984,-13.668497085571287,7.7213006019592285,0.1832595765590667,-1.235169529914856,0.5619960427284241,-6530,4785,1170,432,-476,379,3
2025-06-27 16:51:01.420,0.5793967843055725,-5.973533153533936,9.651026725769045,2.726902484893799,0.2052507251501083,1.282817006111145,-7763,2212,177,12,-88,-499,3
2025-06-27 16:51:01.619,1.807622313499451,-4.611232280731201,0.6751648783683777,0.3335324227809906,0.7342600226402283,-0.5717698931694031,-7298,2472,464,536,-795,335,3
2025-06-27 16:51:01.726,2.2457611560821533,-9.825803756713867,0.4884171485900879,-3.611435413360596,-0.3738495409488678,-1.3365731239318848,-7482,2755,711,415,-846,877,3
2025-06-27 16:51:01.840,2.5737667083740234,-14.046781539916992,3.1962592601776123,-0.1539380401372909,-0.912632703781128,-0.1319468915462494,-7221,3279,827,-322,-500,724,3
2025-06-27 16:51:01.933,1.1204863786697388,-5.576095581054688,1.4724340438842771,1.4685200452804563,1.0311405658721924,-0.221133217215538,-7479,3411,971,146,-1291,561,3
2025-06-27 16:51:02.532,4.371812343597412,-10.972626686096191,3.2800562381744385,0.0232128798961639,-0.7220427393913269,-1.2229522466659546,-6916,3804,1969,407,-497,882,3
2025-06-27 16:51:02.740,1.5921441316604614,-3.718195199966431,3.5266590118408203,0.8662069439888,0.6426302194595337,0.4019493460655212,-6744,3826,1630,1072,1066,928,3
2025-06-27 16:51:02.945,4.893748283386231,-14.788984298706056,0.8331822156906128,-5.17525053024292,0.0293215326964855,-0.5009095072746277,-6376,4730,1486,778,-1405,1601,3
2025-06-27 16:51:03.045,1.0797849893569946,-3.739742994308472,0.9265560507774352,1.80816113948822,-0.1759291887283325,1.0482447147369385,-6243,5268,1884,522,-177,874,3
2025-06-27 16:51:03.119,1.0797849893569946,-3.739742994308472,0.9265560507774352,1.80816113948822,-0.1759291887283325,1.0482447147369385,-6194,5478,1838,208,-192,651,3
2025-06-27 16:51:03.250,4.288015365600586,-14.420276641845703,-3.490746021270752,-3.134960412979126,1.0201449394226074,-0.6682865619659424,-6155,5897,1231,729,-957,385,3
2025-06-27 16:51:03.432,6.356605529785156,-7.869740962982178,-9.342175483703612,2.3347270488739014,-0.2333505302667617,1.7397441864013672,-5759,5113,1903,-382,-911,-443,3
2025-06-27 16:51:03.632,-2.5019407272338867,-16.0483341217041,6.833051681518555,-2.902831554412842,0.0012217304902151,-2.152689218521118,-6764,5410,1695,184,101,-67,3
2025-06-27 16:51:03.720,5.102043628692627,-14.472949028015137,-5.288791656494141,-0.5949827432632446,0.6548475623130798,0.7757988572120667,-6091,5318,1909,280,-802,-393,3
2025-06-27 16:51:03.928,8.01339340209961,-1.2425906658172607,-5.937620162963867,0.3298672437667846,-0.618195652961731,1.003040790557861,-6928,4596,1958,-569,186,-411,3
2025-06-27 16:51:04.119,-0.3974374830722809,-20.317195892333984,4.32871675491333,-2.724458932876587,0.4642575979232788,-0.921184778213501,-6550,4378,2413,363,-111,-939,3
2025-06-27 16:51:04.358,5.276820659637451,-10.211270332336426,-8.020575523376465,-0.4105014503002167,0.4129449129104614,0.6194173693656921,-6730,4066,1787,-379,148,-501,3
2025-06-27 16:51:04.432,5.348646640777588,-2.8993782997131348,-4.28322696685791,0.1062905490398407,-0.950506329536438,0.4960225820541382,-6879,3851,2172,39,278,-177,3
2025-06-27 16:51:04.519,-6.813898086547852,-12.172121047973633,6.835445880889893,-0.4728097021579742,-0.6108652353286743,-2.2540926933288574,-7480,3753,2147,-31,166,361,3
2025-06-27 16:51:04.734,5.003881454467773,-10.424354553222656,-9.59596061706543,0.1624901592731475,1.0213667154312134,0.5082398653030396,-6331,4355,2195,-351,-637,-311,3
2025-06-27 16:51:04.822,8.990227699279785,-4.458003520965576,-6.157886981964111,1.645671010017395,-0.3078760802745819,1.263269305229187,-7184,4734,2312,-296,-61,-1173,3
2025-06-27 16:51:05.132,1.3766659498214722,-11.75553035736084,-4.929661273956299,-2.4300220012664795,1.4037683010101318,0.371406078338623,-7252,3271,2172,-649,-371,-349,3
2025-06-27 16:51:05.243,8.04691219329834,-6.98628044128418,-9.634267807006836,1.5625933408737185,-0.1160643994808197,1.4831807613372805,-7284,2975,2274,-829,-815,253,3
2025-06-27 16:51:05.430,-3.514688014984131,-8.276755332946777,0.7637503147125244,-1.7519614696502686,-0.3506366610527038,-1.7409659624099731,-7227,3942,2045,186,387,784,3
2025-06-27 16:51:05.627,-1.4221558570861816,-17.058687210083008,-2.4181437492370605,-2.972470283508301,1.3842206001281738,-0.230907067656517,-7098,4694,2405,429,-40,967,3
2025-06-27 16:51:05.719,6.643909931182861,-9.004592895507812,-12.902353286743164,1.380555510520935,0.93095862865448,0.7819074988365173,-6886,4933,2192,501,-342,729,3
2025-06-27 16:51:05.819,0.6536170840263367,-3.129221677780152,-1.7046716213226318,0.6230825781822205,-0.9077457785606384,-0.5314527750015259,-6679,4664,2940,-481,-305,667,3
2025-06-27 16:51:05.919,-4.967968463897705,-14.008474349975586,1.5897499322891235,-2.367713689804077,0.2162462919950485,-2.2174408435821533,-6776,4555,1953,54,1297,525,3
2025-06-27 16:51:06.119,6.689399719238281,-5.331887245178223,-9.241618156433104,1.947438359260559,-0.4141666293144226,1.6957619190216064,-6433,5129,2187,-161,-808,309,3
2025-06-27 16:51:06.425,-2.80361008644104,-17.48724937438965,-1.4532804489135742,-4.846604824066162,1.863139033317566,-1.0348057746887207,-6556,5923,2379,894,360,728,3
2025-06-27 16:51:06.625,11.59990692138672,-8.497021675109863,-13.472172737121582,0.8686503767967224,0.9749409556388856,1.06657075881958,-6001,5521,2248,322,-835,266,3
2025-06-27 16:51:06.742,7.161057472229004,-4.479551315307617,-7.113173484802246,0.8686503767967224,0.9749409556388856,1.06657075881958,-5972,4860,2661,-282,136,-708,3
2025-06-27 16:51:06.824,-2.0015525817871094,-10.091560363769531,-3.1675288677215576,-3.2314772605896,-0.221133217215538,-3.147177696228028,-6975,5602,1820,556,107,1081,3
2025-06-27 16:51:07.019,3.955221176147461,-17.50879669189453,-7.9846625328063965,-3.130073547363281,0.6829473376274109,1.4746286869049072,-6147,5395,2004,546,-686,-1127,3
2025-06-27 16:51:07.139,9.21288776397705,0.2250549644231796,-7.474697589874268,1.6969836950302124,-1.3903292417526243,0.9822713136672974,-6383,4473,2863,-661,-1261,-1312,3
2025-06-27 16:51:07.543,11.204863548278809,-13.64216136932373,-12.2990140914917,-0.3530801236629486,1.247386813163757,2.255314588546753,-6636,4903,2545,-1078,1028,-258,3
2025-06-27 16:51:07.619,10.261548042297363,-4.010287761688232,-13.005303382873535,2.41413950920105,-0.067195177078247,2.102598190307617,-6239,4561,2119,43,1905,-1436,3
2025-06-27 16:51:07.753,2.540247917175293,-5.693411827087402,-3.0358476638793945,-0.1319468915462494,-0.7660250067710876,-1.266934514045715,-6786,3753,2223,36,1667,-1813,3
2025-06-27 16:51:07.935,-1.278503656387329,-15.524003982543944,-1.556231141090393,-2.1539108753204346,0.4984660446643829,-1.5271631479263306,-6902,4007,1062,-762,401,114,3
2025-06-27 16:51:08.032,16.328454971313477,-2.736572504043579,-16.0483341217041,0.4117231667041778,-0.2284636050462722,0.4495968222618103,-6284,3545,1590,-1330,-475,17,3
2025-06-27 16:51:08.119,6.234501361846924,-2.0183119773864746,-12.447454452514648,0.2076941877603531,-1.4892895221710205,-0.1123992055654525,-6530,3862,1789,-977,-336,611,3
2025-06-27 16:51:08.232,3.514688014984131,-3.861847400665283,-3.4763808250427246,0.0952949747443199,1.7886134386062622,-0.6243042945861816,-6838,4455,1485,-380,138,-517,3
2025-06-27 16:51:08.444,5.427655220031738,-7.060500621795654,-11.93748950958252,4.575380802154541,-1.8387043476104736,1.7568484544754028,-7079,4649,985,-324,528,-834,3
2025-06-27 16:51:08.630,-1.4844050407409668,-4.687847137451172,1.460463047027588,1.1093312501907349,0.0439822971820831,0.1062905490398407,-7112,3622,1516,-768,113,217,3
2025-06-27 16:51:08.719,-0.5099649429321289,-12.854469299316406,1.261744260787964,-1.1740829944610596,0.8845328688621521,0.4691445231437683,-7085,3948,2156,-810,-440,522,3
2025-06-27 16:51:08.846,-0.5099649429321289,-12.854469299316406,1.261744260787964,-1.1740829944610596,0.8845328688621521,0.4691445231437683,-7085,3948,2156,-810,-440,522,3
2025-06-27 16:51:09.045,2.7916390895843506,-6.98628044128418,-9.160215377807615,0.3078760802745819,-1.0018190145492554,-0.0757472887635231,-6622,3323,2449,-1124,-1149,350,3
2025-06-27 16:51:09.543,-6.665457725524902,-12.60547161102295,7.314286231994629,0.3359758853912353,0.0952949747443199,-1.3658946752548218,-7292,3950,2038,11,380,-317,3
2025-06-27 16:51:09.638,-1.7357962131500244,-13.776236534118652,-0.4644751250743866,-2.0757200717926025,1.9840903282165527,0.4361577928066253,-7085,3934,2018,-52,363,-375,3
2025-06-27 16:51:09.746,-1.7357962131500244,-13.776236534118652,-0.4644751250743866,-2.0757200717926025,1.9840903282165527,0.4361577928066253,-6769,4406,2455,-88,-896,-504,3
2025-06-27 16:51:09.921,5.22175407409668,-10.292673110961914,-9.86889934539795,0.7941248416900635,1.0042624473571775,1.3231340646743774,-6850,3729,2244,512,31,794,3
2025-06-27 16:51:10.019,4.81473970413208,-4.637568473815918,-5.856217384338379,-0.1771509200334549,-0.9957103729248048,0.251676470041275,-6857,4154,2250,-17,-72,1607,3
2025-06-27 16:51:10.119,-3.801992416381836,-8.791508674621582,0.8930372595787048,-0.7318165898323059,-1.2424999475479126,-1.056796908378601,-7061,4731,2868,604,-616,104,3
2025-06-27 16:51:10.246,2.722207307815552,-8.793902397155762,-6.342240333557129,0.5754350423812866,1.1484266519546509,0.6145304441452026,-6568,4611,2883,-318,146,-779,3
2025-06-27 16:51:10.424,10.63504409790039,-6.260837554931641,-9.114726066589355,0.3139847218990326,-0.167377084493637,0.3591887652873993,-7040,3859,2013,-987,1854,-1106,3
2025-06-27 16:51:10.520,-2.08056116104126,-14.935029983520508,2.966415882110596,-0.7965682744979858,1.2205088138580322,1.0494664907455444,-7773,3521,2097,-802,1364,-643,3
2025-06-27 16:51:10.646,-2.08056116104126,-14.935029983520508,2.966415882110596,-0.7965682744979858,1.2205088138580322,1.0494664907455444,-7225,3930,2462,-318,-414,-383,3
2025-06-27 16:51:10.719,8.559270858764648,-7.654263019561768,-8.580819129943848,-0.3371976017951965,-0.2748893499374389,-0.5497786998748779,-6827,3741,2227,-90,308,-283,3
2025-06-27 16:51:10.820,8.559270858764648,-7.654263019561768,-8.580819129943848,-0.3371976017951965,-0.2748893499374389,-0.5497786998748779,-7096,4576,1865,-604,1390,729,3
2025-06-27 16:51:11.019,-3.8355112075805664,-12.500126838684082,0.6057330369949341,0.5668829679489136,0.4984660446643829,0.2907718420028686,-7254,3873,1525,-931,1920,-711,3
2025-06-27 16:51:11.219,-3.1004912853240967,-9.840168952941896,-0.9409212470054626,0.1319468915462494,-2.1697933673858643,-0.0598647929728031,-7515,2790,906,-2359,3829,-1809,3
2025-06-27 16:51:11.328,-4.596867084503174,-10.034099578857422,4.5154643058776855,-0.351858377456665,0.3469714522361755,0.452040284872055,-7570,2937,635,-1355,1987,-1399,3
2025-06-27 16:51:11.429,5.137956619262695,-9.129091262817385,-4.134786128997803,-0.7843509912490845,-0.1783726513385772,-0.8735373020172119,-7520,2907,882,268,636,-652,3
2025-06-27 16:51:11.619,-0.6033388376235962,-17.281347274780273,0.3615244626998901,0.0794124826788902,-1.4746286869049072,-0.1123992055654525,-6906,2405,-241,823,1440,-1851,3
2025-06-27 16:51:11.834,-0.1795651316642761,-4.616020679473877,1.4963760375976562,-0.2357939779758453,1.1129964590072632,0.2724458873271942,-7542,1784,-598,1150,681,-262,3
2025-06-27 16:51:12.141,-6.66785192489624,-16.021997451782227,5.193023681640625,0.2553416788578033,-1.2999212741851809,0.8686503767967224,-7514,701,-810,-2120,-882,-897,3
2025-06-27 16:51:12.341,1.3311761617660522,-3.5386300086975098,-0.2609679996967315,0.8356636762619019,1.0482447147369385,-0.1490511149168014,-7435,1983,-263,828,429,301,3
2025-06-27 16:51:12.521,5.3342814445495605,-5.894524574279785,-5.365406036376953,-0.7476990818977356,0.7513642311096191,-1.4172073602676392,-7331,1997,-430,494,1533,-300,3
2025-06-27 16:51:12.642,-6.833051681518555,-15.617377281188965,4.417302131652832,0.294437050819397,-0.7354817390441895,0.9712757468223572,-7235,422,-1623,89,315,-987,3
2025-06-27 16:51:12.820,-3.8714241981506343,-9.17936897277832,3.445256233215332,1.480737328529358,0.5974262356758118,1.8093829154968264,-7475,867,-1396,577,-189,-303,3
2025-06-27 16:51:12.933,3.0190882682800293,-7.9846625328063965,-7.982268333435059,0.675616979598999,-1.1374311447143557,-0.4605923891067505,-7497,1247,-490,145,484,641,3
2025-06-27 16:51:13.021,3.0190882682800293,-7.9846625328063965,-7.982268333435059,0.675616979598999,-1.1374311447143557,-0.4605923891067505,-7467,1541,-1130,-293,416,351,3
2025-06-27 16:51:13.233,-2.6886885166168213,-12.351686477661133,1.58256733417511,0.6768386960029602,-0.1197295859456062,0.9260717034339904,-7114,670,-1673,-336,326,-278,3
2025-06-27 16:51:13.320,-0.3687070608139038,-4.747702121734619,0.4285621047019958,0.5155702829360962,-0.0720821022987365,0.9358455538749696,-6802,1009,-1388,393,-302,428,3
2025-06-27 16:51:13.419,-3.07415509223938,-15.097835540771484,3.3494882583618164,-0.0574213340878486,-0.452040284872055,-1.428202986717224,-7239,1835,-1153,559,-210,-226,3
2025-06-27 16:51:13.521,-5.4659624099731445,-11.444284439086914,1.9608511924743648,0.2663372457027435,-0.2480112910270691,0.6389650702476501,-6892,1505,-1572,-88,-517,-772,3
2025-06-27 16:51:13.731,-1.5682021379470823,-8.109161376953125,0.2920926213264465,0.9431759119033812,0.2101376503705978,1.7104226350784302,-6865,888,-1273,344,-168,930,3
2025-06-27 16:51:13.835,1.4317326545715332,-6.682217121124268,0.1340752989053726,-1.1362093687057495,-0.0342084541916847,-1.301142930984497,-7784,2333,-1073,851,-12,217,3
2025-06-27 16:51:14.154,-2.274491548538208,-11.295844078063965,2.152387380599976,-0.8197811841964722,-0.0769690200686454,0.608421802520752,-7066,761,-1810,139,-301,-273,3
2025-06-27 16:51:14.226,2.691082715988159,-0.6560112833976746,1.81959331035614,0.2724458873271942,0.0561996027827262,0.2064724564552307,-7155,1423,-1143,661,-267,947,3
2025-06-27 16:51:14.338,2.5665841102600098,-0.9888052940368652,0.4381389021873474,0.7342600226402283,-0.2871066629886627,-1.4013248682022097,-7553,1954,-503,631,353,331,3
2025-06-27 16:51:14.419,-3.6296098232269287,-24.71773910522461,0.4070142805576324,0.6035348773002625,-0.2480112910270691,-1.7727309465408323,-7208,1843,-720,-1126,-356,-1502,3
2025-06-27 16:51:14.532,-3.555389642715454,-16.112977981567383,1.778891921043396,-0.4447098970413208,0.2101376503705978,0.8210029006004333,-6889,316,-1191,-1491,-48,-1636,3
2025-06-27 16:51:14.733,2.0231003761291504,0.5626373887062073,1.7717092037200928,-0.4434881806373596,0.0598647929728031,-0.6414085030555725,-7267,1558,-1362,494,272,892,3
2025-06-27 16:51:14.826,0.8643068075180054,-10.754754066467283,0.2657563984394073,-1.0128145217895508,-0.3787364661693573,-1.93766450881958,-7107,1478,-1186,-268,380,-1043,3
2025-06-27 16:51:15.022,-4.086902141571045,-11.54244613647461,3.117250680923462,0.1869247704744339,-0.3213151097297668,1.4892895221710205,-7136,229,-1179,-116,-591,-81,3
2025-06-27 16:51:15.133,-1.4269442558288574,-4.426878929138184,1.33357036113739,-1.5344934463500977,0.5290092825889587,0.3066543638706207,-7425,469,-1370,215,-634,154,3
2025-06-27 16:51:15.219,-1.4269442558288574,-4.426878929138184,1.33357036113739,-1.5344934463500977,0.5290092825889587,0.3066543638706207,-7425,469,-1370,215,-634,154,3
2025-06-27 16:51:15.319,-1.4269442558288574,-4.426878929138184,1.33357036113739,-1.5344934463500977,0.5290092825889587,0.3066543638706207,-7425,469,-1370,215,-634,154,3
2025-06-27 16:51:15.427,-3.897760391235352,-8.935160636901855,2.485181331634521,1.0592403411865234,0.0109955742955207,0.9419541954994202,-7498,1626,-688,-126,123,110,3
2025-06-27 16:51:15.632,-2.8227639198303223,-11.78665542602539,0.7852981686592102,-1.6224581003189087,0.0048869219608604,-1.7678439617156982,-7484,1363,-1173,333,225,250,3
2025-06-27 16:51:15.728,-1.778891921043396,-13.041216850280762,-2.296039342880249,1.009149432182312,-0.656069278717041,0.9651671051979064,-7271,-23,-1639,-221,-139,-253,3
2025-06-27 16:51:16.125,2.7748796939849854,-10.041281700134276,1.321599364280701,-0.3274237811565399,0.9321803450584412,-0.6243042945861816,-7481,1620,-1206,697,69,1267,3
2025-06-27 16:51:16.234,0.689530074596405,-8.700529098510742,2.6431987285614014,1.1801916360855105,-0.9199630618095398,0.3408628106117248,-7376,1340,-1014,441,-799,-60,3
2025-06-27 16:51:16.438,-2.3127987384796143,-8.456320762634277,1.498770236968994,-1.3439035415649414,0.750142514705658,-0.7379252314567566,-7242,1076,-1116,-45,-790,-281,3
2025-06-27 16:51:17.232,0.090979665517807,-13.06755256652832,4.323928356170654,-3.028669834136963,1.2657127380371094,-0.9761626720428468,-6848,927,-1095,-1107,177,553,3
2025-06-27 16:51:17.351,0.090979665517807,-13.06755256652832,4.323928356170654,-3.028669834136963,1.2657127380371094,-0.9761626720428468,-6848,927,-1095,-1107,177,553,3
2025-06-27 16:51:17.619,-1.2210428714752195,-4.632780075073242,3.7421371936798096,-0.4801400899887085,0.6670648455619812,-0.923628270626068,-8035,1075,-1138,-505,607,-792,3
2025-06-27 16:51:17.820,-2.7772738933563232,-0.4932055473327636,7.922413349151611,2.120924234390259,-0.6609562039375305,0.5998696684837341,-7547,245,-1139,-266,-353,-761,3
2025-06-27 16:51:17.934,-1.414973258972168,-11.44907283782959,4.987122058868408,-4.891808986663818,1.3267992734909058,-1.6676621437072754,-7547,821,-711,-598,-572,-78,3
2025-06-27 16:51:18.119,-0.8451532125473022,-4.522646903991699,9.622296333312988,1.8106045722961424,-1.3267992734909058,1.1814134120941162,-7342,463,-1033,-805,83,-381,3
2025-06-27 16:51:18.238,3.4356794357299805,-3.97916316986084,7.0126166343688965,1.3964380025863647,-1.1410962343215942,0.8002334833145142,-7100,1093,-580,-251,-32,575,3
2025-06-27 16:51:18.333,-1.3024457693099976,-10.778696060180664,4.333505153656006,-1.7825047969818115,0.8796459436416626,-0.8491026759147644,-8207,477,-616,122,879,-350,3
2025-06-27 16:51:18.542,-2.6192567348480225,-3.495534420013428,7.240066051483154,-1.5308283567428589,0.5143485069274902,-0.626747727394104,-7690,480,-604,68,-599,-562,3
2025-06-27 16:51:18.738,-2.683900117874145,-5.04218864440918,6.593631267547607,1.3060299158096311,-0.8503243923187256,0.7562511563301086,-7930,568,-397,-120,300,-282,3
2025-06-27 16:51:18.946,1.6735470294952393,-5.688623428344727,5.145139217376709,0.197920337319374,-0.6255260109901428,0.0293215326964855,-7402,716,-785,-550,665,355,3
2025-06-27 16:51:19.021,-1.6974890232086182,-17.30289649963379,2.5665841102600098,-0.1380555480718612,0.1380555480718612,-0.0635299831628799,-7774,741,-817,-601,1081,346,3
2025-06-27 16:51:19.449,-3.5649664402008057,-14.255077362060549,6.890512466430664,-0.7648032903671265,0.616973876953125,0.8808676600456238,-7178,1418,-1746,-70,-153,-331,3
2025-06-27 16:51:19.519,1.436521053314209,-5.257667064666748,0.5554547905921936,1.0519099235534668,0.7550294399261475,1.3781119585037231,-6974,246,-1871,-421,267,224,3
2025-06-27 16:51:19.620,2.494758129119873,-2.382230758666992,2.229001760482788,0.0635299831628799,0.0403171069920063,-0.5571091175079346,-7451,1626,-1871,430,638,395,3
2025-06-27 16:51:19.827,-2.013523578643799,-15.897499084472656,4.072536945343018,-0.5229006409645081,0.3872885704040527,0.626747727394104,-6565,802,-1781,-893,-616,-1426,3
2025-06-27 16:51:20.239,-0.7015010714530945,-20.918140411376957,11.982979774475098,-0.2186897546052932,-0.3176499307155609,-1.5161675214767456,-7509,1249,-1382,630,339,10,3
2025-06-27 16:51:20.319,-0.6200982332229614,-12.382811546325684,6.876147270202637,0.3005456924438476,0.7415903806686401,1.301142930984497,-6924,523,-1767,-616,386,-942,3
2025-06-27 16:51:20.419,2.0590133666992188,-3.2178070545196533,-0.1340752989053726,0.4874704778194427,0.7110471725463867,1.274264931678772,-6935,-83,-1734,520,-72,207,3
2025-06-27 16:51:20.540,3.363853454589844,-3.248931646347046,-1.5634137392044067,0.4801400899887085,-0.1698205322027206,-0.4605923891067505,-7062,639,-1904,335,874,-103,3
2025-06-27 16:51:20.771,-1.2090718746185305,-13.7666597366333,10.953473091125488,-1.5711454153060913,-1.0250319242477417,-2.205223560333252,-6604,454,-2076,-871,-134,-1529,3
2025-06-27 16:51:20.932,0.4884171485900879,-7.041347026824951,1.4532804489135742,0.3958406746387481,1.016479730606079,2.0366246700286865,-6700,-463,-1777,388,385,-1060,3
2025-06-27 16:51:21.028,-0.9433154463768004,-8.650250434875488,1.7166426181793213,-1.5173892974853516,-1.0311405658721924,-2.0891592502593994,-7481,233,-1789,-337,344,951,3
2025-06-27 16:51:21.139,-2.8227639198303223,-21.468807220458984,4.819528102874756,-0.9517280459403992,0.3628539443016052,-0.1001818999648094,-7142,-271,-1937,-799,-1062,292,3
2025-06-27 16:51:21.240,-0.5123591423034668,-12.006921768188477,2.942473888397217,0.4276056587696075,0.6988298296928406,2.0219640731811523,-6797,-467,-2073,-832,-1245,428,3
2025-06-27 16:51:21.320,3.205836057662964,-3.5386300086975098,-0.6177040338516235,1.4074335098266602,-0.2003637999296188,1.4330898523330688,-6823,515,-1252,599,-385,362,3
2025-06-27 16:51:21.431,2.183511972427368,-5.382165431976318,-0.0263362191617488,0.3701843321323395,-0.7122688889503479,-0.6475171446800232,-7341,801,-1265,189,64,-31,3
2025-06-27 16:51:21.626,-1.81959331035614,-10.960655212402344,5.899312973022461,0.6194173693656921,0.0928515195846557,0.9077457785606384,-7618,-95,-1251,-2515,-1545,2155,3
2025-06-27 16:51:21.838,0.6416460275650024,-8.14028549194336,1.7310078144073486,0.6768386960029602,0.759916365146637,2.067167997360229,-6957,222,-1327,-269,-711,1552,3
2025-06-27 16:51:22.033,0.4261679053306579,-20.81279563903809,6.337451934814453,-0.6340781450271606,0.2577851414680481,-0.2932153046131134,-7076,1739,-1145,-2,1353,-522,3
2025-06-27 16:51:22.133,1.2401964664459229,-11.72201156616211,4.67827033996582,0.5925393104553223,0.9382890462875366,1.8680258989334104,-7237,915,-1889,-256,799,-1378,3
2025-06-27 16:51:22.224,1.759738206863403,-3.263296842575073,1.036689281463623,0.5277875661849976,0.789237916469574,1.4660766124725342,-7187,887,-1597,885,-93,1344,3
2025-06-27 16:51:22.335,2.454056739807129,-4.4292731285095215,-0.2489969730377197,0.3970624208450317,-0.7831292152404785,-1.065348982810974,-7533,1268,-1349,775,-25,975,3
2025-06-27 16:51:22.420,2.454056739807129,-4.4292731285095215,-0.2489969730377197,0.3970624208450317,-0.7831292152404785,-1.065348982810974,-7533,1268,-1349,775,-25,975,3
2025-06-27 16:51:23.140,-5.001487255096436,-13.30457878112793,10.596736907958984,0.5974262356758118,-1.4929546117782593,0.1221730485558509,-7190,1022,-1523,20,-519,-114,3
2025-06-27 16:51:23.219,-1.4101848602294922,-11.097125053405762,4.853046894073486,-0.6194173693656921,1.9706512689590452,0.6914994716644287,-7048,1311,-1460,464,-301,-19,3
2025-06-27 16:51:23.323,1.599326729774475,-7.161057472229004,-3.837905406951904,-1.2046263217926023,2.191784381866455,1.0580185651779177,-6810,1135,-1597,-444,-46,117,3
2025-06-27 16:51:23.519,1.946485996246338,-7.19936466217041,-5.951985359191895,0.50335294008255,-2.459343433380127,-0.3933972120285034,-6571,524,-2317,-670,537,1,3
2025-06-27 16:51:23.632,-1.9297266006469729,-14.15452003479004,11.681309700012209,0.147829383611679,-3.447723388671875,-1.187522053718567,-6932,262,-2367,274,308,95,3
2025-06-27 16:51:23.841,-1.9823989868164065,-8.53532886505127,0.454898327589035,-2.954144239425659,3.293785333633423,-0.452040284872055,-6970,1193,-1641,-555,824,-347,3
2025-06-27 16:51:24.039,3.883395195007324,-10.493785858154297,-7.826645374298096,-0.0183259565383195,-2.067167997360229,1.4343116283416748,-6585,277,-2507,-1891,797,-938,3
2025-06-27 16:51:24.237,-3.1076738834381104,-8.89445972442627,10.953473091125488,-1.0983357429504397,1.2962560653686523,-0.4874704778194427,-6977,1883,-2062,1061,-660,897,3
2025-06-27 16:51:24.339,-2.4229321479797363,-7.903259754180908,0.6320692300796509,-2.967583417892456,2.6902506351470947,-1.643227458000183,-6998,1719,-1654,39,-891,-91,3
2025-06-27 16:51:24.435,3.3854012489318848,-12.878411293029783,-9.437943458557127,0.3909537494182586,1.3231340646743774,-0.1600466966629028,-6352,1393,-1994,-1885,733,-1114,3
2025-06-27 16:51:24.732,-1.946485996246338,-12.921506881713867,5.853823184967041,0.1099557429552078,0.7293730974197388,-0.1343903541564941,-6319,972,-2675,2079,328,1403,3
2025-06-27 16:51:24.927,5.95677375793457,-10.94150161743164,-11.338939666748049,1.6175711154937744,0.9749409556388856,-0.3799581825733185,-6682,1260,-2277,726,-212,760,3
2025-06-27 16:51:25.119,0.730231523513794,-4.642356872558594,2.027888774871826,0.4667010605335235,-2.981022357940674,0.3347541689872741,-7004,1112,-2331,-498,-1246,96,3
2025-06-27 16:51:25.518,1.6615760326385498,-9.897629737854004,-5.351040840148926,-0.1099557429552078,-1.1435397863388062,0.8674286603927612,-7435,952,-251,-319,-665,576,3
2025-06-27 16:51:25.719,-4.541800498962402,-9.57441234588623,3.3231520652771,-0.5229006409645081,1.4233160018920898,-0.6475171446800232,-8063,1739,-707,3350,-2685,2861,3
2025-06-27 16:51:25.920,-0.2202665507793426,-7.462726593017578,-1.5298948287963867,-4.462981700897217,2.961474657058716,-0.0598647929728031,-7228,2268,374,1652,-3262,1583,3
2025-06-27 16:51:26.023,4.307168960571289,-5.765237808227539,-14.535198211669922,0.7305948138237,-1.7055357694625854,-0.1466076523065567,-7879,1836,830,1623,-2441,-1009,3
2025-06-27 16:51:26.234,-3.35667085647583,-8.197746276855469,8.762778282165527,5.423261642456055,-1.7055357694625854,2.849075555801392,-8307,1388,1691,415,-1723,-502,3
2025-06-27 16:51:26.323,-1.5179238319396973,1.290474772453308,6.780379295349121,3.400075912475586,0.7391469478607178,0.7061602473258972,-8281,2161,2304,320,-1815,546,3
2025-06-27 16:51:26.420,-3.138798475265503,-2.0685901641845703,4.264073371887207,-0.8234463334083557,1.7910568714141846,-1.2315043210983276,-7850,1428,3165,-1568,-1709,-985,3
2025-06-27 16:51:27.019,-3.3734302520751958,-3.9025487899780273,4.838681697845459,-2.032959461212158,2.3823745250701904,-2.068389654159546,-8000,508,2853,-1842,178,-843,3
2025-06-27 16:51:27.225,-5.521028995513916,-0.6536170840263367,8.892065048217773,2.789210796356201,-2.5277602672576904,1.9022343158721924,-8186,305,2374,-1875,2169,-1314,3
2025-06-27 16:51:27.337,-5.521028995513916,-0.6536170840263367,8.892065048217773,2.789210796356201,-2.5277602672576904,1.9022343158721924,-8186,305,2374,-1875,2169,-1314,3
2025-06-27 16:51:27.547,-6.909666061401367,-0.1125274822115898,11.626243591308594,1.266934514045715,-0.7037167549133301,0.4251621961593628,-8284,-47,2499,-2402,297,-618,3
2025-06-27 16:51:27.624,-4.285621166229248,-3.739742994308472,5.406107425689697,0.6707300543785095,0.6035348773002625,-0.8515461683273315,-8083,41,2590,-1993,1070,-171,3
2025-06-27 16:51:27.736,-4.285621166229248,-3.739742994308472,5.406107425689697,0.6707300543785095,0.6035348773002625,-0.8515461683273315,-8083,41,2590,-1993,1070,-171,3
2025-06-27 16:51:28.034,-4.659116744995117,-1.417367458343506,7.079654216766357,-2.535090684890747,2.4630086421966557,-2.4862215518951416,-8452,-557,2366,-221,103,117,3
2025-06-27 16:51:28.519,-3.864241600036621,-9.583989143371582,3.224989652633667,-5.528330326080322,1.99752938747406,-2.1783454418182373,-7949,-1084,2329,3274,-1062,-191,3
2025-06-27 16:51:28.727,-1.2090718746185305,-11.125855445861816,-6.548141479492188,1.7922786474227903,-0.455705463886261,-0.2834414839744568,-8258,-1441,1785,701,358,-308,3
2025-06-27 16:51:28.841,-3.5960910320281982,-8.98543930053711,-0.706289529800415,0.8894197940826416,-0.6621779203414917,0.8723155856132507,-8071,-1778,2069,732,11,119,3
2025-06-27 16:51:28.931,-1.1276689767837524,-7.572859764099121,0.2489969730377197,3.706730365753174,-0.3225368559360504,0.3481931984424591,-8543,-1797,2106,383,-1141,445,3
2025-06-27 16:51:29.223,-6.509834289550781,-10.826580047607422,1.359906554222107,-1.585806131362915,0.9627236127853394,-0.3335324227809906,-8093,-479,2348,-85,54,1030,3
2025-06-27 16:51:29.431,1.192312479019165,-7.242460250854492,-4.900930881500244,-2.711019992828369,0.8124507665634155,0.1795943826436996,-8529,-151,3116,-29,-1033,961,3
2025-06-27 16:51:29.530,5.736507415771484,-8.157045364379883,-5.837063789367676,0.4092797040939331,-1.598023533821106,1.2718214988708496,-8018,-595,3404,15,-1106,1088,3
2025-06-27 16:51:29.819,-4.551377296447754,-2.604891538619995,10.735600471496582,1.1398745775222778,1.674992561340332,-0.294437050819397,-8252,-351,2862,-42,1387,2136,3
2025-06-27 16:51:30.032,8.149862289428711,-8.121131896972656,-6.801927089691162,-2.3383922576904297,0.8002334833145142,-3.36098051071167,-8499,1261,2885,-182,506,2473,3
2025-06-27 16:51:30.221,-1.498770236968994,-15.8903169631958,-5.7125654220581055,-0.6316346526145935,0.3164281845092773,-0.0390953756868839,-7513,1604,1433,2301,-366,1763,3
2025-06-27 16:51:30.336,2.094926595687866,-9.064447402954102,-3.308786630630493,2.889392614364624,-0.4300491213798523,1.0592403411865234,-6193,1550,3189,2364,-2190,1965,3
2025-06-27 16:51:30.548,3.734954595565796,-4.955997467041016,-6.270414352416992,0.960280179977417,0.3335324227809906,-0.0244346093386411,-6166,4015,3104,2022,1011,1615,3
2025-06-27 16:51:30.641,4.702212333679199,-8.966285705566406,-3.043030261993408,1.5515977144241333,-0.0048869219608604,1.2974777221679688,-6811,5951,2172,1357,1775,1230,3
2025-06-27 16:51:30.938,5.322310447692871,-15.689203262329102,-3.078943490982056,-1.52105450630188,0.2773328125476837,-1.2522737979888916,-8033,4840,866,-396,2368,-601,3
2025-06-27 16:51:31.020,6.720524311065674,-13.184868812561035,-4.383783340454102,1.451415777206421,-0.5632177591323853,1.431868076324463,-7041,3046,-93,-1141,1249,-1521,3
2025-06-27 16:51:31.639,1.7046716213226318,-9.287108421325684,-2.2433669567108154,0.901637077331543,-0.157603234052658,-0.4398229718208313,-8051,4026,-733,376,609,-761,3
2025-06-27 16:51:32.029,2.2361843585968018,-9.619902610778809,-2.2601263523101807,0.0268780700862407,-0.167377084493637,0.1759291887283325,-7663,-86,-49,-677,-352,-826,3
2025-06-27 16:51:32.125,2.315192937850952,-9.308655738830566,-2.296039342880249,0.067195177078247,-0.1637118905782699,0.1551597714424133,-7978,263,379,-704,-148,-142,3
2025-06-27 16:51:32.250,2.2194249629974365,-9.253589630126951,-2.296039342880249,-0.0207694191485643,-0.0867428630590438,0.1209513172507286,-7851,-24,167,-743,-384,-339,3
2025-06-27 16:51:32.348,2.1140801906585693,-9.41639518737793,-2.0685901641845703,-0.0317649915814399,-0.0733038261532783,0.0097738439217209,-7612,138,386,-1103,-207,-313,3
2025-06-27 16:51:32.448,1.9105730056762693,-9.437943458557127,-1.7717092037200928,0.0525344125926494,0.0293215326964855,0.0293215326964855,-7996,199,592,-241,282,-149,3
2025-06-27 16:51:32.524,1.824381709098816,-9.428366661071776,-1.8267759084701536,0.0794124826788902,0.0146607663482427,0.0195476878434419,-7912,568,522,0,148,382,3
2025-06-27 16:51:32.851,0.1891419291496276,-9.050082206726074,-2.959233283996582,-0.1795943826436996,-0.3665191531181335,-0.1453859210014343,-7599,1054,552,-107,-100,1148,3
2025-06-27 16:51:32.919,-0.7541735172271729,-11.197681427001951,-4.953603267669678,0.2907718420028686,-0.8515461683273315,0.0488692186772823,-7866,1300,630,1105,-328,984,3
2025-06-27 16:51:33.032,-0.2537853717803955,-12.466608047485352,-4.999093055725098,1.863139033317566,-1.428202986717224,1.4526375532150269,-7751,1483,562,964,-307,1072,3
2025-06-27 16:51:33.219,-0.119710087776184,-10.524910926818848,-1.4245500564575195,1.1691961288452148,-1.207069754600525,2.258979558944702,-7714,1233,428,1576,372,-813,3
2025-06-27 16:51:33.330,-0.8020575642585754,-6.72531270980835,2.346317768096924,0.8381071090698242,-0.157603234052658,0.618195652961731,-7985,700,348,2090,1019,-1767,3
2025-06-27 16:51:33.419,-1.98958158493042,-8.664615631103516,1.8100165128707888,0.9053022861480712,-0.6670648455619812,0.0012217304902151,-7987,-271,-91,1318,175,-2251,3
2025-06-27 16:51:33.835,-1.280897855758667,-7.738059997558594,0.7350199222564697,2.1111502647399902,-0.7770205736160278,0.5754350423812866,-7763,-1158,-237,327,142,633,3
2025-06-27 16:51:33.928,-3.8163576126098633,-0.9792284965515136,11.966219902038574,1.8020524978637693,-2.3383922576904297,1.0494664907455444,-7745,-1247,-559,561,-337,21,3
2025-06-27 16:51:34.037,-4.369418144226074,-6.955155849456787,9.674968719482422,-3.5808920860290527,1.2705997228622437,-1.2119566202163696,-7922,-1314,204,983,-796,318,3
2025-06-27 16:51:34.228,-3.969586372375488,-6.890512466430664,1.2401964664459229,-2.765997886657715,-1.1105530261993408,0.3604104816913605,-7841,-768,521,996,-757,850,3
2025-06-27 16:51:34.336,-5.427655220031738,-9.651026725769045,3.5266590118408203,0.0647517144680023,0.0219911485910415,0.2565633952617645,-7667,-509,192,404,-1048,695,3
2025-06-27 16:51:34.637,-7.139509677886963,-6.787561893463135,-1.434126853942871,-0.9859365224838256,1.389107584953308,3.667634963989258,-7818,-885,185,-84,-458,863,3
2025-06-27 16:51:34.735,-5.750872611999512,-2.0877439975738525,-0.4620809257030487,-1.8765780925750728,-1.7727309465408323,3.430619239807129,-7864,-704,200,20,-637,890,3
2025-06-27 16:51:34.819,-6.224924564361572,1.261744260787964,2.7748796939849854,-0.5693264007568359,-0.0268780700862407,-0.0794124826788902,-8056,-953,248,-357,-593,692,3
2025-06-27 16:51:34.919,-9.959878921508787,-2.138022184371948,2.3343467712402344,-0.1295034289360046,0.940732479095459,-0.1197295859456062,-8045,-1555,629,-370,-395,495,3
2025-06-27 16:51:35.033,-9.287108421325684,-2.609679937362671,3.4189200401306152,0.0965167060494422,0.0036651915870606,-0.0390953756868839,-8003,-1642,449,18,-407,407,3
2025-06-27 16:51:35.130,-8.707711219787598,-0.0071826050989329,4.163516521453857,0.8735373020172119,-0.294437050819397,0.1343903541564941,-7623,-1216,409,-94,-616,590,3
2025-06-27 16:51:35.519,-7.161057472229004,-0.2873041927814483,3.023876667022705,-0.8698720932006836,0.3579670190811157,-0.1734857261180877,-8201,1009,1262,351,-712,744,3
2025-06-27 16:51:35.635,-7.161057472229004,-0.2873041927814483,3.023876667022705,-0.8698720932006836,0.3579670190811157,-0.1734857261180877,-8201,1009,1262,351,-712,744,3
2025-06-27 16:51:35.836,-3.4979286193847656,-10.740388870239258,2.966415882110596,-1.1398745775222778,-0.8148942589759827,-1.954768776893616,-7623,1912,1428,-1133,531,12,3
2025-06-27 16:51:36.221,-0.304063618183136,-8.700529098510742,0.2944868206977844,0.9468411207199096,1.1117748022079468,0.0354301854968071,-8292,-66,1127,-1612,-360,-2930,3
2025-06-27 16:51:36.347,-0.304063618183136,-8.700529098510742,0.2944868206977844,0.9468411207199096,1.1117748022079468,0.0354301854968071,-8226,-52,1063,-1618,-358,-2729,3
2025-06-27 16:51:36.448,-6.75883150100708,0.5674257874488831,10.745177268981934,-0.1857030391693115,0.0879645943641662,-0.8356636762619019,-8229,-625,992,-1529,-33,-977,3
2025-06-27 16:51:36.636,-0.790086567401886,-8.068459510803223,-0.8044517636299133,3.128851890563965,-2.116037130355835,0.7757988572120667,-7995,-404,823,-1115,-119,-810,3
2025-06-27 16:51:36.919,-2.8395233154296875,-1.922544002532959,12.54801082611084,-1.15820050239563,1.6175711154937744,-2.1172590255737305,-7989,-900,1189,227,-625,-580,3
2025-06-27 16:51:37.419,-3.078943490982056,-9.677363395690918,1.764526605606079,-4.373795032501221,1.9792033433914185,-2.8295278549194336,-8132,-703,2156,1218,-822,1919,3
2025-06-27 16:51:37.619,2.829946517944336,-6.653486728668213,-10.66856288909912,-4.646241188049316,2.8551840782165527,-0.2052507251501083,-7811,345,2377,1508,-929,2543,3
2025-06-27 16:51:37.719,-1.3718775510787964,-5.274426460266113,6.8809356689453125,3.087312936782837,-3.4245104789733887,0.6133087277412415,-8141,471,2249,1895,-1543,666,3
2025-06-27 16:51:38.019,0.7038952708244324,-11.59990692138672,1.1061211824417114,-4.690223217010498,0.960280179977417,-2.9468140602111816,-8043,570,2490,2161,-1279,585,3
2025-06-27 16:51:38.121,2.319981336593628,-3.3949780464172363,-2.078166961669922,-11.635761260986328,2.8515188694000244,-0.4251621961593628,-7676,486,2497,2215,-1144,952,3
2025-06-27 16:51:38.251,1.6304513216018677,-9.15542697906494,-7.795520782470703,-2.807536602020264,1.4526375532150269,-0.0598647929728031,-7645,1314,2500,2845,-523,1694,3
2025-06-27 16:51:38.328,1.6304513216018677,-9.15542697906494,-7.795520782470703,-2.807536602020264,1.4526375532150269,-0.0598647929728031,-7645,1314,2500,2845,-523,1694,3
2025-06-27 16:51:38.438,8.487444877624512,-1.4628572463989258,-8.47547435760498,0.8918632864952087,-0.3090978264808655,-1.4966198205947876,-7315,2603,3163,1663,-1858,1590,3
2025-06-27 16:51:38.638,8.276755332946777,-8.971074104309082,-4.54419469833374,1.6823228597640991,-0.3298672437667846,1.8545868396759035,-7800,2735,3303,118,608,-292,3
2025-06-27 16:51:38.819,1.6160861253738403,2.7054479122161865,-2.557007312774658,2.498438835144043,-0.626747727394104,0.167377084493637,-7759,2556,3672,-56,549,-261,3
2025-06-27 16:51:39.219,2.291250944137573,-0.0766144543886184,-2.8778305053710938,0.3665191531181335,-0.3775147199630737,1.2693779468536377,-7627,2518,2785,-341,1114,-193,3
2025-06-27 16:51:39.423,8.214506149291992,-15.569493293762209,-4.55616569519043,0.4813618063926697,0.3689626157283783,-2.3774874210357666,-7832,2656,2954,-359,1111,-341,3
2025-06-27 16:51:39.919,-1.321599364280701,-1.0199298858642578,-0.1556231081485748,0.7672467231750488,-0.4117231667041778,0.6731734871864319,-7320,2867,2928,-287,-123,-177,3
2025-06-27 16:51:40.036,-1.321599364280701,-1.0199298858642578,-0.1556231081485748,0.7672467231750488,-0.4117231667041778,0.6731734871864319,-7320,2867,2928,-287,-123,-177,3
2025-06-27 16:51:40.243,10.75954246520996,-17.61893081665039,0.8188169598579407,-0.6633996367454529,0.1502728462219238,-1.442863702774048,-7384,3635,2199,-250,854,536,3
2025-06-27 16:51:40.432,1.5083470344543457,-4.742913722991943,1.1563993692398071,1.4587461948394775,-0.3921754956245422,1.6224581003189087,-7714,2931,2327,-651,456,-481,3
2025-06-27 16:51:40.631,7.757213592529297,-10.515334129333496,0.4692635238170624,-0.9089674949645996,0.3481931984424591,-2.367713689804077,-7986,3440,2584,-304,802,872,3
2025-06-27 16:51:40.719,9.150638580322266,-6.074089527130127,-1.829170107841492,-0.1966986060142517,-0.130725160241127,1.254717230796814,-7549,3514,1921,-400,401,-298,3
2025-06-27 16:51:40.842,7.556100368499756,-9.028534889221191,-1.2090718746185305,0.4605923891067505,-0.8026769161224365,2.20278000831604,-7398,3246,2112,-780,407,-422,3
2025-06-27 16:51:41.061,-0.5937620401382446,-2.097320795059204,8.159439086914062,-0.9077457785606384,-1.566258430480957,-0.3836233615875244,-7609,2701,1936,-499,164,-784,3
2025-06-27 16:51:41.131,2.8395233154296875,-8.69095230102539,1.4652514457702637,-4.448320865631104,0.1930334120988845,-1.7800613641738892,-8014,2386,2414,-515,39,-494,3
2025-06-27 16:51:41.221,3.785232782363892,-11.717223167419434,-9.995792388916016,-3.871663808822632,0.8148942589759827,-0.5485569834709167,-7621,1954,2419,-354,-518,-639,3
2025-06-27 16:51:41.333,4.819528102874756,-5.406107425689697,-4.029441356658936,2.833193063735962,-0.8955284357070923,1.910786509513855,-7170,3531,2546,-269,-668,681,3
2025-06-27 16:51:41.419,4.819528102874756,-5.406107425689697,-4.029441356658936,2.833193063735962,-0.8955284357070923,1.910786509513855,-7170,3531,2546,-269,-668,681,3
2025-06-27 16:51:41.529,2.5043349266052246,-11.583148002624512,-1.594538331031799,-4.571715354919434,1.0983357429504397,-2.517986536026001,-7525,3119,2661,-42,-138,313,3
2025-06-27 16:51:41.737,7.333439826965332,-15.844826698303224,-9.710882186889648,1.2999212741851809,-0.3762930035591125,0.7929030656814575,-7502,2945,2572,395,-154,112,3
2025-06-27 16:51:41.942,12.90953540802002,-19.036296844482425,-10.158597946166992,1.3463469743728638,0.0024434609804302,0.4263839423656463,-7482,3351,2312,838,-292,-18,3
2025-06-27 16:51:42.029,12.90953540802002,-19.036296844482425,-10.158597946166992,1.3463469743728638,0.0024434609804302,0.4263839423656463,-7482,3351,2312,838,-292,-18,3
2025-06-27 16:51:42.249,4.010287761688232,-5.961562156677246,-2.3487119674682617,-4.575380802154541,0.8246681094169617,-2.700024366378784,-7304,3653,2157,1069,-259,274,3
2025-06-27 16:51:42.319,4.010287761688232,-5.961562156677246,-2.3487119674682617,-4.575380802154541,0.8246681094169617,-2.700024366378784,-7304,3653,2157,1069,-259,274,3
2025-06-27 16:51:43.025,-2.516305923461914,-3.507505416870117,7.170634269714356,-0.7110471725463867,0.0647517144680023,-0.8515461683273315,-7263,3796,2284,-276,50,135,3
2025-06-27 16:51:43.135,-1.295263171195984,-5.114014625549316,2.279279947280884,-2.594955444335937,1.2693779468536377,-2.9431488513946533,-7441,3747,2468,-66,21,116,3
2025-06-27 16:51:43.336,7.694964408874512,-8.255207061767578,-7.915230751037598,-1.946216702461243,0.171042263507843,-2.559525489807129,-7728,3384,3449,-1406,889,-813,3
2025-06-27 16:51:43.942,8.04691219329834,-5.714959621429443,-6.133944988250732,-1.9071213006973269,0.2541199326515198,-1.8216001987457275,-7726,3700,2688,208,53,576,3
2025-06-27 16:51:44.019,6.818686485290527,-6.540958881378174,-6.344634532928467,0.912632703781128,-0.3433062732219696,1.5845844745635986,-7353,2436,2523,-888,535,88,3
2025-06-27 16:51:44.232,4.867412090301514,-6.1315507888793945,-5.451597213745117,0.8881980776786804,-0.2687807083129883,2.289522886276245,-7341,2634,2433,-653,589,97,3
2025-06-27 16:51:44.519,7.400477409362793,-10.532093048095703,-9.255983352661133,0.7476990818977356,-0.3384193480014801,1.8851301670074463,-7198,3695,2044,-269,-126,-333,3
2025-06-27 16:51:44.619,-1.173158884048462,4.209006786346436,3.3494882583618164,1.6664403676986694,-0.3347541689872741,-0.1991420686244964,-7417,3056,2239,-24,-52,-359,3
2025-06-27 16:51:44.830,4.285621166229248,-7.359776020050049,-2.142810583114624,-2.476447820663452,0.4361577928066253,-1.7189748287200928,-7810,2889,2840,141,-520,-423,3
2025-06-27 16:51:44.935,-3.050212860107422,-2.7437551021575928,4.441244125366211,0.3359758853912353,-0.8759807348251343,0.0268780700862407,-7324,2858,2724,-284,-390,-608,3
2025-06-27 16:51:45.030,5.389348030090332,-9.284713745117188,-1.903390407562256,-3.402519464492798,0.911410927772522,-0.912632703781128,-7304,2759,2871,-2,-291,267,3
2025-06-27 16:51:45.447,2.913743495941162,-5.810727596282959,-3.5266590118408203,0.4190535545349121,-1.0384708642959597,0.6963863968849182,-7387,3700,2564,-253,380,599,3
2025-06-27 16:51:45.521,0.3806780576705932,-10.091560363769531,2.38462495803833,-0.0280998013913631,0.2480112910270691,-0.1893682330846786,-7048,3083,2914,-113,-316,-619,3
2025-06-27 16:51:45.636,4.426878929138184,-6.514622688293457,-5.181052684783936,-0.46547931432724,1.7678439617156982,-0.455705463886261,-7356,3473,2215,-28,234,399,3
2025-06-27 16:51:45.942,11.858481407165527,-8.786720275878906,0.3064578175544739,0.4105014503002167,0.3078760802745819,0.251676470041275,-7152,3559,2604,-368,-329,-114,3
2025-06-27 16:51:46.033,11.858481407165527,-8.786720275878906,0.3064578175544739,0.4105014503002167,0.3078760802745819,0.251676470041275,-7152,3559,2604,-368,-329,-114,3
2025-06-27 16:51:46.420,2.516305923461914,-15.773000717163086,-2.6623523235321045,-1.9559905529022217,-1.1691961288452148,0.4153883755207062,-7764,3270,2512,-27,219,-382,3
2025-06-27 16:51:46.533,4.49870491027832,-10.299856185913086,-8.731653213500977,1.312138557434082,-0.0830776765942573,1.5919147729873655,-7506,3195,2508,-629,83,-703,3
2025-06-27 16:51:46.642,9.083600997924805,-3.543418407440185,-8.339004516601562,2.9883527755737305,-0.8136724829673767,2.498438835144043,-7302,3195,2884,-696,475,-155,3
2025-06-27 16:51:46.833,-3.584120035171509,-7.412448406219482,4.20421838760376,0.5998696684837341,-0.7525860071182251,-1.4306464195251465,-8011,2269,1802,87,1759,-353,3
2025-06-27 16:51:46.933,5.154716491699219,-17.106571197509766,-7.841010570526123,-1.9743164777755735,1.5809192657470703,-0.3298672437667846,-7603,3035,1514,478,886,46,3
2025-06-27 16:51:47.020,8.518569946289062,-7.987056732177734,-8.38449478149414,2.1783454418182373,-0.0439822971820831,1.7470746040344238,-8020,2119,1928,-482,-552,-628,3
2025-06-27 16:51:47.119,-0.6607996821403503,0.9576807022094728,0.8068459630012512,1.2302825450897217,-1.4966198205947876,-0.1099557429552078,-7380,2141,1783,-232,375,99,3
2025-06-27 16:51:47.219,-1.7070658206939695,-13.148955345153809,5.56173038482666,-1.9718730449676516,0.1905899494886398,-1.7715091705322266,-8062,3279,2100,623,308,1119,3
2025-06-27 16:51:47.640,-0.4046200811862945,1.0199298858642578,4.443638324737549,3.2534682750701904,-2.162462949752808,0.3506366610527038,-8031,2367,1765,278,493,620,3
2025-06-27 16:51:47.745,-6.777985095977783,-5.5329999923706055,10.649409294128418,-2.58151650428772,-0.8136724829673767,-2.959031343460083,-7614,2993,1991,1502,-215,-789,3
2025-06-27 16:51:48.220,-2.9735984802246094,-1.338358759880066,8.863334655761719,0.6010913848876953,-2.5057692527771,0.2895501255989074,-7887,1586,1235,1148,950,863,3
2025-06-27 16:51:48.449,-3.952826976776123,-1.7525556087493896,11.23838233947754,-0.0146607663482427,2.3689353466033936,-1.0482447147369385,-7570,2672,1753,1159,-1078,-356,3
2025-06-27 16:51:48.833,-3.720589399337769,-6.646304130554199,4.63517427444458,1.6762142181396484,-3.268129110336304,1.4892895221710205,-7894,1178,1987,-969,378,-280,3
2025-06-27 16:51:48.942,-5.166687488555908,-0.6488286852836609,24.253263473510746,1.156978726387024,-0.8246681094169617,0.4813618063926697,-8124,1609,2252,240,-305,-129,3
2025-06-27 16:51:49.151,-3.7158010005950928,-7.60637903213501,6.600813865661621,-0.8002334833145142,2.6083946228027344,-0.1490511149168014,-8002,1737,2798,617,-765,-613,3
2025-06-27 16:51:49.219,2.3750481605529785,-10.053253173828123,-4.264073371887207,-1.138652801513672,2.007303237915039,-0.3982841372489929,-7556,2019,2542,-2192,1043,-736,3
2025-06-27 16:51:49.424,-5.442020416259766,-7.029376029968262,5.576095581054688,1.0348057746887207,-3.517362117767334,1.0384708642959597,-7840,632,1496,-249,1452,-1848,3
2025-06-27 16:51:49.829,-0.7110779285430908,-7.716512203216553,0.7613561153411865,-1.5552629232406616,2.395813465118408,-1.0323622226715088,-8134,183,1436,-124,941,-1202,3
2025-06-27 16:51:50.237,-4.750096321105957,-1.0582371950149536,9.916783332824709,0.4043927788734436,1.7385225296020508,-1.320690631866455,-8284,302,1124,-1332,2176,-1534,3
2025-06-27 16:51:50.320,-0.6344634294509888,-13.376404762268066,-4.867412090301514,-2.4251351356506348,2.5998425483703613,-0.912632703781128,-8093,75,800,-1475,2338,-1650,3
2025-06-27 16:51:50.444,-3.1076738834381104,-5.521028995513916,1.9105730056762693,1.236391305923462,-3.054326295852661,2.3017401695251465,-8157,113,314,-1724,1756,-1081,3
2025-06-27 16:51:50.529,-7.570465564727783,1.759738206863403,13.053187370300291,2.13314151763916,-1.1398745775222778,1.0824532508850098,-7577,-817,-226,-2081,943,-664,3
2025-06-27 16:51:50.830,-6.385335922241211,-2.8395233154296875,8.89685344696045,0.167377084493637,0.1527163088321685,-0.0415388382971286,-7702,-899,631,-874,-28,-296,3
2025-06-27 16:51:50.925,-1.7884687185287476,-1.759738206863403,8.212111473083496,0.2199114859104156,0.0745255574584007,0.0867428630590438,-7539,-1377,-567,-1355,1154,-758,3
2025-06-27 16:51:51.031,-6.260837554931641,-0.9361328482627868,7.283161640167236,-0.1270599663257599,-0.5216789245605469,-0.0109955742955207,-7606,-945,-678,-903,1463,-49,3
2025-06-27 16:51:51.126,-6.119579315185547,-5.556941986083984,10.96544361114502,-0.3604104816913605,0.9248499870300292,0.0745255574584007,-7367,-1052,-670,-191,426,302,3
2025-06-27 16:51:51.231,1.5682021379470823,-1.759738206863403,3.598485231399536,0.1197295859456062,0.3530801236629486,0.0635299831628799,-7571,-990,-1334,-595,822,89,3
2025-06-27 16:51:51.335,-8.157045364379883,-1.908178806304932,7.999027729034424,-0.4398229718208313,-0.685390830039978,-0.7623597979545593,-7753,-989,-1299,-168,444,633,3
2025-06-27 16:51:51.419,-5.892130374908447,-5.6191911697387695,10.187328338623049,-0.2382374405860901,0.8857545852661133,0.1747074574232101,-7397,-824,-799,407,383,607,3
2025-06-27 16:51:51.519,0.3351882398128509,-2.0638017654418945,5.552153587341309,0.513126790523529,0.0598647929728031,0.197920337319374,-6836,-1188,-1624,-220,518,-979,3
2025-06-27 16:51:51.832,-2.571372509002685,-0.1795651316642761,3.907337188720703,-0.1221730485558509,-0.2700024247169494,-0.3225368559360504,-7532,-1568,-1301,558,256,1390,3
2025-06-27 16:51:52.028,-3.2992098331451416,-10.57758331298828,6.224924564361572,-0.3408628106117248,0.5619960427284241,0.636521577835083,-7159,-1399,-1290,495,382,1576,3
2025-06-27 16:51:52.139,-8.942343711853027,1.5705963373184204,15.543157577514648,-0.1857030391693115,-0.6524040699005127,-1.1032226085662842,-7207,-773,-1343,785,580,262,3
2025-06-27 16:51:52.319,1.3096283674240112,-11.276689529418944,-0.7110779285430908,-0.7049384713172913,1.4367550611495972,0.7012733221054077,-7427,29,-1485,-556,-411,480,3
2025-06-27 16:51:52.419,1.3096283674240112,-11.276689529418944,-0.7110779285430908,-0.7049384713172913,1.4367550611495972,0.7012733221054077,-7427,29,-1485,-556,-411,480,3
2025-06-27 16:51:52.648,-5.767632007598877,2.4013843536376958,13.61103630065918,-0.4251621961593628,-0.9822713136672974,-1.890017032623291,-8058,-421,-1003,848,-2257,-285,3
2025-06-27 16:51:52.739,-7.204153060913086,-7.9846625328063965,11.714828491210938,-2.746450185775757,1.874134540557861,-2.557081937789917,-7657,-408,-535,1294,-2454,413,3
2025-06-27 16:51:52.826,3.4524388313293457,-11.772290229797363,-4.458003520965576,0.8662069439888,-0.4141666293144226,1.247386813163757,-7893,35,346,2586,-1493,2689,3
2025-06-27 16:51:52.919,-0.3830722570419311,-3.5482068061828613,2.360682964324951,1.3475687503814695,-2.778215169906616,1.5149458646774292,-7914,-82,339,2483,-1720,3126,3
2025-06-27 16:51:53.334,-2.6216509342193604,-16.704345703125,2.671929121017456,-4.929682731628418,2.6792550086975098,-1.0824532508850098,-7957,1540,1594,2489,-2391,1140,3
2025-06-27 16:51:53.464,-2.6216509342193604,-16.704345703125,2.671929121017456,-4.929682731628418,2.6792550086975098,-1.0824532508850098,-7957,1540,1594,2489,-2391,1140,3
2025-06-27 16:51:53.719,-7.663839817047119,-11.293449401855469,14.947001457214355,-2.976135492324829,1.3817771673202517,-2.172236919403076,-8557,2251,2031,-8,-822,270,3
2025-06-27 16:51:53.838,-0.9217676520347596,-12.294225692749023,-2.604891538619995,-1.4550809860229492,2.515542984008789,-0.4080579876899719,-8567,1263,2111,-3867,-4120,27,3
2025-06-27 16:51:54.419,-0.3519476354122162,-10.951078414916992,-0.7972691655158997,0.1527163088321685,0.0012217304902151,-0.6902777552604675,-7935,680,4095,-1100,-383,107,3
2025-06-27 16:51:54.935,-0.6775590777397156,-3.339911460876465,5.813121795654297,0.1918116807937622,-0.6450737118721008,0.921184778213501,-8013,538,4279,-849,25,-135,3
2025-06-27 16:51:55.228,1.1851298809051514,-5.808333396911621,5.564124584197998,0.1966986060142517,-0.46547931432724,0.8356636762619019,-7717,483,5202,-352,-138,-75,3
2025-06-27 16:51:55.534,-4.400542736053467,-6.775590896606445,3.739742994308472,0.1966986060142517,-2.415361166000366,3.087312936782837,-8224,758,5219,92,524,355,3
2025-06-27 16:51:55.729,-6.998251438140869,3.845088005065918,14.001291275024414,0.8258898258209229,-1.5051720142364502,1.1728612184524536,-7757,166,4516,207,327,-988,3
2025-06-27 16:51:55.819,-6.658275127410889,0.6344634294509888,14.429853439331056,-2.216219186782837,1.4660766124725342,-0.8637634515762329,-7898,1069,4560,-342,145,518,3
2025-06-27 16:51:56.139,-3.059789657592773,-4.173093795776367,5.082890033721924,1.4697418212890625,-3.838677167892456,2.1001546382904053,-8033,537,4419,-902,566,887,3
2025-06-27 16:51:56.232,-6.653486728668213,3.469198226928711,14.867992401123049,1.086118459701538,-2.141693592071533,0.5558874011039734,-8248,111,4145,-301,1253,-1465,3
2025-06-27 16:51:56.319,-4.855441093444824,-0.646434485912323,11.793837547302246,-1.1496484279632568,1.5931365489959717,-1.7727309465408323,-8527,746,3972,303,783,-135,3
2025-06-27 16:51:56.619,-0.6033388376235962,-9.87608242034912,-3.4141316413879395,2.070833206176758,-1.674992561340332,1.6664403676986694,-8453,1044,4421,375,326,266,3
2025-06-27 16:51:56.719,-3.1507694721221924,-4.060565948486328,6.069301128387451,3.121521472930908,-3.0469958782196045,2.5216517448425293,-8038,753,4332,365,-412,441,3
2025-06-27 16:51:56.826,-3.1507694721221924,-4.060565948486328,6.069301128387451,3.121521472930908,-3.0469958782196045,2.5216517448425293,-8038,753,4332,365,-412,441,3
2025-06-27 16:51:56.923,-3.134010076522827,2.288856744766236,6.696582317352295,-0.0354301854968071,1.2021827697753906,-1.3744467496871948,-8043,1122,4624,106,-210,795,3
2025-06-27 16:51:57.420,4.055777549743652,-15.193603515625,-6.959944248199463,-1.8509217500686648,0.1270599663257599,-1.4245377779006958,-7557,887,3647,1812,390,-1102,3
2025-06-27 16:51:57.629,3.811569213867188,-10.563218116760254,-11.470620155334473,1.0604621171951294,-0.856433093547821,1.368338108062744,-7823,953,3409,1524,452,-916,3
2025-06-27 16:51:57.819,4.754884719848633,-2.1811177730560303,-3.095702886581421,3.04210901260376,-1.2315043210983276,1.7861700057983398,-7955,2738,3906,656,-80,829,3
2025-06-27 16:51:57.935,1.7501614093780518,-7.410054206848144,-5.307945251464844,-3.070208787918091,-0.2993239760398865,-0.3604104816913605,-8025,2441,3555,586,298,800,3
2025-06-27 16:51:58.119,5.556941986083984,-6.289567947387695,-9.641449928283691,1.8949040174484253,-1.5919147729873655,1.4734070301055908,-7402,2953,3595,662,-370,-178,3
2025-06-27 16:51:58.219,-6.382941722869873,-7.7643961906433105,7.711723804473877,1.2205088138580322,-1.4953981637954712,-1.89979088306427,-8303,1808,3781,-300,-552,-334,3
2025-06-27 16:51:58.336,-2.365471363067627,-8.157045364379883,3.679888010025024,-4.664566993713379,1.6371188163757324,-2.367713689804077,-7914,1434,4147,111,-1111,-520,3
2025-06-27 16:51:58.419,10.038887977600098,-11.164162635803224,-13.194445610046388,1.282817006111145,0.5387831330299377,-0.6023131608963013,-7744,3135,3865,342,288,696,3
2025-06-27 16:51:58.529,3.813963413238525,-9.981427192687988,-5.17626428604126,3.455053806304932,-1.9718730449676516,1.1887437105178833,-7806,2793,3731,-558,-188,445,3
2025-06-27 16:51:58.739,8.470685958862305,-12.492944717407228,-10.216058731079102,-0.2260201424360275,0.3359758853912353,-0.2382374405860901,-7354,3350,3774,424,67,761,3
2025-06-27 16:51:58.826,1.8579005002975464,-7.85537576675415,-3.88818359375,1.3561208248138428,-1.3096951246261597,0.5998696684837341,-7794,2480,4159,-798,150,113,3
2025-06-27 16:51:59.020,0.7661445140838623,-9.792284965515137,-1.0414776802062988,-1.177748203277588,1.313360333442688,-0.1062905490398407,-7793,2278,4147,85,-123,-82,3
2025-06-27 16:51:59.144,10.881647109985352,-7.9846625328063965,-8.978256225585938,0.2284636050462722,-0.2333505302667617,-0.0097738439217209,-6810,2715,4092,-1150,-125,-15,3
2025-06-27 16:51:59.219,2.449268341064453,-8.877699851989746,-4.613626480102539,-0.588874101638794,-1.186300277709961,-0.2138028293848037,-6545,3110,4024,-905,1425,-1411,3
2025-06-27 16:51:59.629,6.10521411895752,-4.853046894073486,-7.608773231506348,-1.711644411087036,1.8496999740600584,-0.3066543638706207,-7778,2847,3809,-955,3139,-1785,3
2025-06-27 16:51:59.740,-2.7700912952423096,-11.97100830078125,-0.8571242094039917,-1.3243558406829834,-2.162462949752808,0.3995058834552765,-8085,2622,3475,-655,2029,-304,3
2025-06-27 16:51:59.819,-5.628767967224121,-14.396334648132324,11.872846603393556,2.031737804412842,-0.2883284091949463,1.027475357055664,-7540,2319,2633,362,130,546,3
2025-06-27 16:51:59.941,-3.201047658920288,-7.089231014251709,0.6224924325942993,0.3139847218990326,2.083050489425659,0.90408056974411,-7673,2640,2786,30,75,1099,3
2025-06-27 16:52:00.129,5.367800235748291,-8.848969459533691,-8.492233276367188,-1.480737328529358,1.9718730449676516,0.0317649915814399,-7426,3910,3713,-94,-1389,1369,3
2025-06-27 16:52:00.236,6.050147533416748,-10.623072624206545,-11.453861236572266,1.5503759384155271,-0.4984660446643829,0.2345722615718841,-7450,3245,3315,-161,76,630,3
2025-06-27 16:52:00.350,-6.217741966247559,-6.090848922729492,12.114660263061523,3.335324287414551,-2.255314588546753,1.5369369983673096,-7372,2451,2756,844,38,246,3
2025-06-27 16:52:00.445,-4.019864559173584,-1.3766659498214722,9.928754806518556,0.4288274049758911,1.0897835493087769,-0.5412266254425049,-7788,4193,2809,1087,-579,460,3
2025-06-27 16:52:00.733,3.126827478408813,-8.432378768920898,-5.015852451324463,-4.195422649383545,2.714685201644897,-2.083050489425659,-7460,3405,4114,169,-780,-857,3
2025-06-27 16:52:01.219,-3.28963303565979,2.0039467811584477,9.648633003234863,1.9168951511383057,-0.6389650702476501,-0.5876523852348328,-7696,2882,3859,2318,-423,772,3
2025-06-27 16:52:01.328,0.7924807667732239,-11.693281173706056,-2.80361008644104,-7.066489219665527,3.282789945602417,-2.90649676322937,-6951,3881,3990,1325,-165,737,3
2025-06-27 16:52:01.427,6.555324077606201,-12.691662788391112,-10.845733642578123,-4.239404678344727,0.4190535545349121,-0.7452555894851685,-7210,3830,3718,157,571,1216,3
2025-06-27 16:52:01.740,-1.2234370708465576,-10.041281700134276,0.8451532125473022,3.1789426803588867,-2.660928964614868,1.6872098445892334,-6883,4152,3607,1608,-1591,-173,3
2025-06-27 16:52:01.823,-0.90979665517807,-2.748543500900269,1.168370485305786,3.5992181301116943,-1.2864822149276731,1.4575244188308716,-6689,4464,3860,1440,-981,131,3
2025-06-27 16:52:02.120,1.295263171195984,-9.617507934570312,-2.1045033931732178,-5.1434855461120605,1.1520918607711792,-1.9217820167541504,-6588,4050,3366,-360,1212,-567,3
2025-06-27 16:52:02.235,6.011840343475342,-5.918466567993164,-6.603208065032959,-2.49966049194336,0.8417723178863525,-1.2791517972946167,-6901,4480,2664,-853,1287,684,3
2025-06-27 16:52:02.427,6.356605529785156,-10.14902114868164,-9.114726066589355,-0.4630358517169952,-0.0342084541916847,-1.0714576244354248,-7040,4689,2829,-403,308,570,3
2025-06-27 16:52:02.530,4.788403511047363,-5.755661010742188,-5.56173038482666,-1.156978726387024,-0.6487388610839844,0.9761626720428468,-6791,4679,3050,-562,-470,-784,3
2025-06-27 16:52:02.654,6.950367450714111,-2.432508945465088,-8.942343711853027,1.3536773920059204,-0.5656611919403076,1.0445796251296997,-6662,4617,2975,-791,-428,-862,3
2025-06-27 16:52:02.729,8.178592681884766,-8.066065788269043,-6.866570472717285,1.7482963800430298,-0.157603234052658,-1.0067058801651,-6877,4002,3079,-1076,482,-93,3
2025-06-27 16:52:02.919,5.195417881011963,-10.769119262695312,-7.240066051483154,-1.0482447147369385,0.2052507251501083,-0.921184778213501,-6841,4916,2828,-1088,658,-12,3
2025-06-27 16:52:03.028,7.920019149780273,-4.489128112792969,-8.17380428314209,0.2492330223321914,-0.9334021210670472,0.7232644557952881,-6992,3746,3677,-1167,228,-1056,3
2025-06-27 16:52:03.146,7.285555839538574,-5.7987565994262695,-7.857769966125488,3.8545596599578857,-1.8863518238067627,0.230907067656517,-7209,4378,3057,-726,645,-374,3
2025-06-27 16:52:03.519,0.2896983921527862,-7.893682956695557,0.912190854549408,3.106860637664795,0.5913175344467163,1.67254900932312,-7041,3007,2429,-2997,2504,-2886,3
2025-06-27 16:52:03.619,-3.40216064453125,-12.179304122924805,15.468936920166016,-1.9718730449676516,-0.7098253965377808,-0.6914994716644287,-8245,1647,976,-4315,2262,-2397,3
2025-06-27 16:52:03.819,-4.165910720825195,-10.366893768310549,11.982979774475098,1.1264355182647705,1.243721604347229,1.310916781425476,-8200,669,1470,-3749,802,-2289,3
2025-06-27 16:52:03.919,-1.58256733417511,-4.833893299102783,4.185064792633057,1.3231340646743774,1.6224581003189087,1.919338583946228,-7864,1083,1525,-3157,937,-2092,3
2025-06-27 16:52:04.023,2.609679937362671,-2.217030763626098,2.434903144836426,2.0427334308624268,-1.2852604389190674,1.3732250928878784,-8289,844,1433,-2788,1651,-2142,3
2025-06-27 16:52:04.644,-2.9161376953125,-5.341464042663574,2.6647465229034424,0.2651155292987823,-0.0891863256692886,0.6475171446800232,-8300,-343,1127,-365,337,-798,3
2025-06-27 16:52:04.734,-6.912060260772705,1.2282254695892334,11.513715744018556,0.6145304441452026,0.9004153609275818,-1.501506805419922,-8177,-501,1387,1271,-571,28,3
2025-06-27 16:52:04.822,-5.307945251464844,-12.67250919342041,2.2601263523101807,-3.49048399925232,2.658485651016236,-1.4880677461624146,-7958,45,805,1533,-202,-741,3
2025-06-27 16:52:04.921,2.628833532333374,-14.085088729858398,-4.824316501617432,1.1826350688934326,-0.2284636050462722,0.7513642311096191,-8155,-862,636,330,461,-1283,3
2025-06-27 16:52:05.026,-3.756502389907837,-4.481945514678955,3.375824451446533,1.0983357429504397,-2.987131118774414,1.7556266784667969,-7918,-995,926,-90,609,-1043,3
2025-06-27 16:52:05.226,-3.2992098331451416,-10.429142951965332,3.050212860107422,-0.1429424732923507,0.9431759119033812,-0.230907067656517,-8290,-775,1412,246,-543,187,3
2025-06-27 16:52:05.537,-1.192312479019165,-6.358999729156494,2.231395959854126,0.3604104816913605,-0.0390953756868839,0.2443460971117019,-8009,-1571,716,-706,647,-155,3
2025-06-27 16:52:06.731,-4.527435302734375,-9.603142738342283,3.2848446369171143,-0.0280998013913631,-1.9901989698410036,1.2974777221679688,-8252,-395,646,1132,-726,-545,3
2025-06-27 16:52:06.819,-4.527435302734375,-9.603142738342283,3.2848446369171143,-0.0280998013913631,-1.9901989698410036,1.2974777221679688,-8252,-395,646,1132,-726,-545,3
2025-06-27 16:52:07.040,-1.3239935636520386,-10.795455932617188,6.718130111694336,-0.8662069439888,2.0415115356445312,-1.610240817070007,-8258,-257,2435,305,-1898,412,3
2025-06-27 16:52:07.119,-0.9074024558067322,-6.124367713928223,-4.2951979637146,-2.365270137786865,1.1496484279632568,-0.7904596328735352,-8266,-1002,2852,1243,-1133,-170,3
2025-06-27 16:52:07.258,1.7501614093780518,-9.62947940826416,-2.7269957065582275,2.629163980484009,-1.0690141916275024,0.6890559792518616,-8107,-1106,2234,927,-45,350,3
2025-06-27 16:52:07.320,-7.412448406219482,-1.7956513166427612,12.39957046508789,2.878396987915039,-2.615725040435791,1.5809192657470703,-8149,-1343,2607,1215,51,-355,3
2025-06-27 16:52:07.520,-5.458779811859131,-4.917690277099609,9.05247688293457,0.8258898258209229,0.2431243658065796,-0.921184778213501,-8100,-146,2732,2358,-862,81,3
2025-06-27 16:52:07.633,3.45962142944336,-12.49055004119873,-2.868253707885742,1.5943583250045776,0.4031710624694824,-0.7513642311096191,-8111,-403,2473,246,813,-201,3
2025-06-27 16:52:08.036,-4.343081951141357,-6.9240312576293945,5.743690013885498,1.119105100631714,-0.7269296646118164,0.9627236127853394,-8080,-694,2736,-307,369,68,3
2025-06-27 16:52:08.219,-1.3263877630233765,-3.825934410095215,2.8778305053710938,0.8735373020172119,-0.461814135313034,0.9615018963813782,-8162,-927,2914,-195,-338,369,3
2025-06-27 16:52:08.419,-8.183381080627441,-7.201758861541748,4.668693542480469,1.273043155670166,-0.4300491213798523,0.117286130785942,-7890,-1009,2475,-149,-15,-207,3
2025-06-27 16:52:08.526,0.6009446382522583,-8.516175270080566,0.3399766385555267,-0.1233947798609733,0.5351179838180542,0.0781907513737678,-7830,-1298,2455,-338,-15,-432,3
2025-06-27 16:52:08.738,-5.9088897705078125,-11.81299114227295,5.418078422546387,0.4141666293144226,-0.067195177078247,-0.3078760802745819,-8003,-1310,2007,-254,596,-317,3
2025-06-27 16:52:08.827,2.365471363067627,-8.470685958862305,-3.8355112075805664,0.2394591718912124,-0.0708603709936142,0.7538077235221863,-8502,-1653,1677,-642,368,-300,3
2025-06-27 16:52:09.031,-2.315192937850952,-7.0317702293396,2.477998733520508,0.7452555894851685,-1.6395623683929443,1.2803735733032229,-8226,-1745,1534,-561,141,-391,3
2025-06-27 16:52:09.240,-7.005434036254883,-4.54419469833374,13.441048622131348,2.5509731769561768,-1.3720033168792725,0.7012733221054077,-8243,-1657,1585,-354,-303,76,3
2025-06-27 16:52:09.527,-0.0478840321302413,-9.255983352661133,-0.8092401623725891,-4.569272041320801,2.6792550086975098,-1.8448129892349243,-8239,-1589,1783,-1292,-418,171,3
2025-06-27 16:52:09.619,-0.0478840321302413,-9.255983352661133,-0.8092401623725891,-4.569272041320801,2.6792550086975098,-1.8448129892349243,-8239,-1589,1783,-1292,-418,171,3
2025-06-27 16:52:09.945,-5.389348030090332,-1.1204863786697388,12.43308925628662,2.9052751064300537,-3.545461893081665,2.4019222259521484,-8281,-1274,1742,-1477,-640,-317,3
2025-06-27 16:52:10.031,-2.126051187515259,8.329427719116211,18.02115631103516,0.4300491213798523,-1.5430456399917605,1.4135421514511108,-8073,-1540,2493,318,-1916,-596,3
2025-06-27 16:52:10.130,-4.565742492675781,-3.804386615753174,3.3303346633911133,-3.0103440284729004,2.722015619277954,-2.576629638671875,-7993,-1253,2707,-1174,33,697,3
2025-06-27 16:52:10.238,0.730231523513794,-11.094730377197266,-5.394136428833008,-2.41413950920105,2.27852725982666,-1.3353514671325684,-8037,-1546,2456,-2116,231,663,3
2025-06-27 16:52:10.322,2.564189910888672,-9.248801231384276,-5.542576789855957,1.7140878438949585,-2.1111502647399902,1.0580185651779177,-8214,-1898,2063,-2638,1371,1432,3
2025-06-27 16:52:10.741,-3.3877954483032227,-3.5027170181274414,4.99669885635376,-1.4001030921936035,2.582738161087036,-1.946216702461243,-8212,-372,2734,97,-1144,-84,3
2025-06-27 16:52:10.819,-0.9169792532920836,-7.671022415161133,0.0407014302909374,-6.642548561096191,3.0604348182678223,-1.6200146675109863,-8238,26,2666,123,119,-40,3
2025-06-27 16:52:11.035,4.110844135284424,-12.449849128723145,-11.164162635803224,-0.4886921942234039,0.3836233615875244,-0.0830776765942573,-8081,-296,2590,96,-290,317,3
2025-06-27 16:52:11.133,0.2130839526653289,-9.07641887664795,-1.8962076902389529,1.2205088138580322,-1.7971655130386353,0.7770205736160278,-8283,-705,2420,178,124,-279,3
2025-06-27 16:52:11.219,-4.141968727111816,-4.63517427444458,7.287950038909912,2.8185322284698486,-3.7555994987487793,1.6884315013885498,-8161,-807,2591,965,31,-40,3
2025-06-27 16:52:11.321,-2.1763293743133545,1.6136919260025024,11.568782806396484,1.3817771673202517,0.9101892113685608,-1.3927727937698364,-8166,-454,2657,1165,-302,358,3
2025-06-27 16:52:11.436,-2.1763293743133545,1.6136919260025024,11.568782806396484,1.3817771673202517,0.9101892113685608,-1.3927727937698364,-8166,-454,2657,1165,-302,358,3
2025-06-27 16:52:11.926,-3.512293815612793,-10.764330863952637,4.031835556030273,1.3182471990585327,-2.0341813564300537,0.8185594081878662,-7903,560,2890,-296,-135,177,3
2025-06-27 16:52:12.049,-5.286397457122803,-3.928884983062744,8.24084186553955,4.40556001663208,-1.1985175609588623,1.4343116283416748,-7880,1144,3160,-2385,-421,1026,3
2025-06-27 16:52:12.120,-2.468421936035156,-3.241749048233032,7.328651428222656,1.7776178121566772,0.5192354321479797,-0.6927211880683899,-7861,1061,2993,-2395,-592,470,3
2025-06-27 16:52:12.519,-4.458003520965576,-7.213729858398437,5.51624059677124,-0.4642575979232788,0.8881980776786804,-0.8845328688621521,-8345,76,3101,477,54,826,3
2025-06-27 16:52:12.629,-2.616862535476685,-9.883264541625977,3.833117008209229,-2.375044107437134,1.0604621171951294,-0.6218608021736145,-7904,727,3339,2393,-704,425,3
2025-06-27 16:52:12.819,-2.894589900970459,-7.817068576812744,0.993593692779541,0.8503243923187256,0.2467895597219467,0.3628539443016052,-8282,766,2992,1540,-528,25,3
2025-06-27 16:52:12.936,-3.514688014984131,-7.63989782333374,3.1435868740081787,0.8955284357070923,-1.692096710205078,1.0005972385406494,-8283,801,3000,173,-593,49,3
2025-06-27 16:52:13.038,-3.203441858291626,-2.322375535964966,9.363722801208496,2.583960056304932,-2.1514673233032227,0.7354817390441895,-8095,437,3215,248,-821,365,3
2025-06-27 16:52:13.627,-1.7741034030914309,-11.72201156616211,7.062894821166992,-0.6939429044723511,0.4838052690029144,-1.9608774185180664,-7937,1528,4722,1207,-343,1112,3
2025-06-27 16:52:13.738,8.180987358093262,-8.959102630615234,-7.642292022705078,0.2638937830924988,-1.2217304706573486,1.5161675214767456,-7996,1694,4409,303,286,257,3
2025-06-27 16:52:13.820,-4.738125324249268,-3.450044631958008,2.19308876991272,5.577199459075928,-1.93766450881958,0.4691445231437683,-8204,1270,4588,-1020,-385,-667,3
2025-06-27 16:52:13.919,-4.738125324249268,-3.450044631958008,2.19308876991272,5.577199459075928,-1.93766450881958,0.4691445231437683,-8204,1270,4588,-1020,-385,-667,3
2025-06-27 16:52:14.140,7.125144481658936,-10.48899745941162,-4.434061527252197,-2.8368582725524902,0.0354301854968071,-1.3048081398010254,-7676,1292,4608,189,403,69,3
2025-06-27 16:52:14.557,3.936067581176758,-9.80904483795166,-10.520122528076172,-0.9456194043159484,0.1685988008975982,0.3481931984424591,-7840,1510,3474,638,860,113,3
2025-06-27 16:52:14.733,4.235342979431152,-10.685321807861328,-7.520187377929687,1.0592403411865234,-0.2150245606899261,1.379333734512329,-8269,1550,3299,45,639,-560,3
2025-06-27 16:52:14.843,0.5315127968788147,-7.580042362213135,-5.693411827087402,3.1361820697784424,-0.1001818999648094,2.329839944839477,-7841,1064,3688,-317,-342,168,3
2025-06-27 16:52:14.920,0.4094084799289703,-3.296815633773804,1.501164436340332,3.765373468399048,-0.7293730974197388,1.9559905529022217,-7906,1310,3370,326,150,149,3
2025-06-27 16:52:15.019,-2.8419175148010254,-0.5674257874488831,5.726930618286133,-0.485027015209198,-0.8295549750328064,0.6218608021736145,-8210,1546,3289,354,-161,254,3
2025-06-27 16:52:15.244,-3.35667085647583,-13.529633522033691,0.6751648783683777,-2.201558351516724,1.6212363243103027,-1.0409144163131714,-7638,1506,3950,-733,-1083,-271,3
2025-06-27 16:52:15.436,3.5649664402008057,-9.952696800231934,-6.253654956817627,0.5558874011039734,-0.1869247704744339,0.7147123217582703,-8076,1115,3906,-273,460,165,3
2025-06-27 16:52:15.519,3.5649664402008057,-9.952696800231934,-6.253654956817627,0.5558874011039734,-0.1869247704744339,0.7147123217582703,-8076,1115,3906,-273,460,165,3
2025-06-27 16:52:15.633,-5.837063789367676,-2.252943754196167,12.25113010406494,-0.5962044596672058,-0.3103195428848266,-1.7104226350784302,-7933,1318,3571,1074,-93,74,3
2025-06-27 16:52:15.836,-2.28406834602356,-8.090007781982422,7.879317760467529,-3.056769609451294,1.4782938957214355,-2.283414363861084,-7308,1857,3765,-263,-484,288,3
2025-06-27 16:52:15.924,8.645462036132812,-4.692635536193848,-11.420342445373535,-2.0512855052948,1.7299703359603882,-1.3720033168792725,-7969,1464,3697,52,758,304,3
2025-06-27 16:52:16.126,2.0470423698425293,-10.347740173339844,-6.110002517700195,-3.0079004764556885,0.6414085030555725,-2.194227933883667,-7680,1297,3862,1201,1328,152,3
2025-06-27 16:52:16.340,3.792415380477905,-13.87918758392334,-13.177685737609863,-1.577254056930542,0.3799581825733185,0.3115412890911102,-7831,1756,3097,1244,1536,422,3
2025-06-27 16:52:16.433,6.184223175048828,-4.127603530883789,-8.793902397155762,3.1948251724243164,-0.6719517707824707,2.0305161476135254,-8029,1380,2864,35,508,844,3
2025-06-27 16:52:16.527,6.926425457000732,-0.9385270476341248,-3.059789657592773,1.9694294929504397,0.2284636050462722,0.3054326176643371,-8244,1062,2669,-162,103,218,3
2025-06-27 16:52:17.228,4.774038314819336,-6.737283706665039,-1.7286136150360107,1.8985692262649536,-0.7867944240570068,1.825265407562256,-7855,2112,2178,-462,1056,-231,3
2025-06-27 16:52:17.329,1.6089035272598269,-6.3949127197265625,1.843535304069519,1.0604621171951294,0.0195476878434419,-1.4953981637954712,-7962,2019,1955,-566,787,278,3
2025-06-27 16:52:17.547,8.7268648147583,-15.243882179260254,-2.248155355453491,0.3995058834552765,-0.0293215326964855,-0.3995058834552765,-7998,3086,1844,-145,908,1077,3
2025-06-27 16:52:17.646,6.246472358703613,-10.984597206115724,0.6105214357376099,0.4862487316131592,-0.1233947798609733,1.8008307218551636,-8286,1927,2364,-592,-563,-613,3
2025-06-27 16:52:17.833,6.730101108551025,-6.794744491577148,1.070208191871643,-0.5729916095733643,-0.0842994004487991,0.8026769161224365,-7635,2812,1662,279,202,338,3
2025-06-27 16:52:17.919,5.504269599914551,-10.170568466186523,0.2346317619085312,0.7330383062362671,-0.2834414839744568,1.936442852020264,-7998,2138,2049,-903,311,-332,3
2025-06-27 16:52:18.019,3.4739866256713867,-11.200075149536133,-1.1779472827911377,1.1557570695877075,-0.1014036312699318,2.3603832721710205,-8033,2068,1771,345,321,-95,3
2025-06-27 16:52:18.119,1.05105459690094,-9.32302188873291,0.5506663918495178,0.7098253965377808,-0.4447098970413208,2.629163980484009,-8243,2425,1245,1985,-170,-265,3
2025-06-27 16:52:18.222,-0.6344634294509888,-8.341399192810059,2.695871114730835,0.6426302194595337,-0.7867944240570068,2.579072952270508,-7894,2417,1246,2311,-636,-303,3
2025-06-27 16:52:18.419,-2.209848165512085,-3.60566782951355,6.042964935302734,-0.2321287989616394,-2.109928607940674,0.3359758853912353,-7654,2183,1874,1270,-855,-284,3
2025-06-27 16:52:18.719,-2.6408045291900635,-4.005499362945557,11.173739433288574,-0.5766568183898926,1.7531832456588743,-0.8747590184211731,-7806,1916,2472,-1862,-832,232,3
2025-06-27 16:52:18.819,-1.594538331031799,-3.679888010025024,3.069366693496704,-2.9101619720458984,2.9798007011413574,-2.091602563858032,-7768,2352,2590,-1116,17,711,3
2025-06-27 16:52:18.927,10.900800704956056,-5.585672378540039,-8.157045364379883,-0.996932089328766,1.387885808944702,-3.5527923107147217,-7664,1985,2397,-133,-542,600,3
2025-06-27 16:52:19.054,9.402029991149902,-5.564124584197998,-10.620678901672363,-0.5387831330299377,-0.2651155292987823,-2.8209757804870605,-7613,2160,2392,-333,-396,387,3
2025-06-27 16:52:19.231,5.992686748504639,-13.649343490600586,-6.593631267547607,-1.4440854787826538,0.1466076523065567,-1.9645426273345947,-7561,2106,2393,2,-448,396,3
2025-06-27 16:52:19.336,6.224924564361572,-9.65342140197754,-8.396465301513672,1.7336355447769165,-0.588874101638794,2.0732767581939697,-7952,3937,2134,2510,812,365,3
2025-06-27 16:52:19.421,8.616731643676758,-6.734889507293701,-9.011775016784668,1.9034560918807983,-0.979827880859375,3.0250046253204346,-7749,3944,1941,1144,-141,-807,3
2025-06-27 16:52:19.640,2.403778553009033,-4.891354084014893,-2.269703149795532,2.348165988922119,-1.7617353200912476,2.4446825981140137,-7397,2961,2359,-94,-192,-1063,3
2025-06-27 16:52:19.725,2.403778553009033,-4.891354084014893,-2.269703149795532,2.348165988922119,-1.7617353200912476,2.4446825981140137,-7397,2961,2359,-94,-192,-1063,3
2025-06-27 16:52:19.920,0.3112462162971496,-10.120290756225586,7.570465564727783,-0.7538077235221863,-0.817337691783905,-2.250427484512329,-7726,2540,2228,43,-303,-682,3
2025-06-27 16:52:20.030,-1.5298948287963867,-13.275848388671877,5.130774021148682,-5.826432704925537,1.302364706993103,-2.2870795726776123,-7947,2909,1503,-209,292,-355,3
2025-06-27 16:52:20.222,5.398924827575684,-10.491392135620115,-4.95120906829834,2.285857677459717,0.2528982162475586,2.7427849769592285,-7959,2885,1479,-1685,-112,-204,3
2025-06-27 16:52:20.520,-2.683900117874145,-10.62786102294922,18.002002716064453,-0.3408628106117248,0.2076941877603531,-1.6493362188339231,-7487,2830,2318,-1301,-780,2118,3
2025-06-27 16:52:21.019,-2.138022184371948,2.0829553604125977,8.154650688171387,0.9138544201850892,-1.8216001987457275,1.4343116283416748,-7571,1891,1484,-4114,2364,-3976,3
2025-06-27 16:52:21.719,-4.802768707275391,-5.128379821777344,4.786009311676025,-1.33168625831604,1.4697418212890625,-0.7721336483955383,-7925,156,1489,-3060,918,-2537,3
2025-06-27 16:52:21.823,-4.728548526763916,-2.815581083297729,6.3949127197265625,2.0622811317443848,-2.4544565677642822,2.024407386779785,-7708,-1177,-298,-3336,1645,-2934,3
2025-06-27 16:52:22.019,-4.398148536682129,1.0031704902648926,10.99656867980957,1.80816113948822,-1.2877039909362793,1.3048081398010254,-7980,-2077,-792,-3058,1540,-2418,3
2025-06-27 16:52:22.132,-4.206612586975098,2.427720546722412,10.541669845581056,-0.0696386396884918,1.3292428255081177,-0.8197811841964722,-7670,-1777,-554,-1574,-542,-638,3
2025-06-27 16:52:22.220,-0.9241618514060974,0.6200982332229614,6.406883716583252,-3.4208452701568604,2.7281241416931152,-2.177123785018921,-7790,-2093,56,-1048,-927,-498,3
2025-06-27 16:52:22.625,-4.405331134796143,-2.4803929328918457,4.967968463897705,-2.3041837215423584,2.453234910964966,-2.646268129348755,-7932,-1493,1059,165,-1665,417,3
2025-06-27 16:52:22.836,-3.7684733867645264,-8.822632789611816,-0.2705447971820831,-2.433687210083008,1.8643606901168823,-1.519832730293274,-7398,-1648,730,524,-1556,296,3
2025-06-27 16:52:22.937,-1.824381709098816,-10.654197692871094,-3.07415509223938,-0.0684169083833694,0.3371976017951965,-0.4202753007411957,-8269,-1509,-31,0,455,-275,3
2025-06-27 16:52:23.053,-2.6791117191314697,-10.460267066955566,-3.3686418533325195,-0.0122173046693205,-0.1661553531885147,-0.0452040284872055,-7819,-1606,579,793,23,-11,3
2025-06-27 16:52:23.527,-0.6943184733390808,-11.64060878753662,0.7709329724311829,-3.613878726959229,1.9156733751297,-2.689028739929199,-7765,-1440,1060,1889,232,-527,3
2025-06-27 16:52:23.719,-1.7118542194366455,-9.406818389892578,3.6822822093963614,1.9315558671951292,-2.213775634765625,1.9156733751297,-7633,-1756,137,1170,1012,475,3
2025-06-27 16:52:23.823,-1.7118542194366455,-9.406818389892578,3.6822822093963614,1.9315558671951292,-2.213775634765625,1.9156733751297,-7682,-2125,139,1375,1126,144,3
2025-06-27 16:52:23.921,-3.8163576126098633,-2.523488521575928,11.291055679321287,-0.3591887652873993,0.6646214127540588,-0.7318165898323059,-7572,-1689,-10,500,893,-1003,3
2025-06-27 16:52:24.328,-3.315969467163086,-4.448426723480225,7.682993412017822,2.459343433380127,-3.652974128723145,2.442239284515381,-7530,-2971,117,1037,-318,-771,3
2025-06-27 16:52:24.523,-6.3733649253845215,1.625662922859192,8.597578048706055,6.244264602661133,-1.8069393634796145,1.254717230796814,-8202,-1926,867,1123,-414,889,3
2025-06-27 16:52:24.619,-3.6511576175689697,-1.759738206863403,10.642226219177246,-0.2907718420028686,0.9871582388877868,-1.4880677461624146,-8062,-2107,1338,1096,-865,207,3
2025-06-27 16:52:24.741,-1.8842366933822632,-11.343728065490724,3.624821424484253,-5.423261642456055,1.5063936710357666,-1.4110987186431885,-7566,-1410,446,-1616,-885,633,3
2025-06-27 16:52:25.438,-4.541800498962402,-3.0406360626220703,9.32541561126709,2.629163980484009,-3.082426071166992,1.7886134386062622,-8110,-1577,2604,2034,-3105,409,3
2025-06-27 16:52:25.645,-3.1196448802948,-2.7437551021575928,8.585607528686523,-1.7336355447769165,0.9480628371238708,-2.6816983222961426,-8019,-22,3396,2424,-153,658,3
2025-06-27 16:52:26.044,-2.925714492797852,-7.711723804473877,6.165069580078125,2.704911231994629,-1.929112434387207,1.86191725730896,-7643,1168,3293,1716,-1189,1475,3
2025-06-27 16:52:26.533,0.4141969084739685,-15.686809539794922,-10.936713218688965,-0.1747074574232101,-1.2119566202163696,1.4453071355819702,-7115,3462,3969,1386,-255,2121,3
2025-06-27 16:52:27.019,-5.092466831207275,-7.728483200073242,5.102043628692627,-0.3103195428848266,-0.8723155856132507,-2.7403414249420166,-7079,2753,4232,455,-432,-1056,3
2025-06-27 16:52:27.136,-5.22175407409668,-17.978059768676758,3.5960910320281982,-6.093991756439209,1.602910399436951,-2.4165828227996826,-7392,2177,4111,-279,2,-1223,3
2025-06-27 16:52:27.419,-3.1938650608062744,-4.970362663269043,4.716577529907227,2.255314588546753,-1.3915510177612305,0.5949827432632446,-8485,1770,3554,-62,395,129,3
2025-06-27 16:52:27.524,-0.689530074596405,-9.5624418258667,-1.6950948238372805,-3.057991504669189,1.15820050239563,-0.817337691783905,-7481,2229,3542,366,-369,360,3
2025-06-27 16:52:27.647,-1.821987509727478,-8.221688270568848,1.6424223184585571,-0.6524040699005127,1.099557399749756,-0.4007275998592376,-8303,1996,3487,-1046,138,116,3
2025-06-27 16:52:28.030,-4.371812343597412,-4.639962673187256,3.687070608139038,2.015855312347412,-1.1068878173828125,0.5900958180427551,-7881,2197,3294,117,529,-91,3
2025-06-27 16:52:28.821,-3.634398221969605,-1.292868971824646,7.187393665313721,1.587027907371521,0.4153883755207062,-0.0806342139840126,-7869,2071,585,-1686,854,-849,3
2025-06-27 16:52:29.141,-2.212242364883423,-6.287173748016357,4.434061527252197,1.6371188163757324,-2.3432791233062744,1.7788395881652832,-7327,-1359,1648,-15468,-1976,-478,3
2025-06-27 16:52:29.222,-5.489904403686523,-6.112396717071533,8.037335395812988,-3.043330669403076,1.5992451906204224,-1.6798794269561768,-8488,-1127,2178,-2697,2741,-1027,3
2025-06-27 16:52:29.535,-10.730812072753906,1.6639702320098877,9.758766174316406,3.602883100509644,-1.3451253175735474,1.1447614431381226,-8066,-606,1497,-1732,828,-1062,3
2025-06-27 16:52:29.833,5.7772088050842285,-13.745112419128418,-3.222595453262329,1.0067058801651,-0.3799581825733185,0.4703662395477295,-7924,-786,1219,-2110,883,-653,3
2025-06-27 16:52:30.032,-7.486668586730957,3.993528366088867,13.57751750946045,3.3035593032836914,-0.6805039048194885,-0.2638937830924988,-7594,-2222,957,-1515,1097,-2108,3
2025-06-27 16:52:30.248,6.5696892738342285,-12.540828704833984,-3.7636849880218506,0.1930334120988845,0.2345722615718841,-0.0684169083833694,-8041,-1547,938,-398,-197,78,3
2025-06-27 16:52:30.521,-6.66785192489624,-3.5960910320281982,5.827486991882324,2.927266359329224,-1.2596040964126587,1.4013248682022097,-8196,-1816,686,-400,-27,331,3
2025-06-27 16:52:30.919,-5.935225963592529,-2.9927520751953125,8.959102630615234,-0.2932153046131134,0.7086036801338196,-0.9822713136672974,-7986,-1767,484,9,112,568,3
2025-06-27 16:52:31.030,-3.5266590118408203,-8.846575736999512,3.4332852363586426,-1.4489723443984983,1.0836749076843262,-1.047023057937622,-7876,-1367,1015,575,-1069,240,3
2025-06-27 16:52:31.254,-0.2202665507793426,-6.36378812789917,3.155557870864868,-0.3188716471195221,-0.4544837474822998,0.6988298296928406,-7670,-1921,223,-1888,999,-692,3
2025-06-27 16:52:31.429,-8.422801971435547,-3.969586372375488,8.614337921142578,-0.8124507665634155,0.7916813492774963,-1.0519099235534668,-8229,-1750,893,495,-526,-10,3
2025-06-27 16:52:31.553,-3.6727054119110103,-7.826645374298096,4.422090530395508,-2.091602563858032,1.4269812107086182,-1.8484781980514529,-7852,-1878,703,862,-424,128,3
2025-06-27 16:52:31.652,-0.7469909191131592,-10.821791648864746,-0.8044517636299133,-0.7147123217582703,0.4239404797554016,-0.5009095072746277,-8031,-1477,754,883,-413,371,3
2025-06-27 16:52:31.735,-1.58256733417511,-9.428366661071776,-0.4932055473327636,0.3701843321323395,-1.2315043210983276,1.0323622226715088,-7661,-1190,707,-5,115,90,3
2025-06-27 16:52:31.819,-8.652645111083984,-0.4884171485900879,13.804966926574709,2.76111102104187,-0.8808676600456238,0.1918116807937622,-7344,-3109,-842,-1458,1693,-363,3
2025-06-27 16:52:31.931,-3.5458126068115234,-8.489839553833008,4.197035789489746,-2.79898452758789,1.187522053718567,-1.3463469743728638,-8210,-2224,-781,-1367,-342,67,3
2025-06-27 16:52:32.019,6.19379997253418,-14.961366653442385,-7.769184589385986,0.8662069439888,-0.2076941877603531,0.1233947798609733,-7462,-1657,-352,-190,-924,1808,3
2025-06-27 16:52:32.143,-5.418078422546387,-6.823474884033203,9.090784072875977,-0.0036651915870606,-2.4544565677642822,0.8906415104866028,-7340,-1129,-1151,-404,747,1079,3
2025-06-27 16:52:32.450,-3.126827478408813,-2.6862943172454834,11.97100830078125,1.1924089193344116,-1.3622294664382937,0.960280179977417,-7770,-559,-1294,-1669,340,1657,3
2025-06-27 16:52:32.527,-3.270479440689087,-7.443572998046875,12.109871864318848,-0.1160643994808197,0.7965682744979858,0.0635299831628799,-7810,573,188,-3066,-164,627,3
2025-06-27 16:52:32.842,-0.569819986820221,-5.384559631347656,3.859453201293945,0.4276056587696075,-2.276083946228028,-0.0977384373545646,-7852,-30,186,-1234,91,-326,3
2025-06-27 16:52:32.925,-2.1164743900299072,-2.6455929279327397,17.06587028503418,1.0433578491210938,-1.056796908378601,-0.8613200187683105,-7940,-264,-338,5964,-1772,1456,3
2025-06-27 16:52:33.019,-3.4811692237854004,-2.5929205417633057,13.76426601409912,-0.2162462919950485,1.4758504629135132,-1.0702359676361084,-7657,99,6,6231,-2090,1506,3
2025-06-27 16:52:33.247,2.2577321529388428,-4.788403511047363,-3.251325845718384,-6.55458402633667,1.93766450881958,-0.9199630618095398,-7757,391,417,4905,-2033,3358,3
2025-06-27 16:52:33.332,5.183446884155273,-10.316615104675291,-4.503493309020996,-1.540602207183838,0.2565633952617645,-1.4330898523330688,-7638,1347,200,2997,-1011,1267,3
2025-06-27 16:52:33.421,-0.3303998410701751,-15.725116729736328,-5.25527286529541,-2.7562239170074463,0.6548475623130798,0.2003637999296188,-7786,2123,1076,4068,-423,328,3
2025-06-27 16:52:33.519,-0.3303998410701751,-15.725116729736328,-5.25527286529541,-2.7562239170074463,0.6548475623130798,0.2003637999296188,-7786,2123,1076,4068,-423,328,3
