Timestamp,Gyro_x_x,Gyro_y_x,Gyro_z_x,Acc_x_x,Acc_y_x,Acc_z_x,Gyro_x_y,Gyro_y_y,Gyro_z_y,Acc_x_y,Acc_y_y,Acc_z_y,combined_action_num
2025-06-27 16:57:10.716,9.763554573059082,-2.387019157409668,1.6280571222305298,0.147829383611679,0.1392772793769836,0.1857030391693115,-7810,-1936,2315,-154,-295,306,5
2025-06-27 16:57:10.809,9.801861763000488,-2.22660756111145,1.558625340461731,-0.0195476878434419,0.1624901592731475,0.1685988008975982,-7837,-2036,2327,-604,70,45,5
2025-06-27 16:57:10.933,9.65342140197754,-2.0446481704711914,1.5394717454910278,-0.1136209368705749,0.1209513172507286,0.0940732508897781,-8055,-2387,2333,-158,-107,-32,5
2025-06-27 16:57:11.023,9.454702377319336,-2.2146365642547607,1.7046716213226318,-0.2577851414680481,-0.0158824957907199,-0.1099557429552078,-7820,-2311,2020,336,329,97,5
2025-06-27 16:57:11.118,9.548076629638672,-2.537853717803955,1.680729627609253,-0.2577851414680481,-0.067195177078247,-0.1918116807937622,-8047,-2413,2042,205,338,-213,5
2025-06-27 16:57:11.231,9.543288230895996,-2.6455929279327397,1.594538331031799,-0.1221730485558509,-0.1453859210014343,-0.1918116807937622,-7883,-2320,2005,603,150,311,5
2025-06-27 16:57:11.338,9.758766174316406,-2.8371291160583496,1.8339585065841677,-0.0733038261532783,-0.2272418737411499,-0.117286130785942,-7835,-2157,2017,195,-3,427,5
2025-06-27 16:57:11.510,9.624691009521484,-2.456450939178467,1.867477297782898,0.1160643994808197,0.0549778714776039,0.0867428630590438,-7861,-2169,2010,26,318,244,5
2025-06-27 16:57:11.608,9.761159896850586,-2.3319525718688965,1.5849615335464478,0.0879645943641662,0.0830776765942573,0.0647517144680023,-7842,-2136,1975,-128,155,313,5
2025-06-27 16:57:11.717,10.216058731079102,-2.286462545394897,1.4389152526855469,-0.0464257597923278,0.0928515195846557,0.0623082555830478,-7902,-1787,1963,277,374,58,5
2025-06-27 16:57:11.908,8.947132110595703,-2.248155355453491,1.403002142906189,-0.3396410644054413,0.3188716471195221,0.1453859210014343,-8139,-2087,2072,138,588,-288,5
2025-06-27 16:57:12.134,9.48343276977539,-2.942473888397217,1.278503656387329,-0.2052507251501083,-0.1881465017795562,-0.4691445231437683,-7644,-2355,1976,437,-89,-625,5
2025-06-27 16:57:12.208,9.83538055419922,-2.595314741134644,1.479616641998291,0.2907718420028686,-0.3726277947425842,-0.3286454975605011,-8061,-2362,2321,699,95,-565,5
2025-06-27 16:57:12.308,9.96706199645996,-2.636016130447388,1.7310078144073486,-0.0109955742955207,-0.117286130785942,-0.098960168659687,-7810,-2213,2211,179,31,-1087,5
2025-06-27 16:57:12.408,10.031704902648926,-2.5019407272338867,1.8602946996688845,-0.0561996027827262,0.0036651915870606,0.0195476878434419,-7840,-2434,2205,124,-310,-392,5
2025-06-27 16:57:12.510,9.749189376831056,-2.1811177730560303,1.9249382019042969,0.0610865242779254,0.1368338167667389,0.2565633952617645,-7828,-2543,2422,-13,-83,-281,5
2025-06-27 16:57:12.617,9.423578262329102,-1.9584569931030276,1.9105730056762693,0.2394591718912124,0.171042263507843,0.361632227897644,-8043,-2243,2161,-199,139,389,5
2025-06-27 16:57:12.708,8.923190116882324,-1.6974890232086182,2.006340980529785,0.2247984111309051,0.0830776765942573,0.351858377456665,-7962,-2585,1769,-1258,-21,668,5
2025-06-27 16:57:12.808,8.923190116882324,-1.6974890232086182,2.006340980529785,0.2247984111309051,0.0830776765942573,0.351858377456665,-7962,-2585,1769,-1258,-21,668,5
2025-06-27 16:57:12.918,9.279925346374512,-1.8818424940109253,2.008735179901123,0.5082398653030396,-0.1771509200334549,-0.0085521135479211,-8274,-2832,1720,-524,315,290,5
2025-06-27 16:57:13.117,9.313444137573242,-2.1978771686553955,1.903390407562256,-0.0757472887635231,-0.0452040284872055,-0.0305432621389627,-7825,-2391,1884,-142,-70,-97,5
2025-06-27 16:57:13.309,9.394847869873049,-1.400607943534851,2.032677173614502,0.2284636050462722,-0.0195476878434419,0.0574213340878486,-8062,-2333,1852,-107,108,238,5
2025-06-27 16:57:13.407,9.859322547912598,-2.52109432220459,2.126051187515259,-0.4019493460655212,0.2003637999296188,-0.0232128798961639,-8309,-2177,1721,529,-283,-99,5
2025-06-27 16:57:13.541,10.53688144683838,-3.799597978591919,2.983175277709961,0.0745255574584007,0.455705463886261,0.6499606370925903,-7910,-2052,1722,305,234,-96,5
2025-06-27 16:57:13.608,9.873687744140623,-5.169081687927246,3.3854012489318848,0.461814135313034,0.6768386960029602,1.5063936710357666,-7909,-2041,2051,11,546,-118,5
2025-06-27 16:57:13.709,8.14028549194336,-5.966350555419922,3.6320040225982666,-0.0635299831628799,0.9834930300712584,1.8887953758239744,-7838,-2163,1759,-79,-21,-44,5
2025-06-27 16:57:13.812,5.652710437774658,-6.730101108551025,1.4077905416488647,-4.769635677337647,0.5766568183898926,2.660928964614868,-7831,-2069,1762,-52,43,-100,5
2025-06-27 16:57:14.029,2.693476915359497,-9.749189376831056,-6.339846134185791,-0.4434881806373596,-0.442266434431076,0.950506329536438,-7880,-2384,2419,-627,-1842,-279,5
2025-06-27 16:57:14.136,2.319981336593628,-5.899312973022461,-1.2832920551300049,3.720169305801392,0.3921754956245422,-0.8148942589759827,-7739,-2580,2882,1281,-496,49,5
2025-06-27 16:57:14.319,2.87064790725708,-9.114726066589355,2.980781078338623,1.742187738418579,-0.5290092825889587,0.1966986060142517,-7407,-2564,2870,1333,-570,-263,5
2025-06-27 16:57:14.408,3.4189200401306152,-8.678980827331543,3.201047658920288,0.5778785347938538,0.1502728462219238,0.4190535545349121,-7632,-2858,3438,-39,-482,43,5
2025-06-27 16:57:14.745,2.7269957065582275,-6.416460514068604,4.982333660125732,0.3811798989772796,-0.5290092825889587,0.5522221922874451,-7956,-2477,3023,244,823,-404,5
2025-06-27 16:57:14.812,2.0374655723571777,-7.838616371154785,3.620033025741577,-0.4972442984580993,-0.5497786998748779,0.2125810980796814,-7622,-2916,3146,273,562,2,5
2025-06-27 16:57:14.928,1.7908629179000854,-9.883264541625977,3.0765492916107178,-1.4135421514511108,-0.4141666293144226,0.4153883755207062,-7844,-2824,2850,30,605,-301,5
2025-06-27 16:57:15.027,2.209848165512085,-9.299078941345217,3.8714241981506343,0.2748893499374389,-0.1429424732923507,0.230907067656517,-7669,-2696,2934,-53,44,275,5
2025-06-27 16:57:15.217,1.5873557329177856,-12.531251907348633,1.5610195398330688,-1.583362698554993,0.1038470938801765,0.4019493460655212,-7643,-2272,2706,182,7,166,5
2025-06-27 16:57:15.557,1.139639973640442,-9.0859956741333,-2.078166961669922,0.3445279896259308,-0.4263839423656463,0.1490511149168014,-7601,-2554,2663,-754,174,-429,5
2025-06-27 16:57:15.809,10.299856185913086,-14.767436027526855,-3.2537200450897217,1.7165313959121704,-0.0403171069920063,-1.674992561340332,-7164,-2604,3074,-2989,-1136,337,5
2025-06-27 16:57:16.009,6.971915245056152,-7.82185697555542,-1.45806884765625,-0.5473352670669556,0.0733038261532783,1.2486085891723633,-7684,-3217,3382,-162,-679,664,5
2025-06-27 16:57:16.129,5.480327606201172,-7.247248649597168,-1.7501614093780518,0.3139847218990326,-0.0952949747443199,0.6719517707824707,-7349,-3332,3137,248,957,-951,5
2025-06-27 16:57:16.235,6.110002517700195,-5.693411827087402,0.1005564704537391,0.5815436840057373,-0.0073303831741213,-0.197920337319374,-7859,-3100,2811,201,1330,774,5
2025-06-27 16:57:16.322,6.560112476348877,-9.023746490478516,-0.5099649429321289,0.5656611919403076,0.2015855312347412,-0.6695083379745483,-8001,-2184,2452,537,155,367,5
2025-06-27 16:57:16.408,6.548141479492188,-9.186552047729492,0.2537853717803955,1.1520918607711792,0.2272418737411499,-0.1551597714424133,-8214,-2652,2660,684,888,334,5
2025-06-27 16:57:16.519,6.763619899749756,-7.881711959838867,1.9177556037902832,0.46547931432724,0.2736676335334778,0.4153883755207062,-7975,-2496,2441,1103,364,-350,5
2025-06-27 16:57:16.727,5.65031623840332,-7.1490864753723145,2.28406834602356,0.3787364661693573,0.1062905490398407,0.1563815027475357,-8005,-2876,2477,-326,-19,-283,5
2025-06-27 16:57:16.928,5.640739440917969,-7.951143741607666,3.1316158771514893,0.4776966273784637,0.0024434609804302,0.1368338167667389,-7600,-2885,2522,325,-105,-1126,5
2025-06-27 16:57:17.033,5.571307182312012,-8.068459510803223,3.6511576175689697,0.8552113175392151,0.0109955742955207,0.261450320482254,-7883,-2506,2466,87,-318,-1006,5
2025-06-27 16:57:17.113,5.403713226318359,-7.271190643310547,4.2975921630859375,0.807563841342926,0.0891863256692886,0.452040284872055,-7417,-3150,2546,101,255,754,5
2025-06-27 16:57:17.611,4.630385875701904,-6.380547523498535,6.517016887664795,-1.2034045457839966,0.067195177078247,-0.1832595765590667,-7365,-3412,3127,-219,0,785,5
2025-06-27 16:57:17.716,4.630385875701904,-6.380547523498535,6.517016887664795,-1.2034045457839966,0.067195177078247,-0.1832595765590667,-7365,-3412,3127,-219,0,785,5
2025-06-27 16:57:17.808,5.779603004455566,-5.2672438621521,3.8091750144958496,-0.0916297882795333,-0.167377084493637,-0.2565633952617645,-7378,-3304,3054,-37,325,164,5
2025-06-27 16:57:18.008,6.138733386993408,-9.883264541625977,1.9273324012756348,-0.8210029006004333,0.1038470938801765,0.2480112910270691,-7762,-3236,3007,301,32,-257,5
2025-06-27 16:57:18.136,4.845864295959473,-8.118738174438477,3.1004912853240967,1.3341296911239624,-0.0439822971820831,0.2553416788578033,-8496,-2484,2684,-1240,1956,53,5
2025-06-27 16:57:18.308,4.862623691558838,-7.137115478515625,4.364629745483398,0.0684169083833694,-0.0574213340878486,-0.1295034289360046,-7209,-2548,2749,1707,-4,607,5
2025-06-27 16:57:18.428,5.13316822052002,-7.405265808105469,4.218583583831787,0.0879645943641662,-0.058643065392971,-0.1319468915462494,-7730,-2520,2753,2475,2696,244,5
2025-06-27 16:57:18.609,5.173870086669922,-7.582436561584473,4.20421838760376,0.3995058834552765,-0.1453859210014343,-0.1624901592731475,-8293,-2162,2311,-321,-2353,-2083,5
2025-06-27 16:57:18.729,5.303156852722168,-7.51779317855835,4.730942726135254,-0.2235766798257827,0.1026253625750541,0.1563815027475357,-7333,-2899,2448,-913,591,-1084,5
2025-06-27 16:57:18.943,5.140350818634033,-7.189787864685059,4.309563159942627,0.090408056974411,-0.0207694191485643,-0.0280998013913631,-7902,-3186,2615,-1496,312,-499,5
2025-06-27 16:57:19.021,6.380547523498535,-4.568136692047119,3.952826976776123,0.3090978264808655,-0.3775147199630737,-0.1197295859456062,-7422,-3087,2853,78,-807,601,5
2025-06-27 16:57:19.109,5.363011837005615,-7.268796443939209,4.546588897705078,0.0256563406437635,0.0109955742955207,-0.0256563406437635,-7639,-2544,2831,-122,87,-66,5
2025-06-27 16:57:19.351,5.793968200683594,-6.485892295837402,4.292803764343262,0.1759291887283325,-0.0305432621389627,0.0830776765942573,-7595,-2830,2519,-736,-341,487,5
2025-06-27 16:57:19.416,5.793968200683594,-6.485892295837402,4.292803764343262,0.1759291887283325,-0.0305432621389627,0.0830776765942573,-7676,-2617,2432,-595,619,635,5
2025-06-27 16:57:19.630,5.628767967224121,-6.993463039398193,4.6471452713012695,-0.2467895597219467,-0.1942551434040069,-0.1539380401372909,-7912,-2599,2344,-1626,-41,63,5
2025-06-27 16:57:19.823,6.074089527130127,-7.501033782958984,4.472368717193604,-0.1942551434040069,-0.2724458873271942,-0.0036651915870606,-8541,-2282,2265,-2694,-1992,524,5
2025-06-27 16:57:19.911,6.133944988250732,-5.796362400054932,3.588908433914185,-0.4214970171451568,-0.1380555480718612,0.1380555480718612,-7402,-2557,2882,-1411,-2473,202,5
2025-06-27 16:57:20.026,6.016628742218018,-7.450755596160889,3.213018655776977,-0.4434881806373596,-0.117286130785942,-0.0439822971820831,-7322,-2825,2717,-1160,-2217,-63,5
2025-06-27 16:57:20.108,6.083666324615479,-7.608773231506348,3.3877954483032227,-0.0244346093386411,0.0659734457731247,0.0183259565383195,-7673,-2471,3091,353,82,-1960,5
2025-06-27 16:57:20.340,5.872976779937744,-6.742072105407715,3.2537200450897217,0.2138028293848037,0.140499010682106,0.0757472887635231,-7802,-3128,3167,234,55,-231,5
2025-06-27 16:57:20.529,5.882553577423096,-7.443572998046875,2.58813214302063,-0.0012217304902151,0.0818559452891349,-0.0500909499824047,-7891,-3199,3080,82,-1140,-441,5
2025-06-27 16:57:20.743,6.009446144104004,-6.904877662658691,2.4660277366638184,-0.2773328125476837,0.1185078546404838,-0.0720821022987365,-7820,-2980,3118,93,-1361,-499,5
2025-06-27 16:57:20.915,5.779603004455566,-7.07726001739502,3.045424461364746,0.1514945775270462,0.0146607663482427,-0.1783726513385772,-6838,-3408,3499,2637,941,1146,5
2025-06-27 16:57:21.423,5.846640586853027,-8.271966934204102,1.235408067703247,-2.409252643585205,-0.1857030391693115,0.0036651915870606,-7463,-2119,3252,885,3842,-1452,5
2025-06-27 16:57:21.608,4.264073371887207,-10.69489860534668,-1.2832920551300049,-3.3292155265808105,-0.4043927788734436,0.3701843321323395,-8447,-2084,2843,-676,2266,-2224,5
2025-06-27 16:57:21.737,4.527435302734375,-6.809109687805176,-0.8786720037460327,1.803274154663086,-0.5876523852348328,0.1331686228513717,-8208,-3208,2226,-997,564,-498,5
2025-06-27 16:57:21.908,5.91128396987915,-11.113883972167969,0.363918662071228,2.434908866882324,-0.5424483418464661,-0.0354301854968071,-8713,-3109,2380,-267,-1262,-473,5
2025-06-27 16:57:22.208,6.186617374420166,-7.927201747894287,3.095702886581421,0.7831292152404785,0.0280998013913631,0.271224170923233,-8089,-3095,2677,-1334,-3275,487,5
2025-06-27 16:57:22.626,5.621585369110107,-8.058882713317871,4.821922302246094,0.3323107063770294,0.0146607663482427,-0.304210901260376,-7547,-1886,4407,955,-741,716,5
2025-06-27 16:57:22.822,6.14831018447876,-5.631162166595459,5.006275653839111,0.0830776765942573,0.3139847218990326,-0.1637118905782699,-7643,-2085,4094,-520,348,-1141,5
2025-06-27 16:57:22.926,6.14831018447876,-5.631162166595459,5.006275653839111,0.0830776765942573,0.3139847218990326,-0.1637118905782699,-8190,-1835,3911,-2356,-774,-1382,5
2025-06-27 16:57:23.008,5.928043365478516,-5.671864032745361,4.920084476470947,-0.7110471725463867,0.598647952079773,-0.4447098970413208,-7205,-2807,3492,-1561,53,-79,5
2025-06-27 16:57:23.319,5.849034786224365,-9.579200744628906,3.485957622528076,-1.665218710899353,0.7415903806686401,-0.5522221922874451,-9036,-2547,3024,242,-822,-1313,5
2025-06-27 16:57:23.408,4.594472885131836,-7.33583402633667,4.14915132522583,-1.665218710899353,0.7415903806686401,-0.5522221922874451,-6860,-2134,3753,2404,-74,655,5
2025-06-27 16:57:23.514,5.422866821289063,-6.813898086547852,3.660734415054321,-0.271224170923233,0.2028072625398636,-0.2785545587539673,-7061,-1433,3833,1855,2874,-173,5
2025-06-27 16:57:23.627,5.65031623840332,-7.582436561584473,3.514688014984131,0.1258382350206375,-0.2541199326515198,-0.1295034289360046,-8949,-1911,2698,-170,4318,530,5
2025-06-27 16:57:23.812,6.5050458908081055,-6.191405773162842,3.9264907836914062,0.3286454975605011,-0.3677408695220947,0.2076941877603531,-7926,-667,3353,545,970,858,5
2025-06-27 16:57:23.908,6.495469093322754,-6.428431510925293,3.8355112075805664,0.4789183437824249,-0.3579670190811157,0.0928515195846557,-8358,-997,3106,927,-1894,878,5
2025-06-27 16:57:24.510,6.325480937957764,-6.517016887664795,3.790021181106568,-0.0305432621389627,-0.0757472887635231,0.0109955742955207,-8261,-128,4003,-561,226,6,5
2025-06-27 16:57:24.850,6.411672115325928,-6.303933143615723,3.7684733867645264,-0.0244346093386411,-0.0329867228865623,0.0842994004487991,-8579,-59,2474,-7940,8140,1805,5
2025-06-27 16:57:24.913,6.552929878234863,-6.603208065032959,3.687070608139038,-0.1270599663257599,-0.1014036312699318,0.0146607663482427,-9736,-1098,2542,3413,-6152,-2947,5
2025-06-27 16:57:25.225,6.531382083892822,-6.550535678863525,3.541024208068848,-0.0427605658769607,-0.0293215326964855,-0.0158824957907199,-8061,73,1782,1314,-3372,-704,5
2025-06-27 16:57:25.446,5.758055210113525,-7.204153060913086,3.3423056602478027,-0.4630358517169952,0.5143485069274902,0.2028072625398636,-8247,-439,2579,-1674,94,-1296,5
2025-06-27 16:57:25.708,7.405265808105469,-5.418078422546387,4.220977783203125,1.8668042421340945,-0.0525344125926494,-0.5595525503158569,-7923,-2568,2800,-554,-1387,105,5
2025-06-27 16:57:26.014,4.003105163574219,-8.226476669311523,3.354276657104492,-0.7012733221054077,0.5094616413116455,0.1209513172507286,-8258,-1624,2191,-827,1488,-637,5
2025-06-27 16:57:26.136,5.066130638122559,-7.726089000701904,3.567360639572144,1.1252137422561646,-0.0378736443817615,0.0623082555830478,-8286,-1979,2121,-1421,284,-796,5
2025-06-27 16:57:26.208,7.024587631225586,-7.91283655166626,5.688623428344727,3.640756845474243,0.2822197377681732,0.1857030391693115,-7746,-3124,2075,-637,445,609,5
2025-06-27 16:57:26.308,5.978321552276611,-5.640739440917969,5.475539207458496,-0.4434881806373596,1.1484266519546509,1.0897835493087769,-8055,-2257,1787,868,-16,-73,5
2025-06-27 16:57:27.008,2.8371291160583496,-8.286332130432129,6.744466304779053,0.0842994004487991,-0.2406809031963348,-0.1356120854616165,-7833,-2901,2236,-620,-82,103,5
2025-06-27 16:57:27.109,3.485957622528076,-8.17141056060791,4.256890773773193,-0.0757472887635231,-0.4178318381309509,-0.0476474873721599,-7781,-2774,2454,-45,60,916,5
2025-06-27 16:57:27.210,2.523488521575928,-7.86734676361084,2.346317768096924,-0.8283332586288452,-0.6389650702476501,-0.2223549485206604,-7619,-2921,2822,522,326,750,5
2025-06-27 16:57:27.441,7.678205013275146,-1.3958195447921753,2.834734916687012,-0.8491026759147644,-1.8387043476104736,-1.529606580734253,-8113,-2226,2279,-20,-111,-811,5
2025-06-27 16:57:27.615,11.23598861694336,-10.30703830718994,2.0901381969451904,-1.605353832244873,0.0623082555830478,-1.5271631479263306,-7805,-2945,2583,-1029,-498,-345,5
2025-06-27 16:57:27.709,5.389348030090332,-9.421183586120604,0.3375824391841888,-0.9272934198379515,0.4605923891067505,0.2797762751579284,-7979,-1978,2044,-1571,1031,1612,5
2025-06-27 16:57:27.808,7.493851184844971,-5.791574001312256,0.3016694188117981,-0.1062905490398407,0.3787364661693573,0.0794124826788902,-8120,-1787,1924,-1837,264,1865,5
2025-06-27 16:57:28.030,7.750030994415283,-6.763619899749756,0.2346317619085312,-0.3970624208450317,0.140499010682106,0.2590068578720093,-7990,-2338,2170,-1048,40,487,5
2025-06-27 16:57:28.127,6.2201361656188965,-7.477091789245605,0.2896983921527862,0.2724458873271942,-0.1392772793769836,0.098960168659687,-7986,-2192,1927,23,129,-909,5
2025-06-27 16:57:28.536,7.352593421936035,-8.001421928405762,-0.7661445140838623,-1.303586483001709,0.0036651915870606,0.0916297882795333,-7892,-2659,2121,424,173,-190,5
2025-06-27 16:57:28.634,6.162675380706787,-7.51779317855835,-0.4716577231884002,-2.554638385772705,0.3628539443016052,0.442266434431076,-7820,-2652,2112,217,264,-307,5
2025-06-27 16:57:28.708,5.554547786712647,-7.55131196975708,-0.6655880808830261,2.3689353466033936,-0.1148426681756973,0.5534439086914062,-8026,-2439,2081,275,-51,368,5
2025-06-27 16:57:28.811,5.554547786712647,-7.55131196975708,-0.6655880808830261,2.3689353466033936,-0.1148426681756973,0.5534439086914062,-7947,-2643,2083,-105,44,573,5
2025-06-27 16:57:29.043,3.495534420013428,-7.438784599304199,1.403002142906189,1.519832730293274,-0.504574716091156,0.3090978264808655,-8058,-2279,2115,369,-95,181,5
2025-06-27 16:57:29.160,4.180276393890381,-9.363722801208496,4.752490520477295,0.6682865619659424,0.0952949747443199,0.1246165111660957,-8037,-2193,2128,213,-102,138,5
2025-06-27 16:57:29.232,4.395754337310791,-6.258443355560303,3.799597978591919,2.048841953277588,-0.2101376503705978,0.0354301854968071,-7948,-2221,1961,807,-67,278,5
2025-06-27 16:57:29.322,4.900930881500244,-7.690176010131836,4.345476150512695,0.1527163088321685,-0.0733038261532783,0.0280998013913631,-7854,-2399,1971,874,329,354,5
2025-06-27 16:57:29.517,4.592078685760498,-8.042123794555664,3.907337188720703,-0.1954768747091293,-0.0415388382971286,-0.0256563406437635,-7997,-2041,1991,452,193,344,5
2025-06-27 16:57:29.817,4.441244125366211,-9.406818389892578,-0.4836287498474121,-2.404365539550781,0.5778785347938538,-0.1527163088321685,-7854,-1965,2086,47,-42,341,5
2025-06-27 16:57:30.010,4.797980308532715,-11.635820388793944,-5.236119270324707,-0.5681046843528748,0.0769690200686454,0.1600466966629028,-7870,-2060,2095,-321,15,-109,5
2025-06-27 16:57:30.134,4.537012100219727,-8.518569946289062,-2.6886885166168213,2.39825701713562,-0.5351179838180542,0.171042263507843,-7851,-1750,2086,-171,12,-125,5
2025-06-27 16:57:30.228,4.491522312164307,-7.388506412506103,0.5770025849342346,3.067765235900879,-0.5363397002220154,0.230907067656517,-7858,-2039,2161,-837,-42,-128,5
2025-06-27 16:57:30.346,4.264073371887207,-7.491456985473633,4.323928356170654,0.3787364661693573,0.0561996027827262,0.0659734457731247,-7842,-1925,1772,-541,-83,89,5
2025-06-27 16:57:30.426,4.400542736053467,-7.833827972412109,4.479551315307617,0.4471533596515655,-0.0647517144680023,0.0109955742955207,-7883,-2141,1693,-401,100,338,5
2025-06-27 16:57:30.621,4.414907932281494,-7.582436561584473,4.367023944854736,0.1649336218833923,-0.0561996027827262,0.0757472887635231,-8204,-2139,1731,-672,-189,308,5
2025-06-27 16:57:30.717,4.335899353027344,-7.999027729034424,2.9759926795959477,-0.442266434431076,0.3188716471195221,-0.0061086523346602,-8234,-1724,2113,-1238,-855,531,5
2025-06-27 16:57:30.934,3.49314022064209,-12.016498565673828,-2.8419175148010254,-3.417180299758911,0.1148426681756973,0.1331686228513717,-7891,-1835,2430,-627,-623,334,5
2025-06-27 16:57:31.129,3.332728862762451,-8.097189903259277,-2.4396915435791016,-0.0806342139840126,-0.1331686228513717,0.0867428630590438,-8272,-1673,2570,-177,-347,-118,5
2025-06-27 16:57:31.213,3.7277719974517822,-10.101137161254885,-3.023876667022705,-0.0720821022987365,-0.2076941877603531,-0.067195177078247,-8236,-1615,2220,-346,76,244,5
2025-06-27 16:57:31.424,3.378218650817871,-9.126696586608888,-2.3942017555236816,-0.1087340116500854,-0.0696386396884918,0.0171042270958423,-8286,-1263,2185,-195,-65,311,5
2025-06-27 16:57:31.511,3.378218650817871,-9.126696586608888,-2.3942017555236816,-0.1087340116500854,-0.0696386396884918,0.0171042270958423,-8286,-1263,2185,-195,-65,311,5
2025-06-27 16:57:31.623,3.84269380569458,-8.044517517089844,-3.6176388263702393,-0.0171042270958423,0.1417207419872284,0.0268780700862407,-8068,-1226,2278,-297,61,299,5
2025-06-27 16:57:31.941,3.988739967346192,-8.954314231872559,-4.194641590118408,-0.1698205322027206,-0.1624901592731475,0.0415388382971286,-8239,-1226,2256,340,-10,71,5
2025-06-27 16:57:32.241,3.6296098232269287,-8.633491516113281,-3.5865142345428467,0.2223549485206604,-0.0293215326964855,0.0781907513737678,-8284,-1215,2192,299,-30,-64,5
2025-06-27 16:57:32.521,4.07014274597168,-8.070854187011719,-3.883395195007324,-0.0549778714776039,0.1832595765590667,0.0134390350431203,-8225,-1226,2409,-25,121,48,5
2025-06-27 16:57:32.711,4.1180267333984375,-8.525752067565918,-4.46518611907959,0.3384193480014801,0.0097738439217209,-0.0232128798961639,-8250,-1236,2374,-109,-86,119,5
2025-06-27 16:57:32.809,3.93367338180542,-7.103596210479736,-3.9193081855773926,0.1185078546404838,-0.1136209368705749,-0.1221730485558509,-8221,-1272,2200,354,-75,104,5
2025-06-27 16:57:32.907,3.471592426300049,-9.524134635925291,-2.7461493015289307,-0.2675589919090271,-0.0305432621389627,0.130725160241127,-8245,-1562,2185,258,-19,127,5
2025-06-27 16:57:33.209,3.734954595565796,-8.44195556640625,-3.296815633773804,0.0427605658769607,-0.0452040284872055,0.067195177078247,-8237,-1797,2424,140,56,-729,5
2025-06-27 16:57:33.330,3.5960910320281982,-9.512163162231444,-3.0573954582214355,-0.1514945775270462,-0.0134390350431203,-0.0219911485910415,-8267,-1952,2297,1340,-586,-1530,5
2025-06-27 16:57:33.408,4.041412353515625,-8.559270858764648,-3.4308910369873047,0.1417207419872284,0.3078760802745819,0.0146607663482427,-8279,-2002,2628,1242,-634,-1910,5
2025-06-27 16:57:33.508,3.821146011352539,-8.9064302444458,-2.882618904113769,0.0354301854968071,0.1026253625750541,-0.0293215326964855,-8053,-1776,2610,1618,617,-386,5
2025-06-27 16:57:33.617,3.821146011352539,-8.9064302444458,-2.882618904113769,0.0354301854968071,0.1026253625750541,-0.0293215326964855,-7985,-2316,2569,866,1145,221,5
2025-06-27 16:57:33.822,3.44765043258667,-8.736441612243652,-3.155557870864868,-0.1331686228513717,-0.0232128798961639,0.1221730485558509,-7838,-2402,2192,-36,131,-499,5
2025-06-27 16:57:33.914,3.44765043258667,-8.736441612243652,-3.155557870864868,-0.1331686228513717,-0.0232128798961639,0.1221730485558509,-7818,-2619,2231,15,114,-483,5
2025-06-27 16:57:34.229,3.5386300086975098,-8.645462036132812,-3.739742994308472,-0.2076941877603531,-0.0183259565383195,-0.0024434609804302,-7953,-2491,2186,-166,-98,13,5
2025-06-27 16:57:34.308,3.6176388263702393,-8.769960403442383,-4.197035789489746,-0.2015855312347412,-0.0268780700862407,-0.0061086523346602,-8018,-2897,2251,-554,-304,106,5
2025-06-27 16:57:34.433,3.670311212539673,-8.429984092712402,-4.10366153717041,-0.0952949747443199,-0.0867428630590438,-0.0183259565383195,-7603,-2719,2265,-431,-165,-245,5
2025-06-27 16:57:34.647,3.732560396194458,-8.456320762634277,-4.02465295791626,0.0354301854968071,-0.0452040284872055,-0.0623082555830478,-7623,-2824,2394,-1182,-568,122,5
2025-06-27 16:57:34.825,3.6774938106536874,-9.011775016784668,-3.785232782363892,0.4263839423656463,-0.2638937830924988,-0.0794124826788902,-7960,-2614,2383,-673,98,1036,5
2025-06-27 16:57:34.921,3.945644378662109,-8.492233276367188,-2.8179752826690674,0.3933972120285034,-0.0134390350431203,0.0476474873721599,-7810,-2204,2341,-177,-48,554,5
2025-06-27 16:57:35.210,4.082113742828369,-9.433155059814451,-3.045424461364746,0.0109955742955207,-0.1380555480718612,-0.0891863256692886,-7851,-2001,2336,-157,-192,-11,5
2025-06-27 16:57:35.614,4.151545524597168,-8.188169479370117,-4.1180267333984375,-0.0171042270958423,-0.1832595765590667,0.0415388382971286,-7854,-1879,2211,422,-348,-143,5
2025-06-27 16:57:35.835,3.6774938106536874,-8.394071578979492,-4.223371982574463,0.2626720666885376,-0.1356120854616165,0.1527163088321685,-7849,-1968,2598,326,57,-484,5
2025-06-27 16:57:35.938,4.28322696685791,-8.303091049194336,-3.222595453262329,-0.0354301854968071,0.1563815027475357,-0.1588249653577804,-7863,-1954,2587,-295,38,-220,5
2025-06-27 16:57:36.025,4.007893562316895,-8.248024940490723,-3.260902643203736,0.0769690200686454,0.0427605658769607,-0.0085521135479211,-7813,-2357,2675,62,120,-90,5
2025-06-27 16:57:36.144,4.082113742828369,-8.647856712341309,-3.6176388263702393,0.0329867228865623,0.0476474873721599,0.0,-7869,-2016,2676,-53,-29,274,5
2025-06-27 16:57:36.325,3.988739967346192,-8.707711219787598,-3.222595453262329,0.0183259565383195,0.0244346093386411,-0.0061086523346602,-8045,-2351,2664,269,280,112,5
2025-06-27 16:57:36.453,4.199429988861084,-8.544905662536621,-3.098097085952759,0.280998021364212,-0.0036651915870606,0.0171042270958423,-8021,-2348,2563,352,349,-23,5
2025-06-27 16:57:36.609,4.101267337799072,-8.719682693481445,-2.9041666984558105,0.0183259565383195,0.0561996027827262,0.0830776765942573,-8035,-2038,2258,880,200,180,5
2025-06-27 16:57:36.813,4.20421838760376,-8.884882926940918,-2.468421936035156,-0.4862487316131592,0.2162462919950485,0.0891863256692886,-7923,-1939,2229,688,179,82,5
2025-06-27 16:57:36.917,4.20421838760376,-8.884882926940918,-2.468421936035156,-0.4862487316131592,0.2162462919950485,0.0891863256692886,-7923,-1939,2229,688,179,82,5
2025-06-27 16:57:37.114,2.5115175247192383,-8.130708694458008,-5.489904403686523,-1.2510520219802856,0.2455678284168243,0.1270599663257599,-8024,-1473,1988,-1586,795,-885,5
2025-06-27 16:57:37.412,3.7684733867645264,-7.723694801330566,-5.171475887298584,1.8179349899291992,0.1942551434040069,-0.1038470938801765,-7885,-2541,2142,317,-1326,-408,5
2025-06-27 16:57:37.608,5.475539207458496,-7.228095054626465,1.3982137441635132,3.0995302200317383,-0.911410927772522,-0.4691445231437683,-7504,-2873,2711,-581,-1767,-687,5
2025-06-27 16:57:37.719,6.004657745361328,-7.742848396301269,2.288856744766236,-0.2919935882091522,0.3384193480014801,0.0390953756868839,-7602,-2820,3127,805,370,-574,5
2025-06-27 16:57:37.825,4.95120906829834,-10.393229484558104,2.655169725418091,-1.8765780925750728,0.8710938692092896,0.3408628106117248,-8053,-2915,2948,534,-225,297,5
2025-06-27 16:57:38.019,4.793191909790039,-11.116278648376465,1.45806884765625,-1.037249207496643,0.0794124826788902,0.5375614166259766,-7684,-2864,3349,1565,-83,1063,5
2025-06-27 16:57:38.117,3.950432777404785,-9.083600997924805,0.8547300100326538,-1.177748203277588,0.0366519130766391,0.598647952079773,-7697,-2846,3423,1416,601,641,5
2025-06-27 16:57:38.229,3.1747114658355717,-9.119514465332031,1.6328455209732056,-0.107512280344963,0.294437050819397,-0.1282816976308822,-8000,-3199,2703,-1801,400,-581,5
2025-06-27 16:57:38.608,4.000710964202881,-8.010998725891113,5.444414615631104,1.9132299423217771,-0.7586946487426758,-0.1624901592731475,-7834,-4408,1561,-1581,-2098,80,5
2025-06-27 16:57:38.729,4.989516258239746,-7.094019412994385,6.471527099609375,1.3573426008224487,-0.058643065392971,0.4251621961593628,-7156,-3931,2153,59,-2526,2912,5
2025-06-27 16:57:38.808,4.410119533538818,-4.074931144714356,6.253654956817627,0.7806857824325562,0.0610865242779254,-0.7195992469787598,-7396,-2491,2134,577,-1076,2757,5
2025-06-27 16:57:38.908,4.6471452713012695,-4.797980308532715,5.305551052093506,2.2516493797302246,0.1588249653577804,0.4532620012760162,-8337,-2020,2275,-760,-2657,102,5
2025-06-27 16:57:39.108,4.656722068786621,-2.985569477081299,9.30386734008789,0.6096435189247131,0.0280998013913631,0.1551597714424133,-8242,-2236,2804,2502,2798,197,5
2025-06-27 16:57:39.220,4.656722068786621,-2.985569477081299,9.30386734008789,0.6096435189247131,0.0280998013913631,0.1551597714424133,-8242,-2236,2804,2502,2798,197,5
2025-06-27 16:57:39.308,5.286397457122803,-2.3726539611816406,9.038111686706545,0.261450320482254,-0.0684169083833694,0.2113593816757202,-8110,-2800,2319,40,-872,1291,5
2025-06-27 16:57:39.524,6.208165168762207,-5.17626428604126,8.456320762634277,-0.0427605658769607,0.0745255574584007,1.6322319507598877,-7473,-2632,2430,1861,-923,274,5
2025-06-27 16:57:39.729,5.106832027435303,-2.365471363067627,10.194510459899902,-0.7550294399261475,-0.384845107793808,-0.2761110961437225,-8131,-1965,2303,-348,-1179,309,5
2025-06-27 16:57:39.938,5.559336185455322,-4.158728122711182,6.854599475860596,-1.8839083909988403,-0.3408628106117248,-0.7342600226402283,-7957,-1940,2587,-321,-564,-77,5
2025-06-27 16:57:40.044,5.224148273468018,-5.932831764221191,8.001421928405762,-0.1123992055654525,-0.2565633952617645,-0.3958406746387481,-8033,-1936,2569,-136,-172,-116,5
2025-06-27 16:57:40.230,5.214571475982666,-4.027047157287598,6.588842868804932,0.1111774742603302,0.0207694191485643,-0.1319468915462494,-8156,-2196,2757,27,565,-59,5
2025-06-27 16:57:40.313,4.335899353027344,-3.825934410095215,7.833827972412109,-0.4153883755207062,-0.1637118905782699,0.157603234052658,-8009,-2409,2544,-990,-109,322,5
2025-06-27 16:57:40.446,5.396530628204346,-3.6296098232269287,8.334216117858887,0.2431243658065796,-0.5497786998748779,0.4960225820541382,-8357,-2195,2651,-1295,-159,69,5
2025-06-27 16:57:40.721,4.757278919219971,-5.60722017288208,4.141968727111816,-0.0525344125926494,0.0366519130766391,0.2895501255989074,-8051,-2179,3703,-322,-1352,227,5
2025-06-27 16:57:40.939,6.828263282775879,-6.536170482635498,6.421248912811279,-0.1661553531885147,-0.6988298296928406,-0.1111774742603302,-7968,-1808,4159,-383,-229,-20,5
2025-06-27 16:57:41.111,6.074089527130127,-3.866635799407959,5.913678169250488,0.0537561401724815,0.5167919993400574,-0.3824016451835632,-8007,-1691,3724,-28,602,-547,5
2025-06-27 16:57:41.816,5.061342239379883,-5.664681434631348,4.501099109649658,0.2247984111309051,0.0818559452891349,0.0696386396884918,-7979,-1945,2827,299,525,77,5
2025-06-27 16:57:41.910,4.19224739074707,-6.6846113204956055,6.153098583221436,1.026253581047058,0.051312681287527,0.0525344125926494,-8303,-1773,2652,310,368,230,5
2025-06-27 16:57:42.039,4.666299343109131,-4.709394931793213,6.830657482147217,1.1423180103302002,-0.1233947798609733,0.2687807083129883,-8212,-1738,2610,-290,21,335,5
2025-06-27 16:57:42.242,4.7405195236206055,-4.934449672698975,7.156269073486328,0.0549778714776039,-0.0280998013913631,0.1857030391693115,-8286,-1793,2834,108,-422,193,5
2025-06-27 16:57:42.329,3.971980571746826,-5.130774021148682,5.822698593139648,0.7195992469787598,-0.167377084493637,0.294437050819397,-7841,-1530,3134,150,-818,340,5
2025-06-27 16:57:42.520,5.276820659637451,-3.9480385780334473,7.412448406219482,0.2748893499374389,-0.2333505302667617,0.2528982162475586,-8225,-1267,3227,-47,-515,331,5
2025-06-27 16:57:42.826,5.159504890441895,-4.446032524108887,6.777985095977783,-0.3982841372489929,-0.0623082555830478,-0.2113593816757202,-8242,-1704,3457,755,-1252,513,5
2025-06-27 16:57:42.908,5.398924827575684,-4.062960147857666,7.316680431365967,-0.3335324227809906,0.090408056974411,-0.304210901260376,-7766,-1219,3594,1239,2046,-509,5
2025-06-27 16:57:43.027,5.4252610206604,-4.702212333679199,7.256825447082519,-0.2797762751579284,-0.051312681287527,-0.3323107063770294,-8102,-1207,2697,1025,2534,-858,5
2025-06-27 16:57:43.134,5.094861030578613,-5.305551052093506,7.575253963470459,-0.1893682330846786,0.0,-0.2052507251501083,-8436,-1638,2570,87,1704,-123,5
2025-06-27 16:57:43.208,5.439626216888428,-4.584896087646484,6.708553314208984,0.1820378452539444,0.0183259565383195,-0.1038470938801765,-8661,-1488,2192,-430,-271,177,5
2025-06-27 16:57:43.311,5.664681434631348,-4.256890773773193,6.72531270980835,-0.2186897546052932,0.1954768747091293,-0.251676470041275,-7086,-1526,2697,983,1402,-482,5
2025-06-27 16:57:43.608,6.191405773162842,-5.185841083526611,6.6846113204956055,-0.5742133259773254,-0.0403171069920063,-0.3775147199630737,-7313,-1857,2033,1049,-797,-89,5
2025-06-27 16:57:43.729,6.313509941101074,-5.394136428833008,6.861782073974609,-0.5009095072746277,0.3689626157283783,-0.2932153046131134,-7882,-1194,2003,1284,1872,-542,5
2025-06-27 16:57:43.908,5.190629482269287,-5.023035049438477,5.7341132164001465,-0.1942551434040069,0.304210901260376,-0.0720821022987365,-8089,-1936,1679,-266,-832,-224,5
2025-06-27 16:57:44.108,4.817133903503418,-5.7987565994262695,6.574477672576904,0.167377084493637,-0.0219911485910415,0.1221730485558509,-8193,-1915,2551,-914,-1101,-417,5
2025-06-27 16:57:44.308,5.070919036865234,-5.710171222686768,5.841852188110352,0.2724458873271942,-0.197920337319374,0.1356120854616165,-8020,-2144,3191,-836,-202,-218,5
2025-06-27 16:57:44.422,5.154716491699219,-6.275202751159668,5.983109951019287,0.1502728462219238,-0.0952949747443199,0.2199114859104156,-7675,-2336,3174,-1648,278,-909,5
2025-06-27 16:57:44.824,4.232948780059815,-6.303933143615723,6.588842868804932,0.6597344875335693,0.130725160241127,0.2528982162475586,-7264,-2860,4158,1912,-1094,1265,5
2025-06-27 16:57:44.920,4.505887508392334,-4.970362663269043,8.111555099487305,0.221133217215538,-0.1038470938801765,-0.058643065392971,-7959,-2087,4011,1215,161,-18,5
2025-06-27 16:57:45.021,4.58968448638916,-4.285621166229248,7.376535415649414,-0.0109955742955207,-0.0122173046693205,-0.3078760802745819,-7597,-2364,4030,920,258,-240,5
2025-06-27 16:57:45.211,4.235342979431152,-6.947973251342773,6.818686485290527,-0.5583308339118958,0.4105014503002167,-0.2528982162475586,-7978,-2012,3619,639,1334,98,5
2025-06-27 16:57:45.611,4.065354347229004,-6.730101108551025,5.791574001312256,-0.2321287989616394,-0.0623082555830478,-0.0256563406437635,-7686,-3136,3075,207,-84,-2664,5
2025-06-27 16:57:45.708,4.797980308532715,-5.655104637145996,5.56173038482666,0.1991420686244964,-0.1954768747091293,-0.0171042270958423,-6675,-4959,3385,-832,561,1561,5
2025-06-27 16:57:45.821,4.692635536193848,-5.571307182312012,5.774814605712891,-0.2247984111309051,-0.2370157092809677,-0.1319468915462494,-6876,-4419,3156,-324,980,2533,5
2025-06-27 16:57:46.030,5.295974254608154,-6.478709697723389,4.6950297355651855,-0.7391469478607178,-0.1893682330846786,-0.2773328125476837,-7549,-3502,2683,-166,858,1302,5
2025-06-27 16:57:46.408,5.614402770996094,-6.603208065032959,4.326322555541992,0.4068362414836883,-0.0867428630590438,0.0855211317539215,-8070,-2308,2205,-80,50,681,5
2025-06-27 16:57:46.508,5.973533153533936,-6.67982292175293,4.522646903991699,0.2858849465847015,-0.1441642045974731,-0.0146607663482427,-7835,-2337,2477,530,346,614,5
2025-06-27 16:57:46.711,5.66228723526001,-7.469909191131592,4.314351558685303,-0.6010913848876953,0.1282816976308822,0.0806342139840126,-8217,-1972,2290,282,231,167,5
2025-06-27 16:57:46.939,5.7125654220581055,-7.067683219909668,3.746925592422485,-0.1258382350206375,0.0598647929728031,0.0354301854968071,-7831,-1942,2200,103,337,335,5
2025-06-27 16:57:47.019,5.480327606201172,-6.8809356689453125,3.892971992492676,-0.0390953756868839,0.0244346093386411,-0.0219911485910415,-8050,-2326,2176,86,281,40,5
2025-06-27 16:57:47.208,5.635950565338135,-7.117961883544922,4.084507942199707,0.0073303831741213,0.0452040284872055,-0.0024434609804302,-7875,-2015,2021,52,265,-108,5
2025-06-27 16:57:47.359,5.612008571624756,-7.0341644287109375,4.247313976287842,0.1001818999648094,0.1380555480718612,-0.0329867228865623,-7855,-2044,1956,-96,281,45,5
2025-06-27 16:57:47.633,5.329493045806885,-7.383718013763428,4.019864559173584,-0.1893682330846786,0.2431243658065796,-0.0439822971820831,-7835,-2326,1980,-46,-46,114,5
2025-06-27 16:57:47.719,5.427655220031738,-7.015010833740234,4.23773717880249,-0.1942551434040069,0.0781907513737678,-0.0537561401724815,-7819,-2324,1966,-39,-57,105,5
2025-06-27 16:57:47.834,5.214571475982666,-7.493851184844971,4.02465295791626,-0.1295034289360046,0.1062905490398407,-0.0073303831741213,-7823,-2308,2331,-5,76,83,5
2025-06-27 16:57:48.028,5.17626428604126,-7.058106422424316,4.089296340942383,0.1637118905782699,-0.0207694191485643,0.0720821022987365,-7860,-2046,2411,8,91,65,5
2025-06-27 16:57:48.134,5.130774021148682,-7.407660007476807,4.395754337310791,0.0830776765942573,-0.0097738439217209,0.0525344125926494,-8045,-2043,2425,119,-113,-118,5
2025-06-27 16:57:48.338,5.125985622406006,-7.29034423828125,4.314351558685303,0.0525344125926494,-0.0012217304902151,-0.0109955742955207,-7874,-2045,2365,64,-58,-121,5
2025-06-27 16:57:48.508,5.099649429321289,-7.07726001739502,5.106832027435303,0.46547931432724,0.1160643994808197,0.140499010682106,-7876,-2106,2345,120,-119,369,5
2025-06-27 16:57:48.708,5.564124584197998,-5.240907669067383,8.856152534484863,-1.909564733505249,1.6578882932662964,1.0946705341339111,-7825,-2026,2413,-272,-103,573,5
2025-06-27 16:57:49.514,-0.933738648891449,-9.224859237670898,0.507570743560791,-0.098960168659687,0.058643065392971,0.0818559452891349,-8102,-1593,2196,22,-280,-58,5
2025-06-27 16:57:49.630,-1.0606313943862915,-9.9000244140625,0.3782838582992553,-0.0048869219608604,0.0122173046693205,0.1380555480718612,-7932,-1570,2258,376,-553,-563,5
2025-06-27 16:57:49.835,-0.8810662031173706,-9.739612579345703,1.7693150043487549,1.0140362977981567,0.0244346093386411,-0.4764748811721802,-8206,-1706,2644,348,7,-1036,5
2025-06-27 16:57:50.008,-0.1292868852615356,-6.730101108551025,2.5067291259765625,3.618765830993652,0.3017674386501312,-1.06657075881958,-8006,-2205,2474,-91,-345,-1915,5
2025-06-27 16:57:50.108,2.4420857429504395,-6.557718276977539,8.520963668823242,-0.3579670190811157,-0.3775147199630737,-0.96883225440979,-7831,-2775,2528,519,-1458,-6725,5
2025-06-27 16:57:50.224,3.4308910369873047,-5.228936672210693,6.739677906036377,0.0855211317539215,-0.4581489264965057,-0.7904596328735352,-6836,-3981,3135,-193,839,2354,5
2025-06-27 16:57:50.312,3.8546648025512695,-6.0597243309021,8.248024940490723,-0.5852088928222656,-0.1954768747091293,-0.2932153046131134,-7365,-3478,2717,19,1320,2255,5
2025-06-27 16:57:50.438,2.9879636764526367,-6.739677906036377,6.861782073974609,-0.7843509912490845,-0.1136209368705749,-0.0733038261532783,-7728,-3269,2860,46,940,2155,5
2025-06-27 16:57:50.533,3.361459255218506,-6.775590896606445,7.206547260284424,-0.2223549485206604,-0.0916297882795333,0.0085521135479211,-7791,-3030,2471,10,1053,1426,5
2025-06-27 16:57:50.730,3.699041604995728,-7.232883453369141,5.985504150390625,-0.6621779203414917,0.0415388382971286,-0.0427605658769607,-7842,-2567,2391,-270,185,651,5
2025-06-27 16:57:50.839,3.3901896476745605,-6.909666061401367,5.48272180557251,-0.2638937830924988,0.0256563406437635,-0.0280998013913631,-7840,-2203,2389,-240,111,699,5
2025-06-27 16:57:51.023,3.383007049560547,-5.980715751647949,5.932831764221191,0.4825835525989532,-0.1795943826436996,-0.1893682330846786,-7569,-3245,2451,-360,-94,-818,5
2025-06-27 16:57:51.326,5.643133640289307,-7.292738437652588,6.665457725524902,1.368338108062744,-0.2700024247169494,-0.1221730485558509,-8255,-1851,1620,259,2692,2260,5
2025-06-27 16:57:51.408,5.564124584197998,-4.307168960571289,5.604825973510742,0.5681046843528748,-0.1392772793769836,0.3811798989772796,-8329,-1507,1214,-47,2706,2034,5
2025-06-27 16:57:51.531,5.817910194396973,-5.188235282897949,5.801150798797607,-0.4190535545349121,-0.1343903541564941,-0.1221730485558509,-8041,-2562,1499,-552,-919,-1061,5
2025-06-27 16:57:51.932,6.885724067687988,-6.2416839599609375,5.643133640289307,0.3310889601707458,-0.0427605658769607,-0.1918116807937622,-8062,-2552,2324,328,-2998,-1373,5
2025-06-27 16:57:52.010,6.617573261260986,-5.327098846435547,4.81473970413208,0.1954768747091293,0.0280998013913631,0.0842994004487991,-7150,-2561,3368,724,1848,2884,5
2025-06-27 16:57:52.133,6.629544734954834,-5.70777702331543,4.965574264526367,0.0879645943641662,0.167377084493637,0.0525344125926494,-8556,-1628,3083,834,1263,-1785,5
2025-06-27 16:57:52.335,5.5329999923706055,-5.918466567993164,5.291185855865479,0.6646214127540588,0.1319468915462494,0.1062905490398407,-7570,-3428,2578,-1662,1016,-1726,5
2025-06-27 16:57:53.008,4.817133903503418,-5.226542472839356,6.605602264404297,0.0525344125926494,-0.1258382350206375,0.5558874011039734,-8112,-3040,2412,127,-1378,1822,5
2025-06-27 16:57:53.219,4.747702121734619,-4.917690277099609,7.223306655883789,-0.117286130785942,0.0855211317539215,0.2028072625398636,-7263,-1687,3340,238,95,2052,5
2025-06-27 16:57:53.308,3.861847400665283,-5.856217384338379,7.041347026824951,-0.2150245606899261,0.3665191531181335,-0.3152064681053161,-8142,-1760,1724,-906,3852,1626,5
2025-06-27 16:57:53.427,3.861847400665283,-5.856217384338379,7.041347026824951,-0.2150245606899261,0.3665191531181335,-0.3152064681053161,-8180,-1911,1300,-356,1918,952,5
2025-06-27 16:57:53.514,3.7014358043670654,-5.935225963592529,7.003039836883545,-0.1942551434040069,0.2675589919090271,-0.147829383611679,-8310,-1392,1327,647,315,530,5
2025-06-27 16:57:53.608,3.708618402481079,-5.8442463874816895,7.129932880401611,0.0879645943641662,-0.0439822971820831,0.0207694191485643,-8310,-1359,1321,452,-106,818,5
2025-06-27 16:57:53.915,3.866635799407959,-5.74129581451416,7.089231014251709,0.1209513172507286,-0.2638937830924988,0.2162462919950485,-8237,-1141,1388,-595,-264,604,5
2025-06-27 16:57:54.208,3.9863457679748535,-5.647922039031982,6.624756336212158,0.0415388382971286,-0.0427605658769607,0.1148426681756973,-8284,-1807,1001,-1009,-541,832,5
2025-06-27 16:57:54.410,3.7493197917938232,-5.403713226318359,6.821080684661865,0.0024434609804302,-0.1185078546404838,-0.1844813078641891,-8021,-1191,1384,-922,-1022,-404,5
2025-06-27 16:57:54.527,4.750096321105957,-6.315904140472412,7.161057472229004,0.0891863256692886,-0.1123992055654525,-0.1050688251852989,-8045,-944,1227,-1484,-1134,-655,5
2025-06-27 16:57:54.625,4.750096321105957,-6.315904140472412,7.161057472229004,0.0891863256692886,-0.1123992055654525,-0.1050688251852989,-8045,-944,1227,-1484,-1134,-655,5
2025-06-27 16:57:54.737,4.644751071929932,-5.202600479125977,7.067683219909668,0.180816113948822,-0.1319468915462494,0.0794124826788902,-7499,-1927,3959,2187,-1012,-386,5
2025-06-27 16:57:54.924,5.616796970367432,-4.898536682128906,6.933608055114746,0.0268780700862407,0.157603234052658,-0.0207694191485643,-7137,-1723,3864,1734,-376,-610,5
2025-06-27 16:57:55.017,4.501099109649658,-4.76924991607666,6.94079065322876,-0.1771509200334549,0.3665191531181335,-0.2590068578720093,-7623,-2702,2771,-528,2253,-959,5
2025-06-27 16:57:55.116,3.5865142345428467,-5.035006046295166,6.8162922859191895,-0.4630358517169952,0.6511823534965515,-0.3982841372489929,-7935,-2422,2314,514,1353,1196,5
2025-06-27 16:57:55.424,3.3303346633911133,-6.033388137817383,7.422025203704834,1.0103710889816284,-0.2773328125476837,-0.0073303831741213,-7944,-2993,3158,435,-1221,-415,5
2025-06-27 16:57:55.637,4.309563159942627,-2.1763293743133545,5.20978307723999,1.0482447147369385,-1.3658946752548218,0.261450320482254,-7465,-3352,3858,-258,-696,-1059,5
2025-06-27 16:57:55.731,7.8314337730407715,-3.2345664501190186,3.337517261505127,-0.2443460971117019,-2.113593816757202,-0.1197295859456062,-7763,-3396,2772,-952,864,241,5
2025-06-27 16:57:55.809,8.461109161376953,-11.63103199005127,10.524910926818848,-1.313360333442688,-0.5400048494338989,-0.2736676335334778,-7799,-3412,2715,-901,644,455,5
2025-06-27 16:57:55.930,6.962338447570801,-2.928108692169189,5.992686748504639,0.0757472887635231,0.0891863256692886,0.0623082555830478,-7572,-3250,2899,-938,644,647,5
2025-06-27 16:57:56.148,7.096413612365723,-6.064512729644775,5.154716491699219,-2.3383922576904297,0.0427605658769607,-0.2773328125476837,-7344,-3004,2580,-835,850,522,5
2025-06-27 16:57:56.219,7.096413612365723,-6.064512729644775,5.154716491699219,-2.3383922576904297,0.0427605658769607,-0.2773328125476837,-8062,-3185,2253,41,284,-17,5
2025-06-27 16:57:56.338,6.8809356689453125,-5.130774021148682,3.792415380477905,-0.2919935882091522,0.0329867228865623,0.1123992055654525,-7809,-2950,2650,306,-430,1007,5
2025-06-27 16:57:56.413,6.952761650085449,-5.808333396911621,4.101267337799072,-0.2370157092809677,-0.0439822971820831,0.1038470938801765,-7658,-2971,2514,327,-647,1431,5
2025-06-27 16:57:56.708,6.509834289550781,-5.609614372253418,4.299986362457275,0.1111774742603302,0.0427605658769607,0.0317649915814399,-8053,-2202,2458,125,449,138,5
2025-06-27 16:57:56.830,6.555324077606201,-4.843470096588135,5.233725070953369,-0.0048869219608604,0.1001818999648094,-0.1295034289360046,-7999,-2259,2482,-353,-35,-218,5
2025-06-27 16:57:56.920,6.627150535583496,-5.233725070953369,4.955997467041016,-0.140499010682106,0.0708603709936142,0.0329867228865623,-8004,-2257,2479,-168,-105,-571,5
2025-06-27 16:57:57.127,6.572083473205566,-6.323086738586426,4.043806552886963,-1.007927656173706,0.0207694191485643,0.1527163088321685,-7563,-2603,1989,-1089,-264,7,5
2025-06-27 16:57:57.210,6.643909931182861,-7.122750282287598,4.175487995147705,0.0867428630590438,0.1942551434040069,0.3738495409488678,-8031,-2246,2131,-424,570,-768,5
2025-06-27 16:57:57.309,5.748478412628174,-6.955155849456787,3.021482467651367,-0.147829383611679,0.1343903541564941,0.0781907513737678,-8022,-2885,1734,-761,-322,-155,5
2025-06-27 16:57:57.514,5.774814605712891,-6.502651691436768,4.944026470184326,0.5644394755363464,-0.2968805134296417,0.2174680233001709,-8021,-2632,2225,-1174,-981,1628,5
2025-06-27 16:57:57.825,5.614402770996094,-6.382941722869873,5.082890033721924,-0.2724458873271942,0.117286130785942,-0.2040289938449859,-7990,-2238,1879,198,1444,-13,5
2025-06-27 16:57:58.223,4.60165548324585,-6.852205276489258,5.556941986083984,0.4178318381309509,-0.5314527750015259,0.0708603709936142,-8148,-2066,1752,183,-1096,-1269,5
2025-06-27 16:57:58.323,6.406883716583252,-6.739677906036377,5.494692802429199,0.9065240025520324,-0.5314527750015259,0.4276056587696075,-7555,-2715,2549,1116,-793,624,5
2025-06-27 16:57:58.408,7.232883453369141,-4.565742492675781,5.051765441894531,0.2076941877603531,0.2419026345014572,0.3640756905078888,-7767,-2993,2801,952,-407,452,5
2025-06-27 16:57:58.536,6.648698329925537,-4.563348293304443,5.600037574768066,-0.0720821022987365,0.3066543638706207,-0.0293215326964855,-7047,-1931,3392,1321,-1369,1016,5
2025-06-27 16:57:58.625,5.60722017288208,-6.078877925872803,5.571307182312012,-0.616973876953125,0.4691445231437683,-0.3310889601707458,-8044,-2827,2421,-220,1480,-1108,5
2025-06-27 16:57:58.708,4.6734819412231445,-6.768408298492432,5.461174011230469,-0.5546656250953674,0.3824016451835632,-0.4508185386657715,-8008,-2912,2243,100,868,-1744,5
2025-06-27 16:57:59.216,5.803544998168945,-5.643133640289307,5.554547786712647,0.0219911485910415,-0.0378736443817615,-0.0427605658769607,-7650,-2707,2285,512,-507,-1638,5
2025-06-27 16:57:59.318,5.12119722366333,-6.335057735443115,5.549759387969971,-0.2748893499374389,0.2394591718912124,-0.0268780700862407,-7659,-2507,2377,76,523,-47,5
2025-06-27 16:57:59.508,5.193023681640625,-6.402095317840576,6.682217121124268,-0.0171042270958423,0.2871066629886627,0.0378736443817615,-7807,-2878,2328,275,1120,-1194,5
2025-06-27 16:57:59.936,7.469909191131592,-4.95120906829834,6.782773494720459,0.2076941877603531,-0.8442157506942749,0.0965167060494422,-7764,-3311,2249,-29,718,859,5
2025-06-27 16:58:00.127,6.766014099121094,-3.995922565460205,4.039018154144287,-0.2565633952617645,-1.1093312501907349,-0.0109955742955207,-7589,-3179,1732,-219,512,590,5
2025-06-27 16:58:00.410,7.16584587097168,-4.929661273956299,4.987122058868408,0.3775147199630737,0.067195177078247,0.130725160241127,-7939,-2498,1795,-427,28,409,5
2025-06-27 16:58:00.641,7.01979923248291,-6.023811340332031,5.602431774139404,-0.4434881806373596,0.2638937830924988,0.2076941877603531,-8016,-2629,1515,-168,-120,417,5
2025-06-27 16:58:01.030,6.75883150100708,-5.856217384338379,6.277596950531006,0.2736676335334778,0.2345722615718841,0.4691445231437683,-7995,-2434,1858,461,-2230,1438,5
2025-06-27 16:58:01.317,8.090007781982422,-7.603984832763672,6.890512466430664,-0.9260717034339904,-1.1814134120941162,-0.7415903806686401,-7834,-1764,2769,671,2876,-248,5
2025-06-27 16:58:01.608,7.201758861541748,-4.572925090789795,6.799532890319824,-1.19607412815094,0.4447098970413208,-0.3933972120285034,-8517,-2122,2346,267,1485,-535,5
2025-06-27 16:58:01.738,7.139509677886963,-3.9264907836914062,5.547365188598633,-0.2895501255989074,0.1026253625750541,-0.2895501255989074,-8268,-1771,1772,-836,-436,25,5
2025-06-27 16:58:01.925,6.959944248199463,-4.139574527740479,5.566518783569336,0.0048869219608604,-0.0256563406437635,0.0781907513737678,-7831,-2412,2040,-904,-124,18,5
2025-06-27 16:58:02.217,7.350199222564697,-2.7054479122161865,4.90571928024292,0.1282816976308822,-0.2015855312347412,-0.2125810980796814,-8199,-2380,2308,-1175,-435,-61,5
2025-06-27 16:58:02.344,7.757213592529297,-5.260061264038086,5.252878665924072,-0.394618958234787,-0.0684169083833694,-0.0977384373545646,-7865,-2324,2585,-218,-328,-53,5
2025-06-27 16:58:02.527,7.536946773529053,-4.474762916564941,5.035006046295166,-0.1588249653577804,0.1551597714424133,-0.0036651915870606,-7816,-1981,2583,123,9,137,5
2025-06-27 16:58:02.830,7.402871608734131,-5.686229228973389,4.721365928649902,-0.461814135313034,-0.1563815027475357,0.1295034289360046,-7918,-1535,2828,570,34,286,5
2025-06-27 16:58:03.041,7.285555839538574,-5.035006046295166,4.383783340454102,0.2406809031963348,-0.1527163088321685,0.157603234052658,-8257,-1536,2862,158,36,-293,5
2025-06-27 16:58:03.108,7.769184589385986,-4.134786128997803,4.632780075073242,0.0488692186772823,-0.1783726513385772,0.0830776765942573,-8228,-1515,2854,353,26,1,5
2025-06-27 16:58:03.340,7.448361396789551,-4.73573112487793,4.697423934936523,0.0806342139840126,-0.0427605658769607,0.0232128798961639,-7818,-2109,2898,312,348,-335,5
2025-06-27 16:58:03.617,6.751648902893066,-5.475539207458496,4.963180065155029,0.3567453026771545,-0.0891863256692886,0.2590068578720093,-8226,-1928,2427,326,421,-299,5
2025-06-27 16:58:03.708,7.429207801818848,-4.596867084503174,4.671087741851807,0.769690215587616,-0.2101376503705978,0.4948008358478546,-8272,-2161,2425,-30,554,111,5
2025-06-27 16:58:04.008,7.917624950408935,-3.557783842086792,5.032611846923828,0.0317649915814399,-0.1258382350206375,0.2125810980796814,-7962,-2541,2563,-1850,-987,-509,5
2025-06-27 16:58:04.219,7.726089000701904,-4.218583583831787,5.298368453979492,0.090408056974411,-0.0403171069920063,0.0390953756868839,-7973,-2822,2299,-1477,-728,206,5
2025-06-27 16:58:04.508,7.484274387359619,-4.580107688903809,5.145139217376709,-0.2419026345014572,0.1539380401372909,-0.2443460971117019,-7952,-2556,2818,567,-541,12,5
2025-06-27 16:58:04.623,7.180211067199707,-4.642356872558594,5.094861030578613,-0.2663372457027435,0.2419026345014572,-0.2186897546052932,-7946,-2441,2935,1331,793,548,5
2025-06-27 16:58:04.723,7.12035608291626,-4.656722068786621,5.245696067810059,-0.1661553531885147,0.1649336218833923,-0.1661553531885147,-7813,-2192,2896,1126,726,301,5
2025-06-27 16:58:04.908,7.173028469085693,-4.4939165115356445,4.9583916664123535,-0.1087340116500854,-0.0195476878434419,-0.0708603709936142,-7669,-2841,2728,147,267,-744,5
2025-06-27 16:58:05.108,7.5632829666137695,-4.4292731285095215,4.594472885131836,-0.3225368559360504,-0.0378736443817615,-0.1001818999648094,-7408,-2537,2650,-2179,530,-132,5
2025-06-27 16:58:05.335,6.991068840026856,-4.67827033996582,5.240907669067383,-0.1930334120988845,-0.0342084541916847,-0.1441642045974731,-8027,-3416,2520,-3271,100,-772,5
2025-06-27 16:58:05.512,7.503427982330322,-4.252102375030518,4.098873138427734,-0.2553416788578033,0.1319468915462494,-0.1343903541564941,-7945,-3549,2655,-2855,-392,-361,5
2025-06-27 16:58:05.633,7.611167430877685,-5.207388877868652,4.884171485900879,-0.2663372457027435,0.2406809031963348,-0.0769690200686454,-7337,-3134,2899,2674,694,51,5
2025-06-27 16:58:05.829,7.1490864753723145,-5.3342814445495605,5.094861030578613,-0.3005456924438476,0.5106833577156067,0.1001818999648094,-7540,-3100,2841,1468,1749,1914,5
2025-06-27 16:58:06.033,6.258443355560303,-4.764461517333984,4.704606533050537,0.2333505302667617,-0.2321287989616394,0.0598647929728031,-8481,-2407,2412,-1229,-174,-98,5
2025-06-27 16:58:06.131,7.623138427734375,-5.51624059677124,5.480327606201172,0.2626720666885376,-0.4495968222618103,0.0280998013913631,-7608,-3168,2903,-1810,-1293,-105,5
2025-06-27 16:58:06.313,7.266402244567871,-4.2951979637146,4.745307922363281,-0.1905899494886398,0.0928515195846557,-0.0488692186772823,-7607,-2746,3159,454,-294,-932,5
2025-06-27 16:58:06.446,6.981492042541504,-5.595249176025391,5.243301868438721,-0.3090978264808655,0.1502728462219238,-0.0183259565383195,-7686,-3107,2902,-1,-23,-131,5
2025-06-27 16:58:06.521,6.574477672576904,-5.669469833374023,4.941632270812988,-0.0708603709936142,0.2015855312347412,0.1759291887283325,-7766,-2951,2434,143,399,214,5
2025-06-27 16:58:06.708,6.97430944442749,-5.825092792510986,5.635950565338135,-0.1233947798609733,-0.0867428630590438,0.1649336218833923,-8060,-2730,2683,-17,37,-754,5
2025-06-27 16:58:06.808,7.575253963470459,-1.5658079385757446,4.467580318450928,0.6572909951210022,0.2186897546052932,-0.2577851414680481,-7652,-3043,2824,-10,-140,-324,5
2025-06-27 16:58:07.109,6.562506675720215,-4.6950297355651855,5.351040840148926,0.1734857261180877,-0.1185078546404838,0.1881465017795562,-8275,-1765,1926,-478,1608,667,5
2025-06-27 16:58:07.308,7.577648162841797,-4.2975921630859375,4.594472885131836,-0.1453859210014343,0.2565633952617645,0.2247984111309051,-7778,-1951,1868,-2282,404,-138,5
2025-06-27 16:58:07.412,6.62236213684082,-4.594472885131836,5.329493045806885,-0.3726277947425842,0.1612684279680252,0.130725160241127,-7314,-3221,1135,-2768,-1022,-90,5
2025-06-27 16:58:07.522,6.476315498352051,-5.161899089813232,6.042964935302734,-0.2956587672233581,0.130725160241127,-0.2700024247169494,-7664,-2697,1601,-426,927,1651,5
2025-06-27 16:58:07.619,5.784391403198242,-5.983109951019287,4.850652694702148,0.1123992055654525,0.0097738439217209,-0.0403171069920063,-8319,-2449,2418,1830,-1731,300,5
2025-06-27 16:58:07.708,5.784391403198242,-5.983109951019287,4.850652694702148,0.1123992055654525,0.0097738439217209,-0.0403171069920063,-8048,-2153,3182,2910,-2266,625,5
2025-06-27 16:58:08.008,7.328651428222656,-4.970362663269043,6.2416839599609375,1.6285667419433594,0.4996877610683441,0.2186897546052932,-7608,-1652,3099,875,-166,-194,5
2025-06-27 16:58:08.133,5.78678560256958,-3.043030261993408,6.1267619132995605,0.0366519130766391,0.4605923891067505,-0.0696386396884918,-7955,-2813,3149,-440,-134,-2627,5
2025-06-27 16:58:08.211,5.710171222686768,-3.220201253890991,6.835445880889893,-0.5461135506629944,0.2015855312347412,-0.3872885704040527,-7988,-3081,2985,-171,-867,-848,5
2025-06-27 16:58:08.308,5.4875102043151855,-4.177882194519043,6.8043212890625,-0.1514945775270462,0.1233947798609733,-0.5241223573684692,-7770,-2921,3271,568,472,867,5
2025-06-27 16:58:08.511,5.971138954162598,-3.859453201293945,6.562506675720215,0.2932153046131134,-0.0781907513737678,0.3347541689872741,-7856,-1982,2581,-531,1413,516,5
2025-06-27 16:58:08.708,6.354211330413818,-3.928884983062744,6.813898086547852,0.1612684279680252,-0.1148426681756973,0.2272418737411499,-8243,-2042,2220,-199,1558,361,5
2025-06-27 16:58:08.827,5.758055210113525,-3.914519786834717,6.320692539215088,-0.0916297882795333,-0.0317649915814399,0.1368338167667389,-7811,-2229,2011,1266,761,-1989,5
2025-06-27 16:58:09.024,6.112396717071533,-4.513070106506348,6.809109687805176,0.2015855312347412,-0.2235766798257827,0.0452040284872055,-7958,-2767,2330,233,600,-1990,5
2025-06-27 16:58:09.117,6.536170482635498,-3.706224203109741,6.67982292175293,-0.1612684279680252,0.2357939779758453,0.0317649915814399,-8494,-2727,2310,-385,-1563,-2641,5
2025-06-27 16:58:09.208,5.889736175537109,-4.000710964202881,6.200982570648193,-0.4080579876899719,0.3762930035591125,-0.1185078546404838,-7800,-2385,1945,-822,601,3587,5
2025-06-27 16:58:09.526,4.9368438720703125,-4.596867084503174,6.452373504638672,0.0,0.3298672437667846,0.1869247704744339,-8268,-2022,3361,538,-735,-1243,5
2025-06-27 16:58:09.608,6.584054470062256,-2.8179752826690674,4.304774761199951,-3.4990360736846924,-1.0592403411865234,-1.7238616943359375,-7353,-2670,3177,1580,-479,-1251,5
2025-06-27 16:58:09.718,6.584054470062256,-2.8179752826690674,4.304774761199951,-3.4990360736846924,-1.0592403411865234,-1.7238616943359375,-7477,-2672,3111,1156,-143,-1639,5
2025-06-27 16:58:09.830,7.527369976043701,-9.124302864074709,11.726799964904783,1.009149432182312,-0.090408056974411,-0.4972442984580993,-7412,-2749,2349,-114,2134,-129,5
2025-06-27 16:58:10.108,6.912060260772705,-4.046200752258301,5.583278179168701,-0.3017674386501312,0.0818559452891349,-0.2883284091949463,-7750,-3074,1441,-162,1684,-242,5
2025-06-27 16:58:10.541,6.8043212890625,-4.654327869415283,5.726930618286133,0.1820378452539444,0.1661553531885147,0.5155702829360962,-7343,-3646,299,-1067,906,-633,5
2025-06-27 16:58:10.618,7.050923824310303,-4.575319290161133,7.326257228851318,0.384845107793808,0.4312708675861358,0.4581489264965057,-7499,-3643,-88,-1235,-568,-326,5
2025-06-27 16:58:10.828,6.897695064544678,0.2825157940387726,10.110713958740234,0.2089159190654754,1.3768903017044067,-1.4672982692718506,-7343,-3551,640,-108,-2185,684,5
2025-06-27 16:58:11.028,1.867477297782898,-9.751583099365234,4.58968448638916,-4.252843856811523,2.372600555419922,0.8698720932006836,-7522,-3278,977,621,-2606,1346,5
2025-06-27 16:58:11.635,-1.0271124839782717,-2.983175277709961,7.264008045196533,0.5375614166259766,0.4935791194438934,-1.5051720142364502,-9138,-2953,722,-1542,137,-698,5
2025-06-27 16:58:11.835,0.090979665517807,-4.285621166229248,8.875306129455566,0.6120869517326355,-0.1881465017795562,-0.2076941877603531,-7437,-2982,1868,-887,-3149,686,5
2025-06-27 16:58:11.940,0.4501099288463592,-4.20421838760376,8.705317497253418,-0.0012217304902151,-0.6524040699005127,0.740368664264679,-7194,-2856,2021,349,-1751,1288,5
2025-06-27 16:58:12.020,0.4501099288463592,-4.20421838760376,8.705317497253418,-0.0012217304902151,-0.6524040699005127,0.740368664264679,-7194,-2856,2021,349,-1751,1288,5
2025-06-27 16:58:12.209,0.4668693244457245,-4.778826713562012,10.357316970825195,-1.06657075881958,0.3775147199630737,-0.2064724564552307,-7416,-2721,2578,885,422,142,5
2025-06-27 16:58:12.510,0.0263362191617488,-7.287950038909912,7.635109424591064,-0.4386012554168701,0.4581489264965057,-0.1612684279680252,-8026,-2684,2687,1158,460,-537,5
2025-06-27 16:58:12.819,0.6153098344802856,-3.612850427627564,9.6989107131958,0.1539380401372909,-0.3359758853912353,0.0952949747443199,-7576,-2708,2405,463,813,-804,5
2025-06-27 16:58:12.908,1.0319008827209473,-4.072536945343018,8.786720275878906,-0.1698205322027206,-0.3274237811565399,0.1991420686244964,-7710,-3452,2004,-372,436,-1065,5
2025-06-27 16:58:13.145,1.8818424940109253,-4.316745758056641,8.769960403442383,-0.0488692186772823,-0.1869247704744339,-0.0195476878434419,-7689,-3285,1843,-548,867,326,5
2025-06-27 16:58:13.208,1.723825216293335,-4.441244125366211,8.47547435760498,0.0659734457731247,-0.0158824957907199,-0.3506366610527038,-7554,-3456,1623,-345,841,526,5
2025-06-27 16:58:13.327,1.1803414821624756,-4.8051629066467285,8.956708908081055,0.0659734457731247,0.0280998013913631,-0.1991420686244964,-7959,-3175,1294,-50,800,885,5
2025-06-27 16:58:13.509,1.4915876388549805,-3.859453201293945,8.145073890686035,-0.2724458873271942,0.1698205322027206,-0.0134390350431203,-7940,-2749,1010,-95,-52,729,5
2025-06-27 16:58:13.714,1.3455413579940796,-4.685452938079834,8.556877136230469,-0.1197295859456062,0.1417207419872284,-0.1429424732923507,-7797,-2882,1640,-12,-219,123,5
2025-06-27 16:58:14.208,0.9959878921508788,-4.623203277587891,8.619126319885254,0.3176499307155609,-0.1502728462219238,0.0109955742955207,-7652,-2516,1825,43,59,-94,5
2025-06-27 16:58:14.442,1.314416766166687,-4.230554580688477,8.655038833618164,0.0940732508897781,0.130725160241127,0.2443460971117019,-7566,-2869,1787,-1361,-775,-55,5
2025-06-27 16:58:14.508,1.0773907899856567,-3.8163576126098633,8.571242332458496,0.1624901592731475,0.0268780700862407,0.171042263507843,-7100,-2927,2132,-1188,127,-389,5
2025-06-27 16:58:14.611,0.8451532125473022,-4.19224739074707,9.63187313079834,0.4239404797554016,-0.167377084493637,0.251676470041275,-9046,-2439,749,-2188,2917,-4470,5
2025-06-27 16:58:14.708,1.0797849893569946,-3.1914708614349365,9.040505409240724,0.3066543638706207,0.0561996027827262,0.504574716091156,-8094,-4243,203,-1958,-1433,-1229,5
2025-06-27 16:58:14.808,0.9888052940368652,-2.8179752826690674,9.519346237182615,0.2956587672233581,-0.1319468915462494,0.6218608021736145,-7312,-4055,1065,-1353,-3243,3549,5
2025-06-27 16:58:15.309,0.5363011956214905,-3.071760892868042,10.034099578857422,-0.0293215326964855,-0.0403171069920063,-0.2235766798257827,-8508,-1412,2900,1070,-694,-2476,5
2025-06-27 16:58:15.418,0.7924807667732239,-3.296815633773804,8.310274124145508,-0.0769690200686454,0.2675589919090271,-0.5778785347938538,-7881,-1765,3366,1153,-665,2258,5
2025-06-27 16:58:15.642,0.2274491637945175,-3.354276657104492,9.610325813293455,0.3066543638706207,0.0256563406437635,-0.3237585723400116,-8819,-1750,2442,-1147,2033,-4007,5
2025-06-27 16:58:15.719,0.5722141861915588,-2.540247917175293,9.674968719482422,-0.117286130785942,0.3054326176643371,-0.5326744914054871,-8250,-3413,2585,-637,148,520,5
2025-06-27 16:58:15.908,0.3375824391841888,-3.0310592651367188,9.311050415039062,0.0708603709936142,-0.1453859210014343,-0.1417207419872284,-7991,-2915,2428,-566,546,-309,5
2025-06-27 16:58:16.032,0.6368576288223267,-2.815581083297729,8.681375503540039,0.0574213340878486,-0.2321287989616394,0.0378736443817615,-7634,-2902,2255,441,-382,-272,5
2025-06-27 16:58:16.344,1.0606313943862915,-1.9129672050476076,9.097966194152832,-0.0317649915814399,-0.0537561401724815,0.1588249653577804,-7955,-2537,1992,-1155,33,580,5
2025-06-27 16:58:16.446,1.3120225667953491,-2.518700122833252,9.62947940826416,-0.1221730485558509,0.0439822971820831,0.0659734457731247,-7979,-2644,2013,-1046,22,155,5
2025-06-27 16:58:16.611,1.070208191871643,-3.136404275894165,8.858546257019043,-0.2052507251501083,0.1233947798609733,0.0158824957907199,-7913,-2585,2018,-1323,-780,363,5
2025-06-27 16:58:16.724,0.8906430602073669,-3.227383852005005,8.935160636901855,-0.090408056974411,0.1111774742603302,-0.1062905490398407,-7977,-2587,2419,-442,-722,232,5
2025-06-27 16:58:17.040,0.90979665517807,-3.3925838470458984,9.136273384094238,0.0500909499824047,-0.0207694191485643,0.2162462919950485,-7881,-2349,2483,-351,-480,290,5
2025-06-27 16:58:17.121,0.7254431247711182,-3.157952070236206,8.5903959274292,-0.1453859210014343,0.0794124826788902,-0.2125810980796814,-7857,-2314,2714,-88,-599,339,5
2025-06-27 16:58:17.338,0.6751648783683777,-3.201047658920288,9.126696586608888,0.0097738439217209,-0.0427605658769607,-0.1270599663257599,-8090,-2425,2958,-67,-760,329,5
2025-06-27 16:58:17.637,0.5147533416748047,-4.405331134796143,9.682151794433594,-0.6316346526145935,0.2186897546052932,-0.4080579876899719,-7548,-1949,4882,486,-1583,-17,5
2025-06-27 16:58:18.008,0.5746083855628967,-2.940079689025879,10.20887565612793,0.221133217215538,0.2431243658065796,-0.3127630054950714,-8048,-1710,4724,620,1149,-95,5
2025-06-27 16:58:18.220,0.237025961279869,-3.801992416381836,8.678980827331543,0.0219911485910415,0.1343903541564941,0.0940732508897781,-7904,-1711,4500,586,1089,280,5
2025-06-27 16:58:18.323,0.2825157940387726,-2.7892448902130127,8.884882926940918,0.1637118905782699,0.0,0.2235766798257827,-7312,-1828,4694,283,283,52,5
2025-06-27 16:58:18.408,-0.0526724383234977,-3.687070608139038,9.550470352172852,0.1637118905782699,0.0378736443817615,0.1624901592731475,-7712,-1794,4644,-271,426,-206,5
2025-06-27 16:58:18.708,-0.1173158809542656,-3.409343242645264,8.401253700256348,-0.2064724564552307,0.0378736443817615,0.3017674386501312,-7970,-1674,4247,-526,515,-317,5
2025-06-27 16:58:18.920,-0.1412578970193863,-4.158728122711182,8.633491516113281,-0.3530801236629486,-0.1832595765590667,0.1221730485558509,-7787,-2141,4345,-965,309,-148,5
2025-06-27 16:58:19.008,-0.7422025203704834,-3.0190882682800293,9.476250648498535,-0.3029891550540924,0.0561996027827262,-0.2162462919950485,-8043,-1787,4551,-661,-114,345,5
2025-06-27 16:58:19.412,-0.7015010714530945,-3.600879430770874,8.645462036132812,-0.0061086523346602,0.0439822971820831,0.157603234052658,-8043,-1692,4409,178,524,-57,5
2025-06-27 16:58:19.509,-0.5482721924781799,-2.5929205417633057,8.813055992126465,0.0305432621389627,-0.0952949747443199,0.2773328125476837,-7979,-2119,3867,-582,612,-252,5
2025-06-27 16:58:19.624,-0.4285621047019958,-2.96162748336792,8.736441612243652,0.4825835525989532,-0.3127630054950714,0.6609562039375305,-7679,-2000,3686,75,67,-98,5
2025-06-27 16:58:19.827,0.2466027736663818,-2.0901381969451904,9.521739959716797,0.0146607663482427,-0.1539380401372909,-0.0158824957907199,-7842,-2382,3026,-324,449,318,5
2025-06-27 16:58:19.924,0.2274491637945175,-2.4205379486083984,9.265560150146484,-0.180816113948822,-0.0232128798961639,-0.0232128798961639,-7937,-2222,3152,-296,252,-372,5
2025-06-27 16:58:20.137,0.3232172429561615,-3.160346269607544,10.091560363769531,-0.2675589919090271,0.1514945775270462,-0.5167919993400574,-7978,-2443,3128,671,205,-1964,5
2025-06-27 16:58:20.230,0.1316810995340347,-1.9345149993896484,9.411606788635254,-0.1368338167667389,0.107512280344963,-0.8038986921310425,-8058,-2769,3134,556,369,-1751,5
2025-06-27 16:58:20.541,0.4836287498474121,-2.3271639347076416,9.454702377319336,-0.0183259565383195,0.1502728462219238,-0.4728097021579742,-8261,-2684,2031,296,-706,644,5
2025-06-27 16:58:20.730,0.0837970599532127,-3.160346269607544,8.786720275878906,0.1942551434040069,0.1600466966629028,-0.1160643994808197,-7811,-2891,2881,-945,479,-1424,5
2025-06-27 16:58:20.908,-1.2545616626739502,-4.797980308532715,9.533711433410645,-0.3640756905078888,0.7024950385093689,0.0696386396884918,-7758,-2899,2810,-1710,-1382,1521,5
2025-06-27 16:58:21.109,-1.721431016921997,-2.717418909072876,9.761159896850586,0.1954768747091293,0.7513642311096191,0.3152064681053161,-7497,-2547,3186,-1572,-8,1923,5
2025-06-27 16:58:21.225,-3.026270866394043,-2.0925323963165283,8.564059257507324,0.221133217215538,1.587027907371521,-0.2431243658065796,-7913,-2833,3385,-563,162,-279,5
2025-06-27 16:58:21.311,-4.592078685760498,-2.846705913543701,5.568912982940674,0.9285151958465576,1.4599679708480835,0.3885102868080139,-7167,-3088,3593,1993,-387,-1394,5
2025-06-27 16:58:21.508,-3.991134166717529,0.3591302633285522,3.1483752727508545,0.8527678847312927,-0.979827880859375,0.7195992469787598,-7584,-2559,3678,1655,733,-1975,5
2025-06-27 16:58:21.732,-1.0678139925003052,-2.0183119773864746,10.091560363769531,-0.3530801236629486,-0.8820894360542297,0.7183775305747986,-7658,-3339,2949,114,219,-712,5
2025-06-27 16:58:21.908,-1.5849615335464478,-3.3901896476745605,9.84256362915039,-0.1246165111660957,0.0293215326964855,0.2247984111309051,-7656,-3375,2666,-1064,-76,-98,5
2025-06-27 16:58:22.018,-0.9576807022094728,-3.6822822093963614,8.80587387084961,-0.4007275998592376,0.1722639948129654,0.1038470938801765,-7781,-2997,2665,-756,-538,620,5
2025-06-27 16:58:22.120,-0.6631938815116882,-3.914519786834717,9.265560150146484,-1.026253581047058,0.1368338167667389,0.1942551434040069,-7558,-3164,2512,-702,-171,889,5
2025-06-27 16:58:22.343,-0.7445967197418213,-5.4013190269470215,8.039729118347168,-1.480737328529358,0.1783726513385772,-0.2895501255989074,-7610,-3175,2546,-625,82,139,5
2025-06-27 16:58:22.422,-1.3862427473068235,-5.513846397399902,8.145073890686035,0.1319468915462494,0.2443460971117019,-0.098960168659687,-7131,-2742,2812,1066,837,344,5
2025-06-27 16:58:22.526,-1.5705963373184204,-5.3797712326049805,7.599195957183838,0.1380555480718612,0.197920337319374,-0.0012217304902151,-8083,-2715,2929,654,669,516,5
2025-06-27 16:58:22.726,-1.314416766166687,-4.829104900360107,7.740454196929932,0.3872885704040527,-0.0219911485910415,0.0952949747443199,-7497,-2396,3206,1218,-1364,158,5
2025-06-27 16:58:22.926,-1.1827356815338137,-4.23773717880249,8.899248123168945,0.4679227769374847,-0.2101376503705978,-0.0891863256692886,-7611,-2246,3203,836,-125,430,5
2025-06-27 16:58:23.017,-1.194706678390503,-4.307168960571289,8.358158111572266,0.4532620012760162,-0.0879645943641662,-0.1942551434040069,-7835,-2708,2735,-534,841,-758,5
2025-06-27 16:58:23.110,-0.8619126081466675,-3.634398221969605,8.355764389038086,0.0342084541916847,-0.0500909499824047,-0.1380555480718612,-7943,-2699,2469,-794,281,273,5
2025-06-27 16:58:23.308,-1.0462661981582642,-3.861847400665283,9.32541561126709,-0.2223549485206604,-0.1722639948129654,0.0390953756868839,-7678,-2855,2459,-390,77,47,5
2025-06-27 16:58:23.508,-0.5674257874488831,-4.173093795776367,8.238448143005371,-0.0329867228865623,0.1795943826436996,-0.0500909499824047,-8267,-2841,2639,-638,-489,-452,5
2025-06-27 16:58:23.608,-0.6655880808830261,-4.132391929626465,8.966285705566406,0.0940732508897781,0.2675589919090271,-0.4825835525989532,-7710,-2768,2902,66,-234,492,5
2025-06-27 16:58:23.810,-1.2880805730819702,-2.930502891540528,9.141061782836914,0.3078760802745819,0.0781907513737678,-0.4031710624694824,-7662,-2623,2849,358,386,525,5
2025-06-27 16:58:24.008,-1.091755986213684,-3.998316764831543,8.418013572692871,0.067195177078247,0.2113593816757202,-0.3860668241977691,-7824,-2596,2517,-1,775,473,5
2025-06-27 16:58:24.208,-1.6711528301239014,-4.771644115447998,7.824251174926758,-0.2296853363513946,0.0122173046693205,-0.1258382350206375,-8206,-2683,2222,-253,-621,620,5
2025-06-27 16:58:24.308,-1.5107412338256836,-5.789179801940918,9.210494041442873,0.0745255574584007,0.1148426681756973,0.2761110961437225,-7886,-2839,2706,593,-1239,498,5
2025-06-27 16:58:24.414,-1.522712230682373,-4.481945514678955,8.291120529174805,-0.0476474873721599,-0.1014036312699318,0.5204572081565857,-7329,-2001,3445,252,-933,-63,5
2025-06-27 16:58:24.631,-1.213860273361206,-5.374982833862305,8.99740982055664,-0.0085521135479211,-0.0794124826788902,0.3408628106117248,-7776,-2355,3343,-1593,267,528,5
2025-06-27 16:58:24.713,-1.723825216293335,-3.265691041946411,6.3733649253845215,-0.0574213340878486,0.0415388382971286,0.2663372457027435,-7395,-2470,3078,-21,2401,-746,5
2025-06-27 16:58:25.051,-0.7805097699165344,-4.867412090301514,9.150638580322266,-0.0977384373545646,-0.3347541689872741,-0.2272418737411499,-7899,-1981,2587,-222,-2052,10,5
2025-06-27 16:58:25.324,-0.6584054827690125,-5.193023681640625,8.698134422302246,0.1637118905782699,0.3188716471195221,-0.1820378452539444,-7895,-1937,3366,1171,-112,-190,5
2025-06-27 16:58:25.426,-1.4532804489135742,-4.7189717292785645,8.17141056060791,0.950506329536438,0.1148426681756973,0.0769690200686454,-7582,-2201,3287,645,-5,-9,5
2025-06-27 16:58:25.627,-0.6655880808830261,-3.708618402481079,10.706870079040527,-0.3359758853912353,-0.0048869219608604,-0.0757472887635231,-7608,-2564,3282,-435,357,-572,5
2025-06-27 16:58:25.840,-0.6655880808830261,-3.708618402481079,10.706870079040527,-0.3359758853912353,-0.0048869219608604,-0.0757472887635231,-7984,-2573,3353,-1089,544,-1138,5
2025-06-27 16:58:25.920,-1.05105459690094,-5.674258232116699,8.959102630615234,0.147829383611679,-0.0940732508897781,-0.1038470938801765,-7557,-2740,2963,-1092,233,-200,5
2025-06-27 16:58:26.028,-1.05105459690094,-5.674258232116699,8.959102630615234,0.147829383611679,-0.0940732508897781,-0.1038470938801765,-7990,-2844,2794,-433,820,545,5
2025-06-27 16:58:26.408,-0.071826048195362,-4.017470359802246,7.905653953552246,-0.2199114859104156,-0.3139847218990326,-0.0403171069920063,-7787,-3095,2534,-1320,-363,301,5
2025-06-27 16:58:26.760,-0.3591302633285522,-3.5218706130981445,7.661445617675781,0.0280998013913631,0.0024434609804302,0.0329867228865623,-8082,-1886,1885,-432,324,7,5
2025-06-27 16:58:27.026,0.8595184087753296,-4.003105163574219,8.987833023071289,0.0598647929728031,-0.1001818999648094,0.2638937830924988,-7292,-2044,2316,2192,2548,445,5
2025-06-27 16:58:27.138,0.2968810200691223,-4.206612586975098,9.306262016296388,0.0500909499824047,0.0574213340878486,-0.2199114859104156,-8729,-1572,1776,1493,1182,-1152,5
2025-06-27 16:58:27.308,-0.0287304203957319,-4.113238334655762,8.40843677520752,0.051312681287527,0.1869247704744339,-0.1295034289360046,-8228,-1446,1933,-902,-96,1384,5
2025-06-27 16:58:27.627,-0.0790086537599563,-4.017470359802246,8.525752067565918,-0.0158824957907199,-0.0293215326964855,0.0549778714776039,-8449,-1083,1730,-9,720,-595,5
2025-06-27 16:58:27.829,-2.22660756111145,-4.865017890930176,11.791443824768066,0.9517280459403992,2.1539108753204346,-0.7831292152404785,-8016,-1760,1426,1103,-131,-1532,5
2025-06-27 16:58:28.018,1.1276689767837524,-3.224989652633667,3.1699230670928955,-0.3628539443016052,-0.0842994004487991,3.6077702045440674,-7798,-2255,2649,3209,-1471,-688,5
2025-06-27 16:58:28.108,0.3160346150398254,7.096413612365723,8.695740699768066,-0.0244346093386411,-1.187522053718567,2.576629638671875,-7401,-2343,2559,3276,-1492,-1098,5
2025-06-27 16:58:28.322,-1.5634137392044067,-2.449268341064453,7.0557122230529785,0.0097738439217209,-0.394618958234787,-2.155132532119751,-7582,-1349,3559,13,-4,-896,5
2025-06-27 16:58:28.408,-2.154781579971313,-4.675876140594482,7.953537940979004,-0.0488692186772823,-0.7672467231750488,-0.7391469478607178,-8508,-2042,1292,-2994,1755,1119,5
2025-06-27 16:58:28.526,-1.829170107841492,-3.0334534645080566,9.32541561126709,-0.3811798989772796,-0.8894197940826416,0.1490511149168014,-8511,-2177,890,-3012,-1148,-327,5
2025-06-27 16:58:28.926,-1.273715257644653,-2.2026655673980717,10.39801788330078,-0.1832595765590667,0.2895501255989074,-0.4239404797554016,-7872,-2314,2156,93,213,603,5
2025-06-27 16:58:29.009,-2.0685901641845703,-3.983951568603516,9.42597198486328,0.351858377456665,0.6707300543785095,-0.0659734457731247,-7865,-2097,2377,649,-330,-428,5
2025-06-27 16:58:29.108,-2.5258827209472656,-4.1874589920043945,8.884882926940918,0.251676470041275,0.8026769161224365,0.4642575979232788,-8285,-1991,2199,549,-550,-1306,5
2025-06-27 16:58:29.227,-2.58813214302063,-3.679888010025024,7.706935405731201,0.0061086523346602,0.7159340381622314,0.9724974632263184,-8223,-2356,2219,573,-413,-1305,5
2025-06-27 16:58:29.429,-3.0861260890960693,-2.3582887649536133,6.184223175048828,-0.1942551434040069,-0.1551597714424133,1.4110987186431885,-7665,-2744,2539,1287,-873,-1917,5
2025-06-27 16:58:29.512,-3.6727054119110103,-1.900996208190918,9.150638580322266,-0.2199114859104156,-0.8319984674453735,1.5027284622192385,-7635,-2894,2915,2094,292,-800,5
2025-06-27 16:58:29.645,-3.184288263320923,-2.164358377456665,9.761159896850586,1.0018190145492554,0.375071257352829,1.1801916360855105,-7000,-3067,2931,2354,2640,3375,5
2025-06-27 16:58:29.725,-1.0295066833496094,8.844181060791016,14.18803882598877,0.4092797040939331,0.7831292152404785,0.4056145250797272,-7414,-1526,1739,4662,6526,4388,5
2025-06-27 16:58:29.811,0.4429273009300232,1.0989385843276978,8.04691219329834,2.769663095474243,1.470963478088379,-2.8686232566833496,-9278,-890,1578,2765,3990,1738,5
2025-06-27 16:58:29.930,-1.417367458343506,-4.69024133682251,4.1180267333984375,1.929112434387207,-0.4605923891067505,-1.5332717895507812,-8167,-1202,1987,-1525,-3574,-2831,5
2025-06-27 16:58:30.131,-4.101267337799072,-0.5746083855628967,9.648633003234863,-1.8949040174484253,-2.293188095092773,0.6438519954681396,-7346,-2939,2395,-2139,-47,-998,5
2025-06-27 16:58:30.636,-0.0071826050989329,-0.2753331959247589,8.60236644744873,0.3799581825733185,0.6670648455619812,-1.6395623683929443,-8368,-905,2018,736,689,921,5
2025-06-27 16:58:30.746,-0.6751648783683777,-3.457227230072021,8.5903959274292,0.3371976017951965,0.2101376503705978,-1.0005972385406494,-8353,-975,1956,261,154,1145,5
2025-06-27 16:58:30.817,-1.6041151285171509,-3.095702886581421,8.29590892791748,0.1514945775270462,-0.46547931432724,-0.1123992055654525,-7955,-1897,2414,-1386,-643,-804,5
2025-06-27 16:58:31.018,-1.486799240112305,-2.851494312286377,9.23682975769043,-0.4337143301963806,-0.6316346526145935,0.140499010682106,-7892,-1519,2385,-901,-285,-1325,5
2025-06-27 16:58:31.236,-0.6799532771110535,-1.886630892753601,10.072406768798828,-0.3347541689872741,-0.4923573732376098,0.4153883755207062,-8035,-2310,2426,-452,-168,-1399,5
2025-06-27 16:58:31.727,0.150834709405899,-3.699041604995728,9.050082206726074,-0.2394591718912124,-0.1368338167667389,0.1551597714424133,-7842,-2223,2616,-1109,-705,346,5
2025-06-27 16:58:31.938,0.2442085742950439,-3.667917013168335,8.595184326171875,-0.0488692186772823,-0.2028072625398636,0.8784242272377014,-7566,-2626,2557,-380,-695,-113,5
2025-06-27 16:58:32.039,0.1101332753896713,-2.449268341064453,10.72602367401123,-0.3824016451835632,-0.1111774742603302,0.130725160241127,-7809,-2611,2833,482,75,-94,5
2025-06-27 16:58:32.338,0.8188169598579407,-4.091690540313721,8.880094528198242,-0.1087340116500854,0.1820378452539444,-0.180816113948822,-7986,-2405,2620,1383,773,79,5
2025-06-27 16:58:32.614,-0.0239420160651206,-4.637568473815918,9.074024200439451,-0.0366519130766391,0.1148426681756973,-0.3139847218990326,-7983,-2594,2653,329,355,-314,5
2025-06-27 16:58:32.729,0.1244984865188598,-4.807557106018066,8.377311706542969,0.0794124826788902,0.2321287989616394,-0.2846632003784179,-7978,-2596,2657,375,154,-340,5
2025-06-27 16:58:32.911,-0.2968810200691223,-3.9815573692321777,8.829815864562988,0.3396410644054413,0.4092797040939331,-0.2577851414680481,-8018,-2657,2629,142,527,-298,5
2025-06-27 16:58:33.209,-0.5291185975074768,-3.9408559799194336,8.62391471862793,0.1685988008975982,0.0464257597923278,0.0525344125926494,-7653,-3145,2887,-599,-312,358,5
2025-06-27 16:58:33.325,-0.8619126081466675,-3.866635799407959,8.374917984008789,0.3213151097297668,0.0024434609804302,0.0280998013913631,-7605,-2296,2435,2170,741,276,5
2025-06-27 16:58:33.417,-0.8619126081466675,-3.866635799407959,8.374917984008789,0.3213151097297668,0.0024434609804302,0.0280998013913631,-7605,-2296,2435,2170,741,276,5
2025-06-27 16:58:33.636,-0.6320692300796509,-3.44765043258667,10.630255699157717,-0.3824016451835632,0.5094616413116455,-0.636521577835083,-7850,-2199,2652,720,880,-594,5
2025-06-27 16:58:33.711,-0.1795651316642761,-3.157952070236206,7.668628215789795,0.0,0.1527163088321685,-0.4398229718208313,-8310,-2332,2281,-718,68,54,5
2025-06-27 16:58:33.909,-0.7805097699165344,-3.794809579849243,8.214506149291992,-0.3298672437667846,-0.1514945775270462,0.0818559452891349,-7929,-2149,3446,1824,1211,859,5
2025-06-27 16:58:34.108,-0.3016694188117981,-4.503493309020996,10.472238540649414,-0.2064724564552307,-0.0452040284872055,0.4105014503002167,-8234,-1577,2982,2368,1825,923,5
2025-06-27 16:58:34.308,-0.0095768067985773,-4.206612586975098,9.215282440185549,-0.0842994004487991,-0.0659734457731247,0.0146607663482427,-8064,-1896,3103,1852,-551,-1986,5
2025-06-27 16:58:34.508,-0.0981622710824012,-3.861847400665283,8.683769226074219,-0.0659734457731247,-0.0085521135479211,-0.0293215326964855,-7897,-2673,2469,-958,-465,-397,5
2025-06-27 16:58:34.640,-0.0622492432594299,-3.770867586135864,9.095572471618652,-0.0916297882795333,0.0342084541916847,-0.0867428630590438,-7942,-2543,2858,-1088,-323,409,5
2025-06-27 16:58:34.830,-0.1364694982767105,-4.046200752258301,9.006986618041992,-0.0891863256692886,0.0354301854968071,-0.1624901592731475,-8050,-2678,2928,-1273,-220,605,5
2025-06-27 16:58:35.234,-0.9648633003234864,-4.232948780059815,6.691793918609619,0.6377432942390442,1.1594222784042358,1.1178834438323977,-8476,-2567,2317,-1304,-59,-799,5
2025-06-27 16:58:35.531,-1.3263877630233765,-4.881777286529541,9.14585018157959,-1.047023057937622,-0.1539380401372909,-0.0195476878434419,-7849,-2578,2138,68,131,470,5
2025-06-27 16:58:35.731,-0.0957680642604827,-3.543418407440185,9.258378028869627,-1.0885618925094604,-0.6194173693656921,-0.3237585723400116,-7960,-2228,2061,-339,186,473,5
2025-06-27 16:58:36.023,-0.4740519225597381,-6.107608318328857,7.603984832763672,-0.7391469478607178,-0.0183259565383195,-0.2981022298336029,-7813,-2304,2456,805,-343,78,5
2025-06-27 16:58:36.108,-0.9959878921508788,-5.913678169250488,7.7763671875,-0.0452040284872055,-0.067195177078247,-0.2492330223321914,-8063,-2250,2908,815,-79,50,5
2025-06-27 16:58:36.240,-0.6560112833976746,-6.466738700866699,8.094796180725098,0.1661553531885147,0.2089159190654754,-0.2932153046131134,-8291,-2343,2556,945,-12,405,5
2025-06-27 16:58:36.326,0.1699883192777633,-5.145139217376709,8.128314971923828,1.009149432182312,0.2919935882091522,-0.3921754956245422,-7991,-2688,3119,856,-807,-434,5
2025-06-27 16:58:36.408,0.6129156351089478,-3.667917013168335,7.893682956695557,1.3573426008224487,-0.0219911485910415,-0.7269296646118164,-7824,-2190,2964,711,-1283,-1287,5
2025-06-27 16:58:36.634,-0.272938996553421,-4.891354084014893,8.798690795898438,0.0122173046693205,-0.1759291887283325,0.1783726513385772,-7713,-1981,3231,1001,837,975,5
2025-06-27 16:58:36.849,1.2066776752471924,-3.203441858291626,9.24640655517578,-0.1111774742603302,-0.1209513172507286,0.280998021364212,-7661,-2659,2475,-842,498,-1519,5
2025-06-27 16:58:37.113,1.6376339197158811,-2.873042106628418,9.351752281188965,0.5571091175079346,-0.442266434431076,0.4960225820541382,-7919,-2480,1922,-687,182,-380,5
2025-06-27 16:58:37.408,0.6392518281936646,-0.730231523513794,11.628637313842772,-0.1747074574232101,0.9297369122505188,-0.769690215587616,-7947,-3000,2191,-76,-643,-20,5
2025-06-27 16:58:37.609,-1.1827356815338137,-2.580949544906616,9.210494041442873,-0.0024434609804302,2.172236919403076,0.7904596328735352,-7779,-3590,2829,452,541,1341,5
2025-06-27 16:58:37.832,-0.2920926213264465,6.7492547035217285,9.337387084960938,1.5699236392974854,0.5558874011039734,-3.112969398498535,-7844,-3189,3353,1229,-1312,1004,5
2025-06-27 16:58:38.029,-1.039083480834961,-6.631938934326172,8.920795440673828,-0.6218608021736145,-1.264491081237793,1.1618657112121582,-7982,-1986,3205,-223,1023,-741,5
2025-06-27 16:58:38.128,-2.626439332962036,-1.8794482946395876,8.365341186523438,-2.4911084175109863,-1.1423180103302002,1.7189748287200928,-8011,-2858,2778,-187,1564,-2100,5
2025-06-27 16:58:38.309,-0.0957680642604827,-0.3806780576705932,11.494562149047852,-0.2822197377681732,-1.2046263217926023,0.9566149711608888,-8243,-2847,2544,-793,978,-973,5
2025-06-27 16:58:38.821,-0.272938996553421,0.150834709405899,8.786720275878906,-0.0195476878434419,0.294437050819397,-0.3567453026771545,-7829,-2379,2722,-126,8,355,5
2025-06-27 16:58:38.914,1.290474772453308,-3.746925592422485,11.63342571258545,-0.4447098970413208,0.7073819637298584,-0.8649851679801941,-8029,-2314,3108,-28,-222,-46,5
2025-06-27 16:58:39.008,1.4915876388549805,-2.183511972427368,11.013327598571776,0.8136724829673767,1.2950342893600464,-0.3127630054950714,-8000,-2372,2804,11,-402,-978,5
2025-06-27 16:58:39.108,1.3048399686813354,-1.429338455200195,9.74679470062256,0.921184778213501,1.605353832244873,0.2480112910270691,-7675,-2742,2948,248,-485,-2023,5
2025-06-27 16:58:39.217,-0.9265560507774352,9.033323287963867,9.47146224975586,2.685363531112671,1.67254900932312,-2.915048837661743,-8011,-2769,3123,341,-294,1099,5
2025-06-27 16:58:39.516,-5.288791656494141,-3.2082302570343018,13.510479927062988,-0.8405506014823914,0.0891863256692886,0.2736676335334778,-8403,-1715,2513,-377,391,-1315,5
2025-06-27 16:58:39.640,-3.806780815124512,-6.179434776306152,10.10592555999756,-0.7049384713172913,1.246165156364441,1.9083430767059328,-8383,-1710,2645,-335,368,-950,5
2025-06-27 16:58:39.710,0.0263362191617488,-2.2218191623687744,5.664681434631348,-2.161241292953491,0.2822197377681732,4.09279727935791,-7888,-1825,3420,699,-1079,929,5
2025-06-27 16:58:39.827,0.5291185975074768,0.727837324142456,9.959878921508787,-2.065946340560913,-1.8154915571212769,3.0445523262023926,-7796,-1137,3928,1088,-597,1612,5
2025-06-27 16:58:39.921,4.422090530395508,0.2825157940387726,16.249446868896484,-0.9627236127853394,-0.8808676600456238,0.7586946487426758,-8225,-713,4125,-22,-101,377,5
2025-06-27 16:58:40.124,0.5195417404174805,-2.054224967956543,8.724471092224121,-0.9761626720428468,-0.4581489264965057,0.7929030656814575,-8205,-1654,4077,-641,-1078,-1641,5
2025-06-27 16:58:40.226,0.4285621047019958,-3.1675288677215576,9.066842079162598,-0.0745255574584007,-0.6841690540313721,-0.0769690200686454,-7320,-2055,3844,-1526,1055,-557,5
2025-06-27 16:58:40.419,0.8188169598579407,-2.166752576828003,10.24239444732666,-0.2113593816757202,0.4459316432476043,-0.3762930035591125,-8047,-2354,2907,195,595,-234,5
2025-06-27 16:58:40.531,0.0814028605818748,-3.0406360626220703,8.336610794067383,-0.1343903541564941,0.3054326176643371,-0.180816113948822,-7886,-2417,2834,275,495,-170,5
2025-06-27 16:58:40.731,0.0622492432594299,-2.604891538619995,6.768408298492432,0.157603234052658,-0.280998021364212,-0.1246165111660957,-8028,-2395,2473,40,842,-143,5
2025-06-27 16:58:40.840,0.689530074596405,-2.8874073028564453,10.235212326049805,-0.197920337319374,-0.3335324227809906,-0.3897320330142975,-8261,-2395,2595,-358,226,-451,5
2025-06-27 16:58:40.925,1.1444283723831177,-1.5753847360610962,9.318233489990234,0.1123992055654525,-0.1624901592731475,-0.4984660446643829,-8004,-2278,2271,-396,-632,-154,5
2025-06-27 16:58:41.008,1.434126853942871,-3.126827478408813,9.124302864074709,-0.0293215326964855,-0.2003637999296188,-0.2223549485206604,-7657,-2454,2647,-223,341,-145,5
2025-06-27 16:58:41.141,1.1252747774124146,-2.353500366210937,9.66299819946289,0.0830776765942573,-0.067195177078247,0.2113593816757202,-7628,-2214,2333,-887,488,62,5
2025-06-27 16:58:41.411,1.766920804977417,-2.4181437492370605,8.975862503051758,0.2345722615718841,-0.1026253625750541,0.271224170923233,-7657,-3048,1645,-1864,165,-726,5
2025-06-27 16:58:41.537,1.5705963373184204,-2.276885747909546,9.181763648986816,0.1392772793769836,-0.1148426681756973,0.1685988008975982,-7735,-3217,1263,-1113,29,30,5
2025-06-27 16:58:41.624,1.3048399686813354,-2.145204782485962,9.402029991149902,-0.107512280344963,-0.0256563406437635,0.0134390350431203,-7744,-3389,1166,-497,-350,208,5
2025-06-27 16:58:41.736,1.5849615335464478,-2.3726539611816406,9.279925346374512,-0.0757472887635231,-0.0183259565383195,0.0073303831741213,-7721,-3347,1377,-425,-356,535,5
2025-06-27 16:58:41.826,1.6089035272598269,-2.209848165512085,9.14345645904541,0.0342084541916847,0.0036651915870606,0.0158824957907199,-7340,-3177,1218,341,-403,603,5
2025-06-27 16:58:42.008,2.0446481704711914,0.2801215946674347,8.999804496765137,-0.2101376503705978,0.0183259565383195,-0.197920337319374,-7588,-3145,1579,604,-162,267,5
2025-06-27 16:58:42.123,1.381454348564148,-2.049436569213867,9.035717010498049,-0.1685988008975982,0.0952949747443199,-0.2101376503705978,-7652,-3189,1883,1138,-1315,6,5
2025-06-27 16:58:42.245,1.3287819623947144,-2.2218191623687744,9.157821655273438,-0.1685988008975982,0.1295034289360046,-0.2028072625398636,-7576,-2699,2572,817,-1018,1113,5
2025-06-27 16:58:42.432,0.7948749661445618,-2.767697095870972,9.04290008544922,-0.0329867228865623,0.0867428630590438,-0.0879645943641662,-7985,-2483,2789,791,-806,1119,5
2025-06-27 16:58:42.631,1.2330138683319092,-1.8411411046981807,9.500192642211914,0.1343903541564941,0.0048869219608604,-0.0403171069920063,-8004,-2134,3397,1133,-360,832,5
2025-06-27 16:58:42.817,1.158793568611145,-1.534683346748352,10.465055465698242,0.0085521135479211,0.0757472887635231,-0.1160643994808197,-8022,-1457,3254,1092,629,-85,5
2025-06-27 16:58:43.024,0.9600749015808104,-2.22660756111145,8.96149730682373,-0.4679227769374847,0.4300491213798523,-0.4007275998592376,-8031,-1499,2814,-202,2405,-974,5
2025-06-27 16:58:43.145,1.3742717504501345,-3.9408559799194336,7.170634269714356,1.2290608882904053,0.5192354321479797,-1.4220943450927734,-8040,-1735,2504,-467,2441,-1154,5
2025-06-27 16:58:43.208,0.7445967197418213,-4.594472885131836,8.437167167663574,0.5375614166259766,-0.1991420686244964,1.0225883722305298,-7962,-2903,1959,-1144,-1763,916,5
2025-06-27 16:58:43.309,0.0790086537599563,-3.945644378662109,6.414066314697266,0.0439822971820831,-0.7195992469787598,1.6505578756332395,-7736,-2652,2575,174,-1399,706,5
2025-06-27 16:58:43.408,0.7924807667732239,-0.4141969084739685,9.157821655273438,-0.740368664264679,-1.0128145217895508,0.9896016716957092,-8048,-1931,2473,1144,-218,607,5
2025-06-27 16:58:43.516,1.3000515699386597,-2.185906171798706,10.984597206115724,0.0024434609804302,-0.1771509200334549,0.0207694191485643,-8055,-2152,2919,645,-198,342,5
2025-06-27 16:58:43.608,1.5514427423477173,-2.762908697128296,9.548076629638672,0.3579670190811157,-0.2419026345014572,0.2919935882091522,-7895,-2149,2708,476,-547,106,5
2025-06-27 16:58:44.142,1.213860273361206,-2.152387380599976,9.442731857299805,-0.0085521135479211,0.1759291887283325,-0.0610865242779254,-8520,-1280,3039,152,-148,840,5
2025-06-27 16:58:44.322,1.5849615335464478,-2.3032219409942627,9.047688484191896,-0.0329867228865623,0.197920337319374,-0.4874704778194427,-8051,-1291,3631,496,-397,-128,5
2025-06-27 16:58:44.419,0.9792284965515136,-2.1140801906585693,9.315838813781738,-0.1246165111660957,0.1918116807937622,-0.5607742667198181,-7874,-1243,3421,78,720,-489,5
2025-06-27 16:58:44.726,0.4357447028160095,-2.4205379486083984,8.834604263305664,-0.1014036312699318,0.2431243658065796,-0.2003637999296188,-8246,-1779,2617,-1042,799,-908,5
2025-06-27 16:58:44.841,0.974440097808838,-1.984793186187744,9.35654067993164,0.0122173046693205,0.2003637999296188,-0.140499010682106,-7947,-2153,2178,-2649,-256,-1334,5
2025-06-27 16:58:45.022,-0.1292868852615356,-2.590526342391968,9.138668060302734,0.1062905490398407,0.0146607663482427,-0.0012217304902151,-7674,-2781,2891,-2782,-890,46,5
2025-06-27 16:58:45.237,0.332794040441513,-2.5306711196899414,8.973467826843262,-0.0427605658769607,-0.1136209368705749,0.2981022298336029,-7624,-3149,2820,-1083,266,-1340,5
2025-06-27 16:58:45.428,0.0263362191617488,-2.738966703414917,8.983044624328613,-0.1123992055654525,-0.1343903541564941,0.371406078338623,-7582,-2801,2628,-799,-32,-842,5
2025-06-27 16:58:45.510,0.4285621047019958,-3.220201253890991,9.428366661071776,-0.221133217215538,-0.1148426681756973,0.3555235862731933,-7623,-2762,2574,-802,337,-264,5
2025-06-27 16:58:45.708,0.3423708379268646,-3.6822822093963614,9.030928611755373,-0.1514945775270462,0.0378736443817615,-0.1343903541564941,-8030,-2607,3093,591,-846,702,5
2025-06-27 16:58:45.853,0.6344634294509888,-3.7493197917938232,8.935160636901855,-0.0342084541916847,0.1160643994808197,-0.1527163088321685,-7892,-1752,2947,1140,344,1349,5
2025-06-27 16:58:46.017,0.3303998410701751,-3.7876269817352295,9.078812599182127,0.0940732508897781,0.0757472887635231,-0.1918116807937622,-8241,-1906,2458,596,1189,-526,5
2025-06-27 16:58:46.241,0.586579442024231,-3.160346269607544,9.17697525024414,0.0366519130766391,0.0,-0.130725160241127,-8230,-1759,2679,466,1178,-852,5
2025-06-27 16:58:46.313,0.3878606855869293,-3.780444383621216,8.576030731201172,-0.0329867228865623,-0.1551597714424133,-0.0745255574584007,-8278,-2669,1884,-119,1639,-1898,5
2025-06-27 16:58:46.715,0.8667010068893433,-3.63918662071228,9.172186851501465,-0.2565633952617645,-0.0171042270958423,-0.1918116807937622,-7833,-2055,2159,-276,-601,1854,5
2025-06-27 16:58:46.933,0.3926490843296051,-3.897760391235352,9.157821655273438,-0.2345722615718841,0.0439822971820831,-0.0781907513737678,-8307,-1491,2018,-21,-422,201,5
2025-06-27 16:58:47.015,0.912190854549408,-3.955221176147461,8.631096839904785,0.0146607663482427,0.2186897546052932,0.0354301854968071,-8079,-989,2451,201,-812,187,5
2025-06-27 16:58:47.115,1.036689281463623,-3.974374771118164,9.157821655273438,0.1539380401372909,0.058643065392971,-0.0109955742955207,-7880,-1177,2789,243,-278,285,5
2025-06-27 16:58:47.208,0.6009446382522583,-3.8546648025512695,8.899248123168945,0.1441642045974731,-0.0036651915870606,-0.0952949747443199,-8196,-1620,3080,307,788,-218,5
2025-06-27 16:58:47.408,0.4764461517333984,-4.177882194519043,8.705317497253418,0.0366519130766391,-0.1698205322027206,0.0635299831628799,-7822,-1750,2036,-649,2062,-1114,5
2025-06-27 16:58:47.533,0.4764461517333984,-4.177882194519043,8.705317497253418,0.0366519130766391,-0.1698205322027206,0.0635299831628799,-7627,-1967,1901,-1519,2133,-1159,5
2025-06-27 16:58:47.613,1.09654438495636,-3.574543237686157,9.083600997924805,-0.0171042270958423,-0.304210901260376,-0.0403171069920063,-7596,-2304,716,-678,2016,-2413,5
2025-06-27 16:58:47.817,1.3479355573654177,-3.734954595565796,9.01895809173584,0.147829383611679,-0.261450320482254,-0.0757472887635231,-7626,-2684,359,-570,2891,-784,5
2025-06-27 16:58:47.908,1.414973258972168,-3.2800562381744385,9.500192642211914,0.3506366610527038,-0.2333505302667617,-0.1221730485558509,-8570,-2687,-524,-732,1351,648,5
2025-06-27 16:58:48.025,1.1252747774124146,-3.2824504375457764,9.51455783843994,0.2492330223321914,0.0867428630590438,-0.0794124826788902,-8024,-2525,68,-241,-1844,905,5
2025-06-27 16:58:48.108,0.7422025203704834,-3.248931646347046,7.850587368011475,0.1429424732923507,0.0012217304902151,0.5913175344467163,-6905,-2312,540,-260,-524,-695,5
2025-06-27 16:58:48.225,2.4133553504943848,-2.985569477081299,10.529699325561523,-0.0219911485910415,-0.1905899494886398,0.6352998614311218,-8568,-3119,1120,-914,-2781,-285,5
2025-06-27 16:58:48.417,0.7565677165985107,-3.117250680923462,9.543288230895996,0.1233947798609733,-0.1857030391693115,0.5009095072746277,-7134,-2620,1664,179,-3329,557,5
2025-06-27 16:58:48.537,2.499546527862549,-1.577778935432434,8.576030731201172,0.1417207419872284,-0.0232128798961639,0.2370157092809677,-7834,-2011,1952,472,-1175,1045,5
2025-06-27 16:58:48.708,1.482010841369629,-2.494758129119873,9.23682975769043,-0.1930334120988845,-0.1527163088321685,-0.2138028293848037,-8003,-2319,2350,349,-748,-148,5
2025-06-27 16:58:48.808,1.292868971824646,-3.313575267791748,9.624691009521484,-0.1123992055654525,-0.0439822971820831,-0.0073303831741213,-7855,-2406,2181,-55,-735,-156,5
2025-06-27 16:58:48.908,1.886630892753601,-2.5546131134033203,9.296685218811035,-0.0073303831741213,0.0268780700862407,0.0647517144680023,-8012,-2412,2587,260,-504,249,5
2025-06-27 16:58:49.009,2.231395959854126,-2.571372509002685,9.287108421325684,0.051312681287527,0.0305432621389627,-0.1356120854616165,-7822,-2103,2544,221,6,656,5
2025-06-27 16:58:49.418,1.7094600200653076,-3.315969467163086,9.476250648498535,0.058643065392971,0.0012217304902151,-0.1233947798609733,-8055,-1855,2540,253,-91,559,5
2025-06-27 16:58:49.531,1.261744260787964,-3.3686418533325195,9.210494041442873,-0.0012217304902151,0.0635299831628799,-0.0928515195846557,-8303,-1457,2517,288,330,114,5
2025-06-27 16:58:49.632,1.5969325304031372,-2.9879636764526367,8.89445972442627,0.0452040284872055,-0.0048869219608604,-0.0268780700862407,-7931,-1517,2763,88,36,-375,5
2025-06-27 16:58:49.829,1.3096283674240112,-3.375824451446533,9.222464561462402,-0.0036651915870606,0.0256563406437635,-0.0415388382971286,-7906,-1817,3118,45,-48,-169,5
2025-06-27 16:58:49.918,1.139639973640442,-3.3734302520751958,9.167398452758787,-0.0012217304902151,0.0439822971820831,0.0134390350431203,-8225,-1811,3166,-83,-70,-104,5
2025-06-27 16:58:50.108,1.2976573705673218,-3.4141316413879395,9.050082206726074,-0.0219911485910415,0.0195476878434419,0.0244346093386411,-8226,-1863,3329,-93,78,43,5
2025-06-27 16:58:50.345,1.3694833517074585,-3.272873640060425,9.117119789123535,-0.0232128798961639,0.0158824957907199,0.0537561401724815,-7892,-1525,2994,-112,42,-111,5
2025-06-27 16:58:50.527,1.5083470344543457,-3.0765492916107178,9.24640655517578,-0.117286130785942,0.0256563406437635,-0.0598647929728031,-7890,-1819,2959,-97,-98,-100,5
2025-06-27 16:58:50.614,1.3982137441635132,-3.3423056602478027,9.071630477905272,-0.0390953756868839,0.0158824957907199,-0.1392772793769836,-7858,-1851,2744,-29,181,-19,5
2025-06-27 16:58:50.810,1.58256733417511,-3.095702886581421,9.167398452758787,-0.0280998013913631,0.0305432621389627,-0.1062905490398407,-8195,-1847,2829,-14,372,-41,5
2025-06-27 16:58:50.908,1.5490485429763794,-3.05260705947876,9.038111686706545,-0.0085521135479211,0.0048869219608604,-0.1087340116500854,-7917,-1841,2522,263,290,-101,5
2025-06-27 16:58:51.209,1.6496049165725708,-2.8443117141723637,9.035717010498049,0.0488692186772823,-0.0183259565383195,-0.0256563406437635,-8246,-1842,2494,-28,323,100,5
2025-06-27 16:58:51.337,1.7549498081207275,-3.0621838569641118,9.277531623840332,0.0415388382971286,0.0,-0.0940732508897781,-7892,-1514,2461,257,375,-271,5
2025-06-27 16:58:51.412,1.680729627609253,-2.7940332889556885,8.990227699279785,0.1539380401372909,0.0024434609804302,-0.1539380401372909,-7912,-1514,2458,-18,146,-283,5
2025-06-27 16:58:51.521,1.2401964664459229,-3.071760892868042,9.284713745117188,0.1991420686244964,-0.0122173046693205,-0.0708603709936142,-8215,-1439,2435,110,193,-158,5
2025-06-27 16:58:51.610,1.1540051698684692,-3.24414324760437,9.330204010009766,0.1453859210014343,0.0366519130766391,0.0794124826788902,-7898,-1515,2567,-1077,315,-364,5
2025-06-27 16:58:51.933,1.173158884048462,-2.7724854946136475,9.215282440185549,0.1038470938801765,0.2382374405860901,0.2956587672233581,-8116,-2073,2433,-1812,-601,-386,5
2025-06-27 16:58:52.143,1.1492167711257937,-0.8595184087753296,11.135432243347168,-1.3365731239318848,1.750739812850952,-1.1068878173828125,-7818,-2096,2851,-464,-166,829,5
2025-06-27 16:58:52.208,-1.7884687185287476,-6.476315498352051,5.367800235748291,2.634050846099853,1.027475357055664,-3.02622652053833,-8423,-1367,2938,95,266,-325,5
2025-06-27 16:58:52.314,0.9816226959228516,-6.291962146759033,7.364564418792725,0.8503243923187256,-0.251676470041275,1.1020009517669678,-8009,-1531,2708,-360,-464,2371,5
2025-06-27 16:58:52.431,-0.0861912593245506,-3.1435868740081787,7.096413612365723,-1.4550809860229492,-0.5815436840057373,2.680476665496826,-7884,-1581,2714,-104,-150,1181,5
2025-06-27 16:58:52.508,-0.608127236366272,0.6344634294509888,9.643844604492188,-1.037249207496643,-0.7257078886032104,1.1630873680114746,-8217,-1725,2901,579,505,-1403,5
2025-06-27 16:58:52.624,0.3399766385555267,2.4205379486083984,11.676521301269531,-0.1881465017795562,-0.5082398653030396,-0.0342084541916847,-8253,-2055,2928,583,539,-1069,5
2025-06-27 16:58:52.822,0.0335188247263431,-2.1140801906585693,9.849745750427246,0.0024434609804302,-0.1160643994808197,0.0427605658769607,-7851,-1740,2706,-160,-597,181,5
2025-06-27 16:58:53.108,1.5514427423477173,-1.039083480834961,11.463438034057615,0.2871066629886627,0.5827654600143433,0.1001818999648094,-7898,-1711,2792,286,-339,346,5
2025-06-27 16:58:53.229,0.9145850539207458,-1.3048399686813354,9.813833236694336,-0.3872885704040527,1.236391305923462,0.090408056974411,-7809,-1695,2762,257,-148,311,5
2025-06-27 16:58:53.317,-3.0765492916107178,0.2082955539226532,6.727706909179688,1.3329079151153564,-1.2095131874084473,0.2455678284168243,-7939,-1066,2853,768,470,1655,5
2025-06-27 16:58:53.424,0.119710087776184,-1.7262194156646729,12.744335174560549,0.5656611919403076,-1.1410962343215942,0.2101376503705978,-8242,-450,2673,543,1120,545,5
2025-06-27 16:58:53.623,0.3663128614425659,-1.429338455200195,10.103530883789062,-0.0415388382971286,-0.0073303831741213,0.0977384373545646,-8412,-727,2191,-216,196,-537,5
2025-06-27 16:58:53.819,0.4141969084739685,2.1954829692840576,12.586318016052246,0.5302310585975647,0.2101376503705978,-0.2040289938449859,-7923,-1443,2768,289,-504,-990,5
2025-06-27 16:58:53.933,0.4141969084739685,2.1954829692840576,12.586318016052246,0.5302310585975647,0.2101376503705978,-0.2040289938449859,-7848,-1684,3064,445,-155,-166,5
2025-06-27 16:58:54.046,0.0071826050989329,-0.8236053586006165,6.557718276977539,1.9449949264526367,-0.2089159190654754,-0.9847147464752196,-8165,-1445,3366,231,-609,-126,5
2025-06-27 16:58:54.239,2.0925323963165283,2.075772762298584,6.655880928039551,0.2345722615718841,1.954768776893616,-3.507588148117065,-7946,-1716,3481,2054,-840,1045,5
2025-06-27 16:58:54.640,-1.2401964664459229,-0.8595184087753296,13.668497085571287,-1.804495930671692,-0.0794124826788902,1.6200146675109863,-7909,-1238,2523,-1818,2321,-1311,5
2025-06-27 16:58:54.829,1.4844050407409668,0.849941611289978,11.595118522644045,0.0635299831628799,-0.5668829679489136,0.5375614166259766,-8746,-1845,1989,-1896,1367,-823,5
2025-06-27 16:58:55.031,1.0893617868423462,-1.5275006294250488,9.816226959228516,-0.1490511149168014,-0.180816113948822,-0.1111774742603302,-8444,-1722,2034,-1814,444,-231,5
2025-06-27 16:58:55.241,1.501164436340332,-1.3287819623947144,9.512163162231444,-0.0158824957907199,0.1270599663257599,-0.2455678284168243,-8271,-1434,2803,1236,-412,-350,5
2025-06-27 16:58:55.308,1.3192051649093628,-1.9919757843017576,9.02135181427002,-0.2015855312347412,0.0464257597923278,-0.1783726513385772,-7857,-1473,2797,1407,-551,-619,5
2025-06-27 16:58:55.613,0.9193734526634216,-2.2026655673980717,9.6989107131958,-0.1490511149168014,-0.0097738439217209,-0.0073303831741213,-7982,-2374,3479,208,307,351,5
2025-06-27 16:58:55.719,0.9433154463768004,-2.7006595134735107,9.65342140197754,-0.0561996027827262,-0.0268780700862407,-0.0256563406437635,-7607,-2130,3967,883,604,-268,5
2025-06-27 16:58:55.931,0.8762778043746948,-3.059789657592773,9.157821655273438,-0.0952949747443199,-0.0745255574584007,-0.1380555480718612,-7826,-2150,3936,-32,1120,-295,5
2025-06-27 16:58:56.124,0.8236053586006165,-3.2800562381744385,9.2033109664917,-0.1991420686244964,-0.0207694191485643,-0.1661553531885147,-7880,-1933,3503,329,767,11,5
2025-06-27 16:58:56.208,1.256955862045288,-3.2082302570343018,9.38048267364502,-0.090408056974411,0.0464257597923278,-0.1050688251852989,-8041,-2159,3322,524,475,-239,5
2025-06-27 16:58:56.714,1.3838485479354858,-2.693476915359497,9.2033109664917,0.1930334120988845,0.0036651915870606,0.1539380401372909,-7887,-2163,2791,-517,-23,68,5
2025-06-27 16:58:56.929,1.4915876388549805,-2.786850690841675,9.493009567260742,0.0769690200686454,0.051312681287527,-0.1734857261180877,-7966,-2349,2439,-394,656,-851,5
2025-06-27 16:58:57.008,0.9864110946655272,-2.6575639247894287,8.793902397155762,-0.0610865242779254,0.067195177078247,-0.261450320482254,-7852,-2240,2652,-583,682,-876,5
2025-06-27 16:58:57.120,0.6057330369949341,-2.8634653091430664,9.615114212036133,-0.098960168659687,-0.0366519130766391,-0.0244346093386411,-7597,-2807,2593,-588,601,-1334,5
2025-06-27 16:58:57.208,1.0247182846069336,-2.827552318572998,9.41400146484375,0.0293215326964855,-0.0354301854968071,0.3054326176643371,-7944,-2975,2225,-751,23,-681,5
2025-06-27 16:58:57.408,1.2665326595306396,-2.248155355453491,9.763554573059082,0.4581489264965057,-0.1722639948129654,0.1527163088321685,-7980,-3186,2181,-1050,-309,-846,5
2025-06-27 16:58:57.623,1.1516109704971311,-2.427720546722412,9.828198432922363,-0.261450320482254,0.0048869219608604,0.0280998013913631,-8022,-3151,2343,-916,-154,-219,5
2025-06-27 16:58:57.723,1.0103530883789062,-1.7334020137786863,9.38048267364502,-0.0574213340878486,-0.0085521135479211,0.3274237811565399,-8017,-3145,2318,-1346,-149,99,5
2025-06-27 16:58:57.827,1.1252747774124146,-2.3080103397369385,9.75397777557373,0.2028072625398636,-0.1136209368705749,0.5607742667198181,-7971,-2972,2394,-1199,-195,-100,5
2025-06-27 16:58:57.908,1.072602391242981,-1.968033790588379,9.136273384094238,0.1417207419872284,-0.0158824957907199,0.4447098970413208,-8281,-2083,3145,-882,1073,-1695,5
2025-06-27 16:58:58.009,2.2649147510528564,-1.1779472827911377,9.165003776550291,0.117286130785942,-0.0207694191485643,0.1197295859456062,-8120,-2664,2018,-56,1464,-1572,5
2025-06-27 16:58:58.108,1.261744260787964,-1.434126853942871,9.928754806518556,-0.452040284872055,0.067195177078247,-0.4923573732376098,-8044,-3135,1895,-1153,-1033,-92,5
2025-06-27 16:58:58.529,0.5482721924781799,-2.042253971099853,9.0859956741333,0.0219911485910415,0.1148426681756973,0.0867428630590438,-7796,-2612,2251,409,-1489,235,5
2025-06-27 16:58:58.610,0.5123591423034668,-3.339911460876465,9.15542697906494,0.0085521135479211,0.0378736443817615,0.0525344125926494,-7402,-2186,2435,1744,-540,638,5
2025-06-27 16:58:58.814,1.295263171195984,-2.738966703414917,8.78432559967041,-0.2675589919090271,-0.117286130785942,0.1111774742603302,-8388,-2634,3102,2104,-216,318,5
2025-06-27 16:58:58.931,0.9481038451194764,-2.1954829692840576,9.488221168518066,0.251676470041275,-0.4728097021579742,0.5778785347938538,-7237,-2016,3256,1260,-1337,-268,5
2025-06-27 16:58:59.014,1.0031704902648926,-2.540247917175293,10.055646896362305,-0.4508185386657715,-0.0012217304902151,-0.2235766798257827,-8125,-2389,2777,861,181,868,5
2025-06-27 16:58:59.212,1.3024457693099976,-3.203441858291626,9.141061782836914,0.1026253625750541,-0.0134390350431203,0.0122173046693205,-8510,-1466,3020,1043,-947,1111,5
2025-06-27 16:58:59.433,1.7717092037200928,-3.205836057662964,8.44434928894043,-0.147829383611679,0.1759291887283325,-0.0415388382971286,-7445,-1515,3270,523,2806,-250,5
2025-06-27 16:58:59.608,0.7637503147125244,-2.959233283996582,10.948684692382812,0.0928515195846557,-0.0952949747443199,0.1661553531885147,-8267,-2045,2435,-393,1532,-1098,5
2025-06-27 16:58:59.709,1.7310078144073486,-3.471592426300049,8.578424453735352,-0.3958406746387481,0.3213151097297668,-0.3262020349502563,-7973,-1712,2829,-167,-1642,858,5
2025-06-27 16:59:00.114,1.4652514457702637,-6.019022941589356,8.063671112060547,0.098960168659687,-0.6218608021736145,0.1832595765590667,-7396,-2363,3458,1509,-564,1176,5
2025-06-27 16:59:00.251,2.875436305999756,-2.786850690841675,9.081207275390623,0.1392772793769836,-1.281595230102539,0.5351179838180542,-8545,-1022,3632,884,725,44,5
2025-06-27 16:59:00.322,0.7805097699165344,-1.994369983673096,11.307814598083496,-0.147829383611679,0.7061602473258972,-0.3738495409488678,-8051,-1532,3478,-692,-1107,31,5
2025-06-27 16:59:00.714,1.915361404418945,-2.032677173614502,8.542511940002441,0.5595525503158569,-0.8930850028991699,0.7183775305747986,-7633,-2087,3327,48,-689,159,5
2025-06-27 16:59:00.808,0.4381389021873474,-2.8993782997131348,11.93748950958252,-0.180816113948822,-0.4092797040939331,0.4361577928066253,-8274,-1234,3586,585,321,95,5
2025-06-27 16:59:01.129,2.28406834602356,-3.3518824577331543,9.42597198486328,0.3274237811565399,0.0293215326964855,0.2907718420028686,-7864,-1183,3574,275,-256,167,5
2025-06-27 16:59:01.329,1.8339585065841677,-2.1045033931732178,9.255983352661133,0.0806342139840126,0.0647517144680023,-0.0525344125926494,-7991,-1490,3938,-116,-573,-569,5
2025-06-27 16:59:01.424,1.8267759084701536,-1.6065093278884888,8.595184326171875,-0.0048869219608604,0.0439822971820831,-0.2590068578720093,-7666,-1907,3840,-31,124,-769,5
2025-06-27 16:59:01.510,1.434126853942871,-3.059789657592773,8.856152534484863,-0.0280998013913631,0.090408056974411,-0.3286454975605011,-7638,-1694,3563,-70,337,-826,5
2025-06-27 16:59:01.741,1.170764684677124,-2.612074136734009,9.289502143859863,-0.0745255574584007,0.0048869219608604,-0.0891863256692886,-7603,-2153,3258,-449,1159,-1026,5
2025-06-27 16:59:01.808,1.0845733880996704,-2.3942017555236816,9.165003776550291,-0.0525344125926494,-0.0305432621389627,-0.0366519130766391,-7325,-2487,2483,-1072,1347,-955,5
2025-06-27 16:59:01.927,1.1563993692398071,-2.8993782997131348,10.189722061157228,-0.294437050819397,-0.0830776765942573,-0.058643065392971,-8818,-2785,2366,-407,1268,-1130,5
2025-06-27 16:59:02.110,3.3494882583618164,-0.9983820915222168,9.23682975769043,0.1270599663257599,-0.0109955742955207,-0.0476474873721599,-7587,-2284,3120,-236,-3160,1746,5
2025-06-27 16:59:02.231,1.86508309841156,-1.434126853942871,9.071630477905272,-0.2199114859104156,-0.1783726513385772,0.0415388382971286,-7275,-2182,3360,48,-2659,1432,5
2025-06-27 16:59:02.408,1.678335428237915,-2.535459518432617,7.917624950408935,-0.2394591718912124,0.1197295859456062,-0.1539380401372909,-8278,-1762,2506,335,1559,243,5
2025-06-27 16:59:02.620,1.115697979927063,-2.363077163696289,9.615114212036133,-0.0610865242779254,-0.0757472887635231,0.107512280344963,-7916,-2151,2626,-524,490,-485,5
2025-06-27 16:59:03.043,2.0183119773864746,-2.3702597618103027,9.23443603515625,0.0256563406437635,-0.058643065392971,0.0097738439217209,-8006,-2583,1911,-465,619,-993,5
2025-06-27 16:59:03.223,2.1787235736846924,-2.293645143508911,9.490615844726562,-0.0219911485910415,-0.0684169083833694,-0.1038470938801765,-7834,-2772,1613,95,316,-867,5
2025-06-27 16:59:03.308,2.2649147510528564,-2.454056739807129,9.349357604980469,-0.0488692186772823,0.1502728462219238,-0.1246165111660957,-8343,-3197,1659,487,-661,-53,5
2025-06-27 16:59:03.408,2.363077163696289,-2.1954829692840576,9.65342140197754,-0.1783726513385772,0.2626720666885376,-0.1502728462219238,-7511,-2663,1979,1696,-2318,867,5
2025-06-27 16:59:03.509,2.363077163696289,-2.1954829692840576,9.65342140197754,-0.1783726513385772,0.2626720666885376,-0.1502728462219238,-7568,-2401,2517,1259,-507,288,5
2025-06-27 16:59:03.930,1.867477297782898,-2.5546131134033203,8.87051773071289,-0.2357939779758453,-0.0073303831741213,-0.3481931984424591,-7765,-2585,2964,453,286,-601,5
2025-06-27 16:59:04.025,1.984793186187744,-3.129221677780152,7.989450931549072,0.0635299831628799,-0.0073303831741213,0.0109955742955207,-8228,-2599,2490,1000,352,-530,5
2025-06-27 16:59:04.415,1.8555063009262085,-2.470816135406494,8.774748802185059,-0.3481931984424591,-0.0073303831741213,0.5082398653030396,-7786,-2541,3363,1285,-321,860,5
2025-06-27 16:59:04.519,2.051830768585205,-1.213860273361206,10.043676376342772,-0.2883284091949463,-0.0390953756868839,0.2932153046131134,-7092,-2485,3271,-178,2816,-2203,5
2025-06-27 16:59:04.633,2.38462495803833,-2.279279947280884,8.307879447937012,0.1368338167667389,-0.130725160241127,0.0073303831741213,-7750,-2474,3359,-87,3331,-2838,5
2025-06-27 16:59:04.721,1.4700398445129397,-2.6455929279327397,9.318233489990234,-0.2003637999296188,-0.0623082555830478,-0.2822197377681732,-7641,-2723,2000,-766,260,-286,5
2025-06-27 16:59:04.915,1.764526605606079,-4.089296340942383,8.305485725402832,-0.3371976017951965,-0.0146607663482427,-0.0134390350431203,-8018,-2879,1729,-732,-232,972,5
2025-06-27 16:59:05.223,1.7884687185287476,-3.0095114707946777,9.694122314453123,0.2675589919090271,0.0842994004487991,0.2846632003784179,-7921,-2637,2330,72,-570,957,5
2025-06-27 16:59:05.314,2.319981336593628,-3.689464807510376,8.336610794067383,0.1649336218833923,0.167377084493637,0.2626720666885376,-7809,-2313,2269,179,-746,492,5
2025-06-27 16:59:05.532,1.6711528301239014,-3.603273630142212,9.873687744140623,-0.0403171069920063,0.1661553531885147,-0.0696386396884918,-7872,-2134,2907,-159,-1292,254,5
2025-06-27 16:59:05.823,0.5746083855628967,-3.892971992492676,8.918401718139648,0.5925393104553223,0.0256563406437635,0.1417207419872284,-8032,-1700,3396,355,-775,160,5
2025-06-27 16:59:05.909,0.993593692779541,-2.4205379486083984,8.89685344696045,0.2773328125476837,-0.2272418737411499,0.2724458873271942,-7995,-1753,3278,-25,-670,153,5
2025-06-27 16:59:06.019,1.235408067703247,-0.9576807022094728,10.524910926818848,0.1026253625750541,0.0024434609804302,-0.0427605658769607,-8032,-2092,3637,314,-778,152,5
2025-06-27 16:59:06.128,1.0079588890075684,-3.665522813796997,9.921571731567385,0.2113593816757202,0.1087340116500854,0.0696386396884918,-7912,-1515,3464,886,-221,554,5
2025-06-27 16:59:06.209,1.3311761617660522,-1.0342950820922852,9.20091724395752,-0.2443460971117019,0.0048869219608604,0.0378736443817615,-7850,-1622,3870,681,-254,216,5
2025-06-27 16:59:06.327,0.3854664862155914,-4.266467571258545,8.738836288452148,-0.6401867866516113,0.2785545587539673,-0.1062905490398407,-7941,-1245,3953,731,-63,36,5
2025-06-27 16:59:06.408,0.9864110946655272,-2.437297344207764,8.884882926940918,-0.0867428630590438,0.067195177078247,-0.271224170923233,-8043,-1177,3457,278,1127,-640,5
2025-06-27 16:59:06.635,0.730231523513794,-1.766920804977417,7.982268333435059,-0.4129449129104614,-0.8723155856132507,-0.36529740691185,-8251,-1449,2859,-913,-3,95,5
2025-06-27 16:59:06.821,2.075772762298584,-5.157110691070557,11.84650993347168,-0.618195652961731,0.940732479095459,-0.0769690200686454,-7636,-2125,3343,-1298,-399,-474,5
2025-06-27 16:59:06.910,2.319981336593628,-2.834734916687012,7.7643961906433105,0.351858377456665,0.8197811841964722,-0.0293215326964855,-7679,-2410,3312,-865,-152,-1404,5
2025-06-27 16:59:07.037,1.6543933153152466,-5.063736438751221,9.361329078674316,0.4923573732376098,0.7831292152404785,0.2406809031963348,-8029,-1673,3362,-1531,-55,-394,5
2025-06-27 16:59:07.208,0.4405331015586853,-3.1531636714935303,8.65982723236084,0.6633996367454529,0.4776966273784637,0.485027015209198,-7895,-2048,3285,-2615,-296,142,5
2025-06-27 16:59:07.323,0.1340752989053726,-2.2673089504241943,8.793902397155762,0.8295549750328064,0.2724458873271942,0.626747727394104,-7933,-2216,3467,-1550,30,549,5
2025-06-27 16:59:07.620,-0.5506663918495178,-2.468421936035156,9.579200744628906,-0.2638937830924988,-0.0842994004487991,-0.0525344125926494,-8281,-2087,3545,-1615,-425,622,5
2025-06-27 16:59:07.809,-0.1077390760183334,-4.180276393890381,9.090784072875977,0.2076941877603531,-0.1600466966629028,0.3164281845092773,-8441,-1796,3672,-250,-2064,-6131,5
2025-06-27 16:59:08.108,0.4046200811862945,-2.8227639198303223,9.2033109664917,-0.2015855312347412,0.0305432621389627,0.0708603709936142,-7835,-2168,3447,-279,533,1004,5
2025-06-27 16:59:08.408,0.2466027736663818,-3.620033025741577,8.35097599029541,-0.4642575979232788,0.0745255574584007,-0.157603234052658,-8258,-1891,2986,157,259,320,5
2025-06-27 16:59:08.530,0.2466027736663818,-3.620033025741577,8.35097599029541,-0.4642575979232788,0.0745255574584007,-0.157603234052658,-8258,-1891,2986,157,259,320,5
2025-06-27 16:59:08.608,-0.0742202550172805,-4.944026470184326,8.971074104309082,0.0781907513737678,0.140499010682106,-0.2052507251501083,-8272,-1673,2806,467,171,-329,5
2025-06-27 16:59:08.718,-0.0694318488240242,-4.28322696685791,7.857769966125488,0.2883284091949463,-0.0036651915870606,0.1185078546404838,-7936,-1531,3111,1083,-53,-593,5
2025-06-27 16:59:08.814,0.4285621047019958,-3.9408559799194336,9.136273384094238,0.2455678284168243,-0.0610865242779254,0.0305432621389627,-7896,-1967,2796,1073,192,-1362,5
2025-06-27 16:59:08.926,0.304063618183136,-4.129997730255127,8.829815864562988,0.0574213340878486,0.1356120854616165,-0.1869247704744339,-8036,-2374,2730,1165,557,-1654,5
2025-06-27 16:59:09.129,-0.3256114423274994,-4.16112232208252,8.382100105285645,-0.0256563406437635,0.1343903541564941,-0.2076941877603531,-8018,-2588,2737,918,513,-1290,5
2025-06-27 16:59:09.214,-0.0502782352268695,-4.20421838760376,8.789113998413086,0.0097738439217209,0.107512280344963,-0.1185078546404838,-7944,-2444,2726,1060,217,-1101,5
2025-06-27 16:59:09.443,-0.1053448766469955,-3.840299606323242,8.767566680908203,0.2724458873271942,0.0085521135479211,-0.1111774742603302,-7979,-2889,3145,769,-36,-330,5
2025-06-27 16:59:09.627,-0.5770025849342346,-3.308786630630493,9.452308654785156,0.1734857261180877,-0.0097738439217209,-0.0965167060494422,-7589,-2708,2951,417,124,-189,5
2025-06-27 16:59:10.110,-0.8355764150619507,-4.077325344085693,8.614337921142578,-0.3200933933258056,0.0952949747443199,-0.0684169083833694,-7612,-2693,3127,-647,319,109,5
2025-06-27 16:59:10.232,-0.5746083855628967,-5.652710437774658,8.537723541259766,-0.1881465017795562,0.1527163088321685,0.0610865242779254,-7564,-2965,2744,-737,50,-93,5
2025-06-27 16:59:10.336,-0.586579442024231,-4.754884719848633,9.119514465332031,-0.3213151097297668,0.1844813078641891,0.147829383611679,-7783,-2965,2736,-1139,39,23,5
2025-06-27 16:59:10.408,-0.646434485912323,-2.920926094055176,8.62630844116211,0.2076941877603531,0.0855211317539215,0.0415388382971286,-8025,-2921,2729,-1204,-338,209,5
2025-06-27 16:59:10.534,1.0606313943862915,-2.2242133617401123,6.083666324615479,0.0806342139840126,-0.608421802520752,0.1527163088321685,-7902,-2907,2791,-1876,-574,928,5
2025-06-27 16:59:11.020,-0.9624691009521484,-3.8283286094665527,9.311050415039062,0.7513642311096191,0.3090978264808655,0.0439822971820831,-7833,-2660,2938,545,939,-332,5
2025-06-27 16:59:11.138,-0.9624691009521484,-3.8283286094665527,9.311050415039062,0.7513642311096191,0.3090978264808655,0.0439822971820831,-7833,-2660,2938,545,939,-332,5
2025-06-27 16:59:11.534,-0.9672574996948242,-3.3063924312591557,9.402029991149902,0.0134390350431203,0.0891863256692886,0.2125810980796814,-7960,-2651,2726,1588,1073,-816,5
2025-06-27 16:59:11.718,-1.8531121015548704,-4.833893299102783,9.911994934082031,-0.8258898258209229,0.2577851414680481,0.0195476878434419,-7228,-3922,3422,-929,106,2456,5
2025-06-27 16:59:12.333,-1.2473790645599363,-4.501099109649658,7.228095054626465,0.4300491213798523,0.0574213340878486,-0.3628539443016052,-8143,-1843,1612,-1204,1057,170,5
2025-06-27 16:59:12.421,-2.427720546722412,-4.338293552398682,8.547300338745117,0.0757472887635231,-0.4239404797554016,-0.2052507251501083,-7599,-2223,1824,-530,-717,-1590,5
2025-06-27 16:59:12.531,-2.4468741416931152,-4.711789131164551,8.89445972442627,0.2357939779758453,-0.4153883755207062,0.1429424732923507,-7888,-2192,2317,770,-302,-2409,5
2025-06-27 16:59:12.622,-1.5969325304031372,-4.462791919708252,9.172186851501465,0.0928515195846557,-0.1050688251852989,0.2406809031963348,-8232,-2680,2035,301,147,-365,5
2025-06-27 16:59:12.708,-1.4532804489135742,-4.745307922363281,7.630321025848389,0.0623082555830478,-0.1514945775270462,0.1685988008975982,-8239,-2621,1957,-515,-615,534,5
2025-06-27 16:59:12.908,-1.5682021379470823,-3.6822822093963614,7.970297336578369,0.2455678284168243,-0.2089159190654754,0.3359758853912353,-7243,-2920,2431,1215,824,834,5
2025-06-27 16:59:13.016,-0.7805097699165344,-3.2824504375457764,8.822632789611816,0.6548475623130798,-0.3286454975605011,0.6475171446800232,-9485,-1299,1663,96,-44,-651,5
2025-06-27 16:59:13.109,-1.0103530883789062,-2.8179752826690674,8.954314231872559,0.0207694191485643,-0.117286130785942,0.1783726513385772,-7741,-2446,2564,-1083,-950,-265,5
2025-06-27 16:59:13.308,0.4812345504760742,-1.6519991159439087,10.038887977600098,0.0171042270958423,-0.130725160241127,0.0403171069920063,-8245,-2382,2461,-1708,-1931,246,5
2025-06-27 16:59:13.420,-0.2849099934101105,-2.4181437492370605,9.550470352172852,-0.1783726513385772,0.0122173046693205,-0.3249803185462951,-7586,-2302,3039,105,-1352,216,5
2025-06-27 16:59:13.529,0.4022258818149566,-2.846705913543701,9.792284965515137,0.0452040284872055,-0.2028072625398636,-0.1844813078641891,-8058,-2386,3339,517,-708,201,5
2025-06-27 16:59:13.736,-0.6105214357376099,-4.81473970413208,9.071630477905272,-0.5510004758834839,0.1417207419872284,-0.4373795092105865,-7627,-2634,3879,1415,-775,391,5
2025-06-27 16:59:13.810,0.2825157940387726,-1.781286120414734,8.094796180725098,0.598647952079773,0.0452040284872055,-0.4996877610683441,-7929,-2036,3909,2109,-513,-45,5
