Timestamp,Gyro_x_x,Gyro_y_x,Gyro_z_x,Acc_x_x,Acc_y_x,Acc_z_x,Gyro_x_y,Gyro_y_y,Gyro_z_y,Acc_x_y,Acc_y_y,Acc_z_y,combined_action_num
2024-06-14 18:16:03,-0.8979719281,0.1050688252,-0.1270599663,0.1197100878,-9.050082207,5.384559631,181.55172413793105,-146.09195402298852,-82.62068965517241,-8012.379310344828,-2797.620689655173,1694.5172413793102,1
2024-06-14 18:16:03,-0.8979719281,0.1050688252,-0.1270599663,0.1197100878,-9.050082207,5.384559631,-59.15555555555556,-278.1,-248.2,-7657.933333333333,-2955.5,1867.888888888889,1
2024-06-14 18:16:03,0.4923573732,-0.05864306539,-0.1221730486,0.1891419291,-8.923190117,5.978321552,-60.2906976744186,-35.18604651162791,-85.73255813953489,-7693.395348837209,-3087.7558139534885,1688.9767441860463,1
2024-06-14 18:16:04,1.014036298,-0.1148426682,-0.232128799,1.534683347,-5.61679697,6.895300865,48.18181818181819,29.181818181818187,470.2045454545455,-7948.045454545455,-2926.3863636363635,1774.659090909091,1
2024-06-14 18:16:04,1.014036298,-0.1148426682,-0.232128799,1.534683347,-5.61679697,6.895300865,-97.29473684210528,51.74736842105263,377.1578947368421,-7739.905263157894,-2780.3473684210526,1851.452631578948,1
2024-06-14 18:16:04,-0.2455678284,0.05619960278,0.2064724565,1.158793569,-6.344634533,6.631938934,453.1647058823529,6.470588235294116,-24.88235294117647,-8166.529411764706,-2513.894117647059,1870.5058823529407,1
2024-06-14 18:16:04,0.2296853364,0.06841690838,-0.1197295859,0.3878606856,-8.829815865,5.552153587,-29.25,-15.0,60.36363636363637,-7944.306818181818,-2872.829545454545,2090.204545454545,1
2024-06-14 18:16:04,0.2296853364,0.06841690838,-0.1197295859,0.3878606856,-8.829815865,5.552153587,56.11111111111112,15.0,-124.88888888888889,-7727.444444444444,-2536.333333333333,1676.111111111111,1
2024-06-14 18:16:04,-1.270599723,0.1404990107,0.05131268129,-0.08619125932,-9.600749016,4.951209068,-45.72413793103448,-30.172413793103445,8.620689655172413,-7797.137931034483,-2595.793103448276,1738.1379310344828,1
2024-06-14 18:16:04,-1.270599723,0.1404990107,0.05131268129,-0.08619125932,-9.600749016,4.951209068,148.69767441860466,-107.2093023255814,-496.90697674418607,-7961.6511627906975,-3001.3255813953488,2100.5813953488373,1
2024-06-14 18:16:04,-0.1295034289,0.1014036313,0.1942551434,-0.007182605099,-9.617507935,5.001487255,165.27272727272728,-110.8068181818182,70.14772727272728,-7709.215909090909,-2857.204545454545,1750.875,1
2024-06-14 18:16:04,0.4630358517,-0.05131268129,-0.1148426682,0.07900865376,-9.160215378,5.140350819,-53.266666666666666,50.44444444444444,-69.71111111111111,-7762.977777777778,-2884.6666666666665,1858.555555555556,1
2024-06-14 18:16:04,0.4630358517,-0.05131268129,-0.1148426682,0.07900865376,-9.160215378,5.140350819,-57.943820224719104,-2.213483146067404,101.3932584269663,-7797.573033707865,-3015.85393258427,2038.943820224719,1
2024-06-14 18:16:05,0.3078760803,-0.09162978828,-0.3579670191,0.2657563984,-8.865729332,5.710171223,478.741935483871,347.258064516129,275.48387096774195,-7720.516129032258,-2970.483870967742,2099.6774193548385,1
2024-06-14 18:16:05,0.8210029006,-0.145385921,-0.4178318381,0.8690952063,-7.625532627,6.730101109,227.9736842105264,501.6842105263158,238.9122807017544,-7918.026315789473,-2655.333333333333,1752.3070175438595,1
2024-06-14 18:16:05,-0.3518583775,-0.02565634064,-0.2443460971,0.6655880809,-7.91762495,5.726930618,42.252747252747255,59.53846153846154,-267.25274725274727,-7972.241758241758,-2491.78021978022,2055.318681318681,1
2024-06-14 18:16:05,-0.3518583775,-0.02565634064,-0.2443460971,0.6655880809,-7.91762495,5.726930618,-283.7011494252874,571.4827586206897,-333.14942528735634,-7376.218390804598,-2919.758620689656,1732.9540229885058,1
2024-06-14 18:16:05,0.2565633953,0.07696902007,0.2113593817,0.4548983276,-7.599195957,6.560112476,41.36263736263736,1001.032967032967,-317.3296703296703,-7932.252747252747,-2736.989010989011,1850.34065934066,1
2024-06-14 18:16:05,-0.1197295859,0.08552113175,0.2956587672,0.01197100803,-8.930372238,5.717353821,-142.36363636363637,242.63636363636363,179.36363636363637,-8230.727272727272,-2633.5454545454545,1456.5454545454545,1
2024-06-14 18:16:05,-0.1197295859,0.08552113175,0.2956587672,0.01197100803,-8.930372238,5.717353821,-201.15217391304347,-80.03260869565217,301.05434782608694,-7846.891304347826,-2508.532608695652,1646.108695652174,1
2024-06-14 18:16:05,-0.4667010605,0.1148426682,0.2419026345,0.323217243,-8.365341187,5.820304394,-45.89887640449438,36.34831460674157,25.471910112359552,-7977.685393258427,-2613.988764044944,1554.9662921348315,1
2024-06-14 18:16:05,-0.7086036801,0.09773843735,0.2186897546,-0.07422025502,-8.762778282,5.743690014,64.35714285714286,-56.285714285714285,82.85714285714286,-7992.928571428572,-2359.928571428572,1651.7857142857142,1
2024-06-14 18:16:06,-0.7086036801,0.09773843735,0.2186897546,-0.07422025502,-8.762778282,5.743690014,58.29545454545455,398.0340909090909,-172.0,-7791.363636363636,-2287.443181818182,1458.4545454545455,1
2024-06-14 18:16:06,-0.2687807083,0.06963863969,-0.03787364438,-0.0287304204,-8.868123055,5.331887245,-981.1333333333332,1533.4555555555555,-703.8777777777777,-7491.544444444445,-2822.7,1569.888888888889,1
2024-06-14 18:16:06,-0.2687807083,0.06963863969,-0.03787364438,-0.0287304204,-8.868123055,5.331887245,-1201.584269662921,3572.4044943820227,-421.6067415730337,-7699.853932584269,-3008.38202247191,19.775280898876403,1
2024-06-14 18:16:06,-0.0354301855,-0.07086037099,-0.2748893499,0.1891419291,-9.016563416,5.506663799,-774.1636363636363,1969.172727272728,-31.57272727272727,-8372.736363636364,-2742.0636363636363,-806.6818181818181,1
2024-06-14 18:16:06,0.003665191587,-0.109955743,-0.3176499307,0.1436520964,-9.244012833,5.628767967,-567.046875,1346.390625,305.671875,-8255.453125,-2885.53125,-731.765625,1
2024-06-14 18:16:06,0.003665191587,-0.109955743,-0.3176499307,0.1436520964,-9.244012833,5.628767967,-1171.625,918.125,236.625,-7344.0,-2638.9375,-579.25,1
2024-06-14 18:16:06,0.4386012554,-0.1954768747,-0.4923573732,1.120486379,-7.000645638,6.387730122,-972.8214285714286,1363.9642857142858,10.142857142857146,-7588.857142857143,-2839.75,-1053.5,1
2024-06-14 18:16:06,-0.6805039048,-0.03665191308,-0.03054326214,0.6033388376,-7.671022415,6.643909931,-560.9896907216495,1096.8041237113405,-111.88659793814432,-7768.886597938144,-2667.3917525773195,-1614.3298969072166,1
2024-06-14 18:16:06,-0.6805039048,-0.03665191308,-0.03054326214,0.6033388376,-7.671022415,6.643909931,-554.0,1060.111111111111,-269.1111111111111,-7924.111111111111,-2770.4444444444443,-1762.888888888889,1
2024-06-14 18:16:06,5.294980049,0.00244346098,1.359786034,2.849100113,-7.776367188,0.8906430602,-299.7752808988764,549.8089887640449,-315.1011235955056,-7570.943820224719,-2861.0,-1719.5505617977528,1
2024-06-14 18:16:07,5.294980049,0.00244346098,1.359786034,2.849100113,-7.776367188,0.8906430602,262.5730337078652,765.5056179775281,-417.43820224719104,-7367.494382022472,-2943.078651685393,-1718.202247191011,1
2024-06-14 18:16:07,0.2406809032,0.02443460934,0.1466076523,-0.2370259613,-8.676587105,6.234501362,6011.775280898876,32511.0,-32768.0,-1232.7865168539329,-2206.6404494382023,-2609.955056179775,1
2024-06-14 18:16:07,0.5619960427,-0.01832595654,-0.02076941915,1.108515382,-6.572083473,6.842628479,10694.85393258427,32511.0,-32768.0,-1385.0,-1497.7191011235957,-2101.213483146068,1
2024-06-14 18:16:07,0.5619960427,-0.01832595654,-0.02076941915,1.108515382,-6.572083473,6.842628479,-32768.0,-15017.545454545454,-14241.5,-1704.090909090909,7141.5,6529.545454545455,1
2024-06-14 18:16:07,0.05864306539,0.07819075137,0.06475171447,0.9504981041,-7.369352818,6.598419666,32511.0,32511.0,-32768.0,2051.633333333333,-15986.066666666666,-32768.0,1
2024-06-14 18:16:07,-0.381179899,0.08307767659,0.01221730467,0.3878606856,-8.803479195,5.446808815,32511.0,32511.0,-32768.0,-14103.272727272728,-6066.454545454544,-32028.36363636364,1
2024-06-14 18:16:07,-0.381179899,0.08307767659,0.01221730467,0.3878606856,-8.803479195,5.446808815,32511.0,32511.0,-32768.0,-9537.666666666666,367.0,-17942.666666666664,1
2024-06-14 18:16:07,-0.0109955743,-0.08063421398,-0.228463605,0.8643068075,-8.74601841,5.310339451,32511.0,32511.0,-32768.0,-4758.785714285715,-8355.07142857143,-14033.42857142857,1
2024-06-14 18:16:07,-0.0109955743,-0.08063421398,-0.228463605,0.8643068075,-8.74601841,5.310339451,-17306.670329670327,32511.0,25337.48351648352,-10402.241758241758,-20687.043956043955,-21953.69230769231,1
2024-06-14 18:16:07,0.09285151958,0.006108652335,-0.03298672289,1.230619669,-6.411672115,6.567295074,-30743.869565217392,32511.0,32511.0,-16384.869565217392,-24062.739130434784,-30650.17391304348,1
2024-06-14 18:16:08,-0.5864306092,0.09896016866,0.299323976,0.6392518282,-8.279149055,5.829881191,-31185.425,32511.0,32511.0,-32768.0,-7153.4,-32493.75,1
2024-06-14 18:16:08,-0.5864306092,0.09896016866,0.299323976,0.6392518282,-8.279149055,5.829881191,-32768.0,32511.0,32511.0,-32768.0,-18290.977528089887,-29658.112359550563,1
2024-06-14 18:16:08,-3.326772213,-0.1478293836,-0.4996877611,-0.7517793179,-10.83615685,3.05021286,-32768.0,32511.0,32511.0,-30934.127659574468,-11386.787234042553,-15567.574468085106,1
2024-06-14 18:16:08,0.6780604124,0.1954768747,0.5778785348,-0.1340752989,-8.166622162,5.940014362,-32768.0,30462.62650602409,17041.43373493976,-10180.843373493975,-3462.349397590361,-3394.156626506024,1
2024-06-14 18:16:08,0.6780604124,0.1954768747,0.5778785348,-0.1340752989,-8.166622162,5.940014362,-32768.0,27752.295454545456,121.07954545454596,-1561.068181818182,505.159090909091,-2901.75,1
2024-06-14 18:16:08,-1.185078621,0.008552113548,0.1209513173,0.7493851185,-8.152256966,5.884947777,25228.3595505618,-14448.426966292136,10656.16853932584,-8727.876404494382,-1785.6516853932585,380.4719101123597,1
2024-06-14 18:16:08,-1.185078621,0.008552113548,0.1209513173,0.7493851185,-8.152256966,5.884947777,-32768.0,-32768.0,-4918.068181818182,1785.6818181818182,-1159.7727272727273,-2988.329545454545,1
2024-06-14 18:16:08,-0.3921754956,-0.0109955743,-0.02809980139,0.1939303428,-9.411606789,4.855441093,-13226.850574712644,-32768.0,-384.33333333333337,-2191.4137931034484,-3068.9655172413795,-1697.2758620689656,1
2024-06-14 18:16:08,0.5852088928,-0.007330383174,-0.09773843735,0.7517793179,-7.711723804,6.054935932,31551.021978021978,9415.010989010989,218.28571428571428,6721.582417582417,1089.637362637363,3183.010989010989,1
2024-06-14 18:16:08,0.5852088928,-0.007330383174,-0.09773843735,0.7517793179,-7.711723804,6.054935932,5976.181818181818,31838.61363636364,230.1136363636364,-4320.045454545455,-4220.272727272727,5624.431818181818,1
2024-06-14 18:16:09,-0.03665191308,0.03176499158,0.05497787148,0.5889736414,-8.719682693,5.83466959,6613.25,18289.3125,223.25,-7316.5625,-391.125,3829.4375,1
2024-06-14 18:16:09,0.1991420686,-0.07819075137,-0.1942551434,0.7972691655,-8.391676903,5.705382824,-2631.938461538461,-572.876923076923,224.6769230769231,-7990.107692307693,1165.215384615385,2588.846153846154,1
2024-06-14 18:16:09,0.1991420686,-0.07819075137,-0.1942551434,0.7972691655,-8.391676903,5.705382824,-2654.950819672132,1560.5409836065571,221.7704918032787,-8021.459016393443,-432.9016393442623,2300.7704918032787,1
2024-06-14 18:16:09,0.676838696,-0.1404990107,-0.3188716471,0.6775590777,-8.980650902,5.358223438,-1615.625,1060.3125,221.875,-7940.9375,-1752.875,1754.3125,1
2024-06-14 18:16:09,0.676838696,-0.1404990107,-0.3188716471,0.6775590777,-8.980650902,5.358223438,-1176.075,624.35,222.3375,-7188.9875,-4360.125,1468.1375,1
2024-06-14 18:16:09,0.3921754956,-0.1038470939,-0.4117231667,0.8140285611,-8.408436775,5.640739441,-843.0,381.8666666666667,-1591.6444444444444,-6830.0888888888885,-4791.488888888889,1393.2666666666669,1
2024-06-14 18:16:09,0.3726277947,-0.06597344577,-0.232128799,1.333570361,-7.596801758,6.325480938,-450.0232558139535,49.11627906976744,-6301.604651162791,-5596.302325581395,-6186.441860465116,1034.2093023255811,1
2024-06-14 18:16:09,-3.480710268,0.2883284092,-1.061683774,0.2442085743,-8.197746277,5.789179802,4920.056179775281,1126.2134831460671,-3508.14606741573,-1378.741573033708,-7849.7191011235955,1623.561797752809,1
2024-06-14 18:16:09,0.9566149712,0.976162672,0.3005456924,0.06943184882,-11.04684639,7.189787865,772.8651685393261,386.8876404494382,-3765.449438202247,-1165.8202247191011,-7885.67415730337,1901.6516853932585,1
2024-06-14 18:16:10,0.9566149712,0.976162672,0.3005456924,0.06943184882,-11.04684639,7.189787865,130.78481012658227,27.544303797468352,-527.6582278481013,-1356.1518987341772,-8001.025316455696,1156.4430379746836,1
2024-06-14 18:16:10,-0.4153883755,-0.05497787148,-0.1160643995,1.436521053,-5.889736176,6.698976517,-295.7692307692308,115.46153846153848,-77.38461538461539,-1333.2307692307693,-8244.923076923076,1357.3846153846157,1
2024-06-14 18:16:10,-0.4153883755,-0.05497787148,-0.1160643995,1.436521053,-5.889736176,6.698976517,16.08235294117647,102.43529411764706,61.48235294117647,-1339.2588235294118,-8237.129411764707,1371.6117647058825,1
2024-06-14 18:16:10,0.5057964325,-0.0171042271,-0.1392772794,1.297657371,-8.461109161,4.94642067,16.304347826086957,104.67391304347828,63.02173913043478,-1342.0434782608695,-8238.347826086956,1364.2391304347825,1
2024-06-14 18:16:10,-0.2577851415,0.1307251602,0.1673770845,0.6991068721,-7.467514992,6.124367714,17.586206896551722,103.79310344827586,67.0,-1344.551724137931,-8235.206896551725,1359.6896551724135,1
2024-06-14 18:16:10,-0.2577851415,0.1307251602,0.1673770845,0.6991068721,-7.467514992,6.124367714,17.0,104.0,63.575268817204304,-1341.8763440860216,-8231.725806451614,1364.1236559139784,1
2024-06-14 18:16:10,0.2260201424,0.05742133409,-0.1001819,1.414973259,-4.180276394,7.192182064,17.0,104.0,63.03763440860215,-1339.1881720430108,-8230.112903225807,1366.8118279569892,1
2024-06-14 18:16:10,-0.5338962078,0.02199114859,-0.1942551434,0.691924274,-9.354146004,4.953603268,19.56179775280899,104.41573033707866,64.0,-1334.314606741573,-8232.730337078652,1359.415730337079,1
2024-06-14 18:16:10,-0.5338962078,0.02199114859,-0.1942551434,0.691924274,-9.354146004,4.953603268,17.51063829787234,101.76595744680851,64.51063829787235,-1343.787234042553,-8236.234042553191,1356.7659574468084,1
2024-06-14 18:16:10,0.3738495409,-0.0720821023,-0.3958406746,0.8834604025,-8.722076416,5.449203014,19.337078651685392,104.3370786516854,66.0,-1348.3258426966293,-8232.988764044943,1359.6741573033707,1
2024-06-14 18:16:11,0.3738495409,-0.0720821023,-0.3958406746,0.8834604025,-8.722076416,5.449203014,19.057471264367816,104.05747126436782,65.05747126436782,-1345.1149425287356,-8231.942528735632,1358.1724137931035,1
2024-06-14 18:16:11,-0.389732033,-0.03298672289,-0.09896016866,0.8810662031,-8.185775757,5.887341976,18.580645161290324,102.41935483870968,64.58064516129032,-1342.4193548387098,-8233.0,1356.741935483871,1
2024-06-14 18:16:11,-3.334102392,-1.033583999,0.2431243658,-0.8690952063,-10.57758331,3.555389643,16.862745098039216,103.70588235294116,65.0,-1343.5686274509803,-8233.274509803921,1361.686274509804,1
2024-06-14 18:16:11,-3.334102392,-1.033583999,0.2431243658,-0.8690952063,-10.57758331,3.555389643,16.756756756756758,105.0,65.0,-1341.7297297297298,-8236.513513513513,1362.2162162162165,1
2024-06-14 18:16:11,0.4984660447,0.02443460934,0.4361577928,0.349553436,-9.907206535,5.693411827,14.235955056179776,103.15730337078652,65.92134831460675,-1339.1573033707866,-8234.23595505618,1367.4494382022472,1
2024-06-14 18:16:11,0.1160643995,-0.06108652428,0.02199114859,0.9864110947,-6.797138691,6.701370716,15.008620689655173,103.02586206896552,64.99137931034483,-1339.0431034482758,-8235.034482758621,1360.0689655172414,1
2024-06-14 18:16:11,0.1160643995,-0.06108652428,0.02199114859,0.9864110947,-6.797138691,6.701370716,16.0,105.8695652173913,64.1304347826087,-1343.3478260869565,-8238.739130434782,1367.4782608695652,1
2024-06-14 18:16:11,-0.9138544202,0.09651670605,-0.01466076635,0.04070143029,-9.797073364,4.996698856,18.48351648351648,102.51648351648352,64.24175824175825,-1338.0,-8227.725274725275,1365.7252747252746,1
2024-06-14 18:16:11,-0.9138544202,0.09651670605,-0.01466076635,0.04070143029,-9.797073364,4.996698856,18.721649484536083,101.63917525773196,65.0,-1339.9175257731958,-8229.680412371134,1367.041237113402,1
2024-06-14 18:16:11,-0.9395107627,-0.04031710699,0.1747074574,0.2753331959,-8.482656479,5.506663799,16.0,102.58536585365852,63.75609756097561,-1343.1707317073171,-8229.0,1366.2439024390244,1
2024-06-14 18:16:12,-0.3298672438,0.09773843735,0.3029891551,0.383072257,-7.340622425,6.16506958,16.0,103.15555555555557,62.577777777777776,-1343.1555555555556,-8233.622222222222,1368.5777777777778,1
2024-06-14 18:16:12,-0.3298672438,0.09773843735,0.3029891551,0.383072257,-7.340622425,6.16506958,15.326086956521738,101.97826086956522,64.34782608695652,-1341.9782608695652,-8234.978260869566,1364.2826086956522,1
2024-06-14 18:16:12,-0.09896016866,0.1685988009,0.471587956,0.1604115069,-7.979874134,6.021417141,15.795454545454543,103.38636363636364,65.0,-1337.8181818181818,-8235.59090909091,1364.3863636363635,1
2024-06-14 18:16:12,-0.2651155293,0.1734857261,0.2773328125,0.6033388376,-7.515398979,6.196194172,14.177777777777775,106.73333333333332,65.0,-1332.4444444444443,-8234.177777777777,1366.8222222222223,1
2024-06-14 18:16:12,-0.2651155293,0.1734857261,0.2773328125,0.6033388376,-7.515398979,6.196194172,16.958333333333332,103.9375,64.97916666666667,-1332.125,-8237.8125,1364.0416666666667,1
2024-06-14 18:16:12,0.08552113175,0.01954768784,0.0720821023,1.134851575,-7.134721279,6.390124321,14.93142857142857,101.06857142857145,64.06857142857143,-1338.0685714285714,-8229.137142857142,1365.7257142857145,1
2024-06-14 18:16:12,-0.2003637999,0.02443460934,-0.07086037099,1.319205165,-6.177040577,6.141127586,16.48936170212766,101.48936170212764,65.0,-1338.2553191489362,-8234.978723404256,1358.212765957447,1
2024-06-14 18:16:12,-0.2003637999,0.02443460934,-0.07086037099,1.319205165,-6.177040577,6.141127586,15.348837209302326,100.0,65.34883720930233,-1337.953488372093,-8233.744186046511,1355.4418604651162,1
2024-06-14 18:16:12,0.7953465581,0.02809980139,-0.2981022298,0.8044517636,-8.027758598,5.762843609,15.636363636363637,101.0909090909091,65.27272727272727,-1337.090909090909,-8236.636363636364,1362.909090909091,1
2024-06-14 18:16:12,0.7953465581,0.02809980139,-0.2981022298,0.8044517636,-8.027758598,5.762843609,15.71875,102.640625,64.359375,-1339.71875,-8233.84375,1365.125,1
2024-06-14 18:16:13,-0.1185078546,0.07819075137,0.06230825558,0.2466027737,-8.212111473,5.889736176,18.678571428571427,104.67857142857144,64.32142857142857,-1342.678571428571,-8230.964285714286,1358.5357142857142,1
2024-06-14 18:16:13,-0.05619960278,-0.0171042271,-0.08674286306,0.8499416113,-9.651026726,4.888959885,17.395604395604394,101.7912087912088,63.1978021978022,-1343.0,-8230.802197802197,1364.8021978021975,1
2024-06-14 18:16:13,-0.05619960278,-0.0171042271,-0.08674286306,0.8499416113,-9.651026726,4.888959885,17.0,103.19642857142856,63.73214285714285,-1344.4642857142858,-8228.07142857143,1369.392857142857,1
2024-06-14 18:16:13,0.8246681094,-0.1038470939,-0.3799581826,1.244984865,-7.635109425,6.4715271,15.088888888888889,102.08888888888887,65.02222222222223,-1344.0,-8229.177777777777,1376.5111111111112,1
2024-06-14 18:16:13,0.8246681094,-0.1038470939,-0.3799581826,1.244984865,-7.635109425,6.4715271,19.0,105.59550561797752,65.59550561797752,-1344.0,-8237.269662921348,1356.752808988764,1
2024-06-14 18:16:13,0.1466076523,0.0,-0.06230825558,1.304839969,-7.496245384,6.473921299,18.25,103.25,63.0,-1342.75,-8238.0,1366.25,1
2024-06-14 18:16:13,-0.3628539443,0.08185594529,0.2443460971,0.9696516991,-7.232883453,6.495469093,16.0,105.04494382022472,63.69662921348315,-1340.741573033708,-8233.606741573034,1363.0898876404494,1
2024-06-14 18:16:13,-0.3628539443,0.08185594529,0.2443460971,0.9696516991,-7.232883453,6.495469093,16.466666666666665,105.6,65.46666666666667,-1344.0,-8230.066666666668,1365.6,1
2024-06-14 18:16:13,-0.2211332172,0.05375614017,-0.1368338168,0.6392518282,-7.898471355,6.107608318,18.155555555555555,105.15555555555557,64.84444444444445,-1342.8444444444444,-8232.466666666667,1364.0,1
2024-06-14 18:16:13,-0.3518583775,0.06230825558,0.05375614017,0.2705447972,-9.545681953,5.425261021,-640.9555555555555,320.93333333333334,-591.1333333333333,-4127.177777777778,-7470.333333333333,4423.355555555556,1
2024-06-14 18:16:14,-0.3518583775,0.06230825558,0.05375614017,0.2705447972,-9.545681953,5.425261021,58.60824742268039,-2068.59793814433,-417.8865979381444,-1760.505154639175,-8120.381443298969,1431.5567010309278,1
2024-06-14 18:16:14,0.2919935882,-0.0109955743,0.07941248268,0.7900865674,-7.644686222,6.150704384,-1138.3734939759036,-17369.951807228914,3509.4578313253014,573.301204819277,-8114.493975903614,-1385.4939759036145,1
2024-06-14 18:16:14,0.2919935882,-0.0109955743,0.07941248268,0.7900865674,-7.644686222,6.150704384,10981.131868131868,28835.197802197803,-8362.373626373626,505.3516483516484,-8486.054945054944,-477.8131868131868,1
2024-06-14 18:16:14,-1.952325344,0.03665191308,0.444709897,0.6009446383,-9.200917244,4.644751072,19383.227272727272,-9910.977272727272,-4120.204545454546,5035.636363636364,-4724.068181818182,5219.795454545455,1
2024-06-14 18:16:14,-0.8796459436,-0.5412266254,-0.007330383174,1.065419793,-8.82263279,4.261679173,2806.59649122807,-15715.38596491228,13325.280701754386,3195.929824561404,-7328.578947368421,6905.61403508772,1
2024-06-14 18:16:14,-0.8796459436,-0.5412266254,-0.007330383174,1.065419793,-8.82263279,4.261679173,-997.2727272727273,-24244.21212121212,20905.727272727272,4025.515151515152,-9193.90909090909,7526.787878787879,1
2024-06-14 18:16:14,-1.459967971,-0.1710422635,-0.2333505303,-1.467645645,-13.01488018,3.921702385,-1151.510638297872,-1009.4042553191484,7461.680851063829,-15.0,-10175.702127659575,5567.170212765957,1
2024-06-14 18:16:14,0.9431759119,0.2052507252,-0.5803219676,2.669534922,-13.05318737,3.998316765,2460.674418604651,6897.441860465116,146.02325581395417,-3817.6511627906975,-8790.558139534884,3616.6744186046512,1
2024-06-14 18:16:14,0.9431759119,0.2052507252,-0.5803219676,2.669534922,-13.05318737,3.998316765,-2453.593220338983,866.8813559322034,-14153.050847457627,-3909.983050847458,-8644.93220338983,903.0338983050848,1
2024-06-14 18:16:14,0.4373795092,0.07330382615,-0.1295034289,0.174776718,-6.35660553,6.861782074,909.8805970149252,-580.8059701492537,-15337.16417910448,372.4626865671644,-5000.2835820895525,-348.3731343283582,1
2024-06-14 18:16:15,0.4373795092,0.07330382615,-0.1295034289,0.14844051,-8.643068314,5.559336185,-4097.476744186047,-155.93023255813955,-12511.151162790698,5017.372093023256,3028.3488372093025,2020.1511627906973,1
2024-06-14 18:16:15,-0.5045747161,0.04398229718,0.09285151958,0.1508347094,-8.975862503,4.94642067,-4402.326086956522,-4727.54347826087,1704.8695652173913,6222.54347826087,3593.9565217391305,1751.2391304347825,1
2024-06-14 18:16:15,-0.5045747161,0.04398229718,0.09285151958,0.1508347094,-8.975862503,4.94642067,-5888.415730337079,-5351.011235955056,5857.483146067416,6677.898876404494,3438.438202247191,2143.5393258426966,1
2024-06-14 18:16:15,0.03054326214,0.01832595654,-0.01466076635,0.3327940404,-8.640673637,5.092466831,-5769.43956043956,-8098.175824175824,3600.945054945055,7293.582417582417,3068.692307692308,2374.8901098901097,1
2024-06-14 18:16:15,0.08674286306,0.04886921868,-0.0293215327,0.3351882398,-8.681375504,5.087678432,-1292.6923076923076,-8360.153846153846,-2296.0,7283.538461538462,2038.2307692307693,1052.8461538461538,1
2024-06-14 18:16:15,0.08674286306,0.04886921868,-0.0293215327,0.3351882398,-8.681375504,5.087678432,5819.936170212766,-7502.585106382979,-12712.95744680851,7231.276595744681,3507.744680851064,-561.8723404255319,1
2024-06-14 18:16:15,-0.03665191308,0.02076941915,0.04886921868,0.3088520169,-8.408436775,5.386953831,7654.418604651163,-17735.558139534885,-17391.95348837209,941.9767441860467,4209.697674418605,-4536.767441860466,1
2024-06-14 18:16:15,-0.03665191308,0.02076941915,0.04886921868,0.3088520169,-8.408436775,5.386953831,6928.444444444444,-13796.555555555557,-8518.222222222223,-4798.888888888889,305.3333333333335,278.3333333333335,1
2024-06-14 18:16:15,-0.02809980139,0.01588249579,0.02565634064,0.2896983922,-8.408436775,5.406107426,5625.471264367816,-2294.977011494253,-4554.574712643678,-6811.609195402299,-213.1034482758621,14.816091954023022,1
2024-06-14 18:16:16,-0.006108652335,0.0109955743,-0.00122173049,0.2849099934,-8.614337921,5.257667065,2173.3298969072166,-439.4536082474226,-2581.6288659793818,-7117.587628865979,402.30927835051546,-138.63917525773195,1
2024-06-14 18:16:16,-0.006108652335,0.0109955743,-0.00122173049,0.2849099934,-8.614337921,5.257667065,-808.3333333333335,61.0,-134.8888888888887,-8378.444444444445,144.44444444444446,-33.33333333333333,1
2024-06-14 18:16:16,-0.1026253626,-0.00244346098,-0.08307767659,0.3806780577,-8.525752068,5.19781208,-6935.611764705883,-2309.470588235294,612.6941176470589,-8202.564705882352,1200.6117647058825,-1082.5647058823529,1
2024-06-14 18:16:16,-0.1429424733,0.02199114859,0.04642575979,0.2992752194,-8.61912632,5.286397457,-1444.1222222222225,-2362.088888888889,-639.9222222222222,-8087.166666666667,273.27777777777777,671.7777777777778,1
2024-06-14 18:16:16,-0.1429424733,0.02199114859,0.04642575979,0.2992752194,-8.61912632,5.286397457,-341.0,-1963.3333333333333,-1568.0,-8084.333333333333,364.0,1058.6666666666667,1
2024-06-14 18:16:16,-0.1490511149,0.0171042271,-0.003665191587,0.3303998411,-8.877699852,4.857835293,-852.0,-1444.0,-2373.0,-7773.0,486.3333333333333,936.6666666666666,1
2024-06-14 18:16:16,0.04520402849,0.009773843922,0.008552113548,0.3399766386,-8.829815865,4.819528103,-2296.24,-1851.68,-4293.4,-8500.52,-433.0,1142.8,1
2024-06-14 18:16:16,0.04520402849,0.009773843922,0.008552113548,0.3399766386,-8.829815865,4.819528103,824.7441860465115,-728.5813953488373,-2119.488372093024,-8680.232558139534,-375.6976744186046,941.4186046511628,1
2024-06-14 18:16:16,0.0171042271,-0.007330383174,0.0415388383,0.4165911078,-9.011775017,4.920084476,-1416.423076923077,993.8846153846156,1703.1153846153848,-8664.192307692309,-65.76923076923077,602.5769230769231,1
2024-06-14 18:16:16,0.0171042271,-0.007330383174,0.0415388383,0.4165911078,-9.011775017,4.920084476,-719.0408163265306,-944.7142857142858,-1723.591836734694,-8727.214285714286,353.3673469387755,250.3673469387755,1
2024-06-14 18:16:17,0.2590068579,0.02565634064,-0.02199114859,0.2250549644,-8.698134422,5.027823448,-1854.4565217391305,2408.9891304347825,3701.597826086957,-8771.16304347826,-713.8260869565217,655.1521739130435,1
2024-06-14 18:16:17,0.632856369,0.01832595654,-0.008552113548,0.4955997467,-8.408436775,5.413290024,-3510.4333333333334,3140.6,4968.233333333334,-8242.933333333332,1663.7333333333331,-3.6999999999999993,1
2024-06-14 18:16:17,0.632856369,0.01832595654,-0.008552113548,0.4955997467,-8.408436775,5.413290024,-6018.522222222222,3796.0222222222224,5707.611111111111,-8357.555555555555,1861.0777777777776,56.23333333333332,1
2024-06-14 18:16:17,-0.1930334121,-0.03420845419,-0.02687807009,0.4740519226,-8.008605003,5.762843609,-5647.880434782609,1562.4021739130435,5824.695652173913,-8311.782608695652,2058.3804347826085,144.67391304347825,1
2024-06-14 18:16:17,-0.1930334121,-0.03420845419,-0.02687807009,0.4740519226,-8.008605003,5.762843609,221.95454545454504,-1241.6022727272723,1190.261363636364,-8174.465909090909,2076.8863636363635,-90.52272727272728,1
2024-06-14 18:16:17,0.5143485069,-0.0232128799,-0.1563815027,0.6751648784,-7.999027729,5.932831764,1131.3666666666668,-2721.9222222222224,-2134.5222222222224,-8401.544444444444,1471.111111111111,658.7333333333333,1
2024-06-14 18:16:17,-0.3017674387,-0.02199114859,-0.1050688252,0.3303998411,-8.090007782,6.296750546,639.6421052631579,-1603.1368421052632,-452.8842105263159,-8211.168421052631,1346.6105263157897,1026.505263157895,1
2024-06-14 18:16:17,-0.3017674387,-0.02199114859,-0.1050688252,0.3303998411,-8.090007782,6.296750546,755.1782945736434,-1155.4573643410852,-41.02325581395348,-8219.186046511628,1525.8294573643411,969.4418604651164,1
2024-06-14 18:16:17,0.1172861308,-0.02687807009,-0.1673770845,0.6368576288,-8.331821442,5.698200226,-2309.190476190476,3727.285714285714,579.1428571428571,-8464.47619047619,493.8571428571428,807.4761904761905,1
2024-06-14 18:16:18,0.1172861308,-0.02687807009,-0.1673770845,0.6368576288,-8.331821442,5.698200226,-2992.1052631578946,2286.578947368421,3267.6315789473683,-8276.526315789473,695.2105263157895,186.1052631578948,1
2024-06-14 18:16:18,-1.02991879,0.04764748737,0.161268428,0.538695395,-8.796297073,5.439626217,-1032.7941176470588,-191.02941176470583,3654.852941176471,-7713.5,1842.9117647058824,-130.70588235294116,1
2024-06-14 18:16:18,-0.5033529401,-0.03420845419,0.0720821023,0.3687070608,-9.385271072,5.166687489,2752.5333333333333,-2208.2,-1526.2,-8256.466666666667,1992.0666666666664,62.333333333333336,1
2024-06-14 18:16:18,-0.5033529401,-0.03420845419,0.0720821023,0.3687070608,-9.385271072,5.166687489,1017.979381443299,-1707.5567010309278,-859.2061855670103,-8197.288659793814,1619.2886597938143,317.5773195876289,1
2024-06-14 18:16:18,-0.1148426682,0.0,-0.1857030392,0.4357447028,-9.337387085,5.049371243,61.63855421686747,-653.7590361445783,-213.63855421686748,-8222.987951807228,1533.0,604.3373493975904,1
2024-06-14 18:16:18,-0.1148426682,0.0,-0.1857030392,0.4357447028,-9.337387085,5.049371243,93.6,-286.0,-458.4,-8267.2,1764.2,490.4,1
2024-06-14 18:16:18,0.1172861308,0.02687807009,-0.09285151958,0.4668693244,-8.846575737,5.528211594,-512.0869565217391,77.13043478260869,-188.19565217391303,-8296.08695652174,1549.2608695652175,500.4565217391304,1
2024-06-14 18:16:18,-0.5668829679,0.006108652335,-0.0232128799,0.3256114423,-9.13866806,5.257667065,332.27777777777777,18.55555555555556,-794.5777777777778,-8155.166666666667,1611.0444444444445,465.1222222222222,1
2024-06-14 18:16:18,-0.5668829679,0.006108652335,-0.0232128799,0.3256114423,-9.13866806,5.257667065,-737.5,-181.625,-672.25,-8482.875,1234.625,875.625,1
2024-06-14 18:16:18,0.009773843922,0.0354301855,0.07330382615,0.5195417404,-8.267178535,6.236895561,3464.857142857143,-1764.4615384615386,-2787.3076923076924,-8314.197802197803,1090.2857142857142,1517.6593406593406,1
2024-06-14 18:16:19,0.4214970171,-0.04764748737,-0.338419348,1.11569798,-7.417236805,6.02620554,7065.452631578947,627.8526315789475,-825.6105263157895,-8344.547368421052,363.28421052631575,2571.2736842105264,1
2024-06-14 18:16:19,0.4214970171,-0.04764748737,-0.338419348,1.11569798,-7.417236805,6.02620554,489.38823529411775,5834.752941176471,-90.58823529411757,-7460.105882352941,-754.8,1442.3647058823528,1
2024-06-14 18:16:19,-0.3457497358,0.06841690838,-0.08918632567,0.9481038451,-7.046135426,6.157886982,-3839.913043478261,7189.0,2369.260869565217,-7663.782608695652,2396.304347826087,-2234.608695652174,1
2024-06-14 18:16:19,-0.3457497358,0.06841690838,-0.08918632567,0.9481038451,-7.046135426,6.157886982,-1959.0,2306.0,-643.0,-7617.5,3202.0,-3992.0,1
2024-06-14 18:16:19,0.08552113175,0.05619960278,0.1160643995,0.9504981041,-7.726089001,5.983109951,-524.280701754386,-1945.245614035088,-4465.9473684210525,-8025.649122807017,401.9824561403509,-1998.491228070176,1
2024-06-14 18:16:19,0.4349360466,0.1111774743,0.2040289938,0.6871358752,-8.063671112,5.889736176,1543.663043478261,-2383.282608695652,-652.489130434783,-8177.467391304348,-72.45652173913044,-767.75,1
2024-06-14 18:16:19,0.4349360466,0.1111774743,0.2040289938,0.6871358752,-8.063671112,5.889736176,1497.264,-1874.456,204.736,-8300.856,-545.04,302.8,1
2024-06-14 18:16:19,-0.8344419003,0.006108652335,-0.1136209369,0.7948749661,-8.35097599,5.597643375,6.064000000000078,10.344000000000053,195.936,-8296.056,-13.039999999999964,62.80000000000001,1
2024-06-14 18:16:19,0.5656611919,-0.04031710699,-0.1551597714,0.787692368,-8.930372238,5.640739441,102.04878048780488,573.7560975609756,-114.7560975609756,-8348.707317073171,470.0,-1337.7073170731708,1
2024-06-14 18:16:19,0.5656611919,-0.04031710699,-0.1551597714,0.787692368,-8.930372238,5.640739441,256.6263736263736,-166.54945054945054,64.53846153846155,-8414.175824175823,199.03296703296704,-1030.0879120879122,1
2024-06-14 18:16:20,0.5876523852,0.07941248268,0.00244346098,1.079784989,-6.715735912,6.603208065,163.0326086956522,-122.92391304347824,-6.260869565217391,-8212.967391304348,224.1521739130435,-850.7608695652174,1
2024-06-14 18:16:20,0.5876523852,0.07941248268,0.00244346098,1.079784989,-6.715735912,6.603208065,150.48863636363637,208.92045454545453,-185.13636363636363,-8132.465909090909,273.2954545454545,-744.3409090909091,1
2024-06-14 18:16:20,1.000597239,0.02443460934,-0.02809980139,1.323993564,-6.030993938,6.943184853,-198.7865168539326,314.64044943820227,-650.6966292134832,-8251.58426966292,254.61797752808988,-999.4606741573034,1
2024-06-14 18:16:20,0.8393288255,-0.02076941915,-0.09651670605,1.503558636,-5.853823185,6.811503887,141.60000000000002,65.73333333333332,-441.02222222222224,-8315.333333333334,318.8222222222222,-830.3555555555556,1
2024-06-14 18:16:20,0.8393288255,-0.02076941915,-0.09651670605,1.503558636,-5.853823185,6.811503887,369.5384615384616,-121.69230769230768,-48.46153846153845,-8109.384615384615,331.0,-829.6923076923077,1
2024-06-14 18:16:20,0.7770205736,-0.03909537569,-0.1209513173,1.644816518,-7.077260017,6.622362137,154.54347826086956,-312.67391304347825,381.85869565217394,-8152.565217391304,-49.78260869565217,-452.9021739130435,1
2024-06-14 18:16:20,-1.097113967,0.06475171447,0.1429424733,0.962469101,-8.985439301,5.370194435,10.27906976744186,156.19767441860466,-325.9767441860465,-8136.127906976744,272.72093023255815,-925.4767441860464,1
2024-06-14 18:16:20,-1.097113967,0.06475171447,0.1429424733,0.962469101,-8.985439301,5.370194435,-17.422222222222217,-28.577777777777776,-937.7666666666668,-8325.055555555555,455.44444444444446,-1278.5,1
2024-06-14 18:16:20,0.5155702829,0.003665191587,-0.06963863969,1.051054597,-8.473079681,5.741295815,763.0666666666667,-508.1333333333333,-476.4,-8374.166666666666,-204.7333333333333,-1053.0,1
2024-06-14 18:16:20,0.5155702829,0.003665191587,-0.06963863969,1.051054597,-8.473079681,5.741295815,3536.8703703703704,-1859.805555555556,3237.3425925925926,-8183.888888888889,-479.3518518518519,25.157407407407405,1
2024-06-14 18:16:21,-0.428827405,0.02076941915,0.02443460934,0.7278373241,-9.119514465,5.015852451,1696.364864864865,-2389.4864864864867,5022.621621621622,-7859.391891891892,1050.2702702702704,360.35135135135135,1
2024-06-14 18:16:21,-0.5852088928,0.02687807009,0.5852088928,1.845929503,-10.43632507,4.05338335,1924.621951219512,-3065.670731707317,1166.3658536585365,-8080.59756097561,1410.2073170731708,-1337.0853658536585,1
2024-06-14 18:16:21,-0.5852088928,0.02687807009,0.5852088928,1.845929503,-10.43632507,4.05338335,529.7640449438202,-4330.786516853933,-1041.6966292134832,-7650.696629213483,1712.3370786516853,-1145.1685393258426,1
2024-06-14 18:16:21,-0.3982841372,-2.092824221,0.6145304441,0.4979939461,-8.176198959,3.706224203,-790.0,-1072.837837837838,1487.7567567567569,-8002.756756756757,1128.972972972973,7.027027027027028,1
2024-06-14 18:16:21,0.9211847782,0.3652974069,-0.4386012554,-0.7565677166,-5.398924828,6.660669327,-712.4526315789474,2113.252631578948,-2832.863157894737,-7982.484210526316,1377.6526315789474,-687.7052631578947,1
2024-06-14 18:16:21,0.9211847782,0.3652974069,-0.4386012554,-0.7565677166,-5.398924828,6.660669327,2256.074074074074,519.925925925926,-929.5555555555557,-8111.481481481482,-346.0,-1076.5925925925926,1
2024-06-14 18:16:21,1.230282545,0.09896016866,0.7024950385,-0.7709329724,-7.295132637,5.588066578,-569.9555555555555,-670.0444444444445,-1016.7111111111112,-8077.866666666667,-506.5111111111111,-840.6,1
2024-06-14 18:16:21,1.230282545,0.09896016866,0.7024950385,-0.7709329724,-7.295132637,5.588066578,2365.177777777778,-2814.3777777777777,-1711.677777777778,-8982.611111111111,81.5111111111111,20.322222222222223,1
2024-06-14 18:16:21,0.1368338168,-0.09407325089,-0.4544837475,0.1795651317,-8.530540466,5.379771233,-2045.0337078651687,-3880.303370786517,1215.5393258426966,-8760.370786516854,-82.52808988764048,320.1348314606741,1
2024-06-14 18:16:21,0.5791002512,-0.216246292,-0.3604104817,0.6177040339,-7.54891777,5.714959621,-3594.6363636363635,-995.159090909091,2890.090909090909,-8014.340909090909,-495.07954545454544,1529.5454545454545,1
2024-06-14 18:16:22,0.5791002512,-0.216246292,-0.3604104817,0.6177040339,-7.54891777,5.714959621,266.3370786516854,2036.741573033708,3336.7191011235955,-8343.404494382023,196.4494382022472,1488.314606741573,1
2024-06-14 18:16:22,-0.09040805697,0.2467895597,-0.1466076523,0.691924274,-8.374917984,5.125985622,5276.8,-663.4,-7.400000000000091,-8454.0,599.4000000000001,135.5999999999999,1
2024-06-14 18:16:22,-0.3799581826,0.02565634064,0.2577851415,0.0,-8.082824707,5.87297678,1190.7303370786517,-1093.584269662921,-1282.6067415730338,-8132.157303370786,-57.32584269662925,543.9775280898876,1
2024-06-14 18:16:22,-0.7648032904,0.3176499307,0.5363397002,-0.2059013397,-9.928754807,5.212177277,-180.64114832535884,-1550.0334928229663,-588.5071770334928,-7311.598086124402,-722.3205741626795,1801.157894736842,1
2024-06-14 18:16:22,-0.7648032904,0.3176499307,0.5363397002,-0.2059013397,-9.928754807,5.212177277,-552.8333333333334,-1264.563492063492,-539.6349206349206,-7475.111111111111,-708.1428571428571,2009.0873015873017,1
2024-06-14 18:16:22,-0.8063421249,0.2968805134,0.3396410644,-0.4525041282,-9.732429504,4.90811348,-869.5,-984.404761904762,-538.047619047619,-7697.333333333333,-765.2857142857143,2305.119047619048,1
2024-06-14 18:16:22,-0.3677408695,0.2406809032,0.2052507252,-0.4381389022,-8.937555313,4.733336926,-1213.7469879518071,653.1927710843373,1355.3855421686746,-9737.373493975903,-121.59036144578316,1954.481927710844,1
2024-06-14 18:16:22,-0.3677408695,0.2406809032,0.2052507252,-0.4381389022,-8.937555313,4.733336926,-1633.8333333333333,360.3541666666666,5009.75,-9916.166666666666,2025.0833333333333,958.2708333333334,1
2024-06-14 18:16:22,-0.1576032341,0.2076941878,0.1026253626,-0.3280056417,-9.270348549,5.030217648,-2102.6837606837607,-508.87179487179486,5349.478632478633,-8437.965811965812,3040.2051282051284,1786.7094017094016,1
2024-06-14 18:16:23,-0.2748893499,0.1050688252,0.0171042271,-0.1149216816,-9.777919769,4.697423935,-1222.3584905660375,-897.9056603773585,4498.188679245283,-6427.716981132076,3973.509433962264,2483.169811320755,1
2024-06-14 18:16:23,-0.2748893499,0.1050688252,0.0171042271,-0.1149216816,-9.777919769,4.697423935,-458.0112359550562,-174.5730337078652,3053.1460674157306,-6124.977528089888,5095.955056179775,2212.8988764044943,1
2024-06-14 18:16:23,-1.709200978,0.2602286041,-0.01466076635,0.4979939461,-8.051700592,5.027823448,81.24444444444444,-387.5111111111111,834.5777777777778,-6179.466666666666,5469.933333333333,2247.177777777778,1
2024-06-14 18:16:23,-1.709200978,0.2602286041,-0.01466076635,0.4979939461,-8.051700592,5.027823448,84.24719101123596,-221.0224719101124,-88.40449438202248,-5317.269662921349,4534.348314606742,2332.1348314606744,1
2024-06-14 18:16:23,1.434311628,-0.1050688252,-0.8429940343,-0.6967126727,-2.348711967,2.873042107,591.2134831460675,231.92134831460675,-1626.741573033708,-5230.932584269663,4425.044943820225,2451.9775280898875,1
2024-06-14 18:16:23,0.2406809032,-0.381179899,-0.2883284092,0.2394201756,-6.536170483,5.784391403,1029.3863636363635,975.0,-2741.1363636363635,-6324.659090909091,4381.25,2045.090909090909,1
2024-06-14 18:16:23,0.2406809032,-0.381179899,-0.2883284092,0.2394201756,-6.536170483,5.784391403,1234.0666666666666,1186.2666666666669,-4210.0,-7169.4,3886.6,1648.4666666666667,1
2024-06-14 18:16:23,0.2345722616,0.07574728876,-0.3042109013,0.672770679,-10.13944435,4.067748547,588.8202247191011,1678.573033707865,-4402.2808988764045,-10402.808988764044,698.4269662921348,546.8089887640449,1
2024-06-14 18:16:23,-0.5595525503,0.02565634064,-0.01221730467,0.01197100803,-11.62624359,2.284068346,1122.2823529411764,823.8705882352941,-798.2470588235294,-9170.470588235294,1702.2823529411764,260.81176470588235,1
2024-06-14 18:16:23,-0.5595525503,0.02565634064,-0.01221730467,0.01197100803,-11.62624359,2.284068346,629.3636363636364,-158.25,-2379.272727272727,-8724.886363636364,1053.2954545454545,514.6818181818182,1
2024-06-14 18:16:24,-0.3640756905,0.02199114859,-0.1026253626,0.6967126727,-9.550470352,3.696647406,253.29545454545456,-344.2045454545455,-1517.1022727272727,-7741.670454545454,-445.4204545454545,991.8181818181818,1
2024-06-14 18:16:24,-0.3640756905,0.02199114859,-0.1026253626,0.6967126727,-9.550470352,3.696647406,276.70940170940173,544.8803418803419,-1149.7008547008547,-7968.102564102564,-996.880341880342,1336.2564102564102,1
2024-06-14 18:16:24,0.1075122803,-0.05742133409,-0.141720742,0.8499416113,-9.31823349,4.493916512,19.444444444444457,591.8888888888889,-1117.2222222222222,-7670.666666666667,-1343.888888888889,1292.6666666666667,1
2024-06-14 18:16:24,0.2296853364,0.05742133409,0.1991420686,1.18991828,-8.271966934,5.032611847,158.39772727272728,361.375,1055.6704545454545,-8380.488636363636,-115.5340909090909,167.45454545454547,1
2024-06-14 18:16:24,0.2296853364,0.05742133409,0.1991420686,1.18991828,-8.271966934,5.032611847,196.51724137931035,478.7586206896552,1524.8620689655172,-8128.0,130.20689655172413,343.3793103448276,1
2024-06-14 18:16:24,-0.2223549485,0.1209513173,0.4129449129,0.8906430602,-8.82263279,3.974374771,301.408,1110.56,1571.176,-7744.536,951.584,250.288,1
2024-06-14 18:16:24,-0.03420845419,0.0720821023,0.2565633953,0.988805294,-9.603142738,3.617638826,725.5098039215686,1542.6666666666667,2262.921568627451,-8203.823529411764,2369.4117647058824,-520.2941176470588,1
2024-06-14 18:16:24,-0.03420845419,0.0720821023,0.2565633953,0.988805294,-9.603142738,3.617638826,1214.2747252747254,1352.4835164835165,1344.967032967033,-7952.615384615385,1406.8461538461538,-909.043956043956,1
2024-06-14 18:16:24,-0.2052507252,-0.08063421398,-0.4459316432,0.6488286853,-10.78587818,2.79163909,8766.222222222223,3615.444444444444,1038.6666666666667,-7241.222222222223,1224.4444444444443,-2330.111111111112,1
2024-06-14 18:16:24,-0.2052507252,-0.08063421398,-0.4459316432,0.6488286853,-10.78587818,2.79163909,7659.360655737705,3614.55737704918,338.5081967213115,-7742.88524590164,2907.573770491804,-3596.1147540983607,1
2024-06-14 18:16:25,0.17715092,-0.1050688252,-0.1759291887,0.6464344859,-10.12507915,4.072536945,7308.540983606557,3484.502732240437,253.2622950819672,-7669.661202185793,3107.027322404372,-3536.0054644808743,1
2024-06-14 18:16:25,-0.2394591719,0.00122173049,0.06475171447,1.060631394,-9.133879662,4.295197964,497.6896551724138,-510.1724137931034,255.20689655172413,-7527.551724137931,1490.7586206896551,-2961.448275862069,1
2024-06-14 18:16:25,-0.2394591719,0.00122173049,0.06475171447,1.060631394,-9.133879662,4.295197964,-1645.584269662921,-813.9101123595506,-558.2696629213483,-7315.752808988764,1491.4494382022472,-2959.179775280899,1
2024-06-14 18:16:25,-0.1246165112,0.006108652335,-0.2101376504,0.6081272364,-10.07480049,3.531447411,-3333.333333333333,-1897.3333333333333,-557.0,-8305.666666666666,1823.0,-2915.333333333333,1
2024-06-14 18:16:25,0.4019493461,-0.1014036313,-0.4153883755,1.297657371,-8.959102631,3.991134167,-6836.318181818182,-3971.534090909091,-383.5909090909091,-7930.454545454545,839.5340909090909,-1787.6363636363635,1
2024-06-14 18:16:25,0.4019493461,-0.1014036313,-0.4153883755,1.297657371,-8.959102631,3.991134167,-4540.275862068966,-2590.586206896552,-693.8275862068965,-7316.827586206897,260.7931034482759,-744.551724137931,1
2024-06-14 18:16:25,0.1356120855,-0.106290549,-0.5119050741,1.209071875,-9.294290543,3.821146011,-3348.730337078652,-1528.2359550561798,-683.9887640449438,-7629.786516853933,766.4157303370787,-608.0337078651685,1
2024-06-14 18:16:25,0.1356120855,-0.106290549,-0.5119050741,1.209071875,-9.294290543,3.821146011,-267.7951807228916,624.3012048192771,538.433734939759,-8311.44578313253,1800.7831325301204,-886.1927710843373,1
2024-06-14 18:16:25,0.618195653,-0.1307251602,-0.3982841372,1.527500629,-8.59278965,4.582501888,118.32558139534883,574.4651162790698,-8.813953488372078,-8225.790697674418,1952.2558139534883,-723.7209302325581,1
2024-06-14 18:16:25,0.2150245607,-0.1710422635,-0.3445279896,1.283292055,-9.794678688,4.800374508,-60.65625,576.984375,-75.859375,-7947.859375,2107.109375,-718.859375,1
2024-06-14 18:16:26,0.2150245607,-0.1710422635,-0.3445279896,1.283292055,-9.794678688,4.800374508,6.9090909090909065,585.1818181818181,25.704545454545453,-7833.454545454545,2116.25,-1035.8181818181818,1
2024-06-14 18:16:26,0.3567453027,-0.1014036313,-0.1343903542,1.951274395,-6.756437302,5.403713226,-19.25581395348837,273.2558139534884,75.38372093023256,-7916.779069767442,2068.558139534884,-1228.453488372093,1
2024-06-14 18:16:26,-0.2382374406,0.1014036313,0.2687807083,1.295263171,-8.420407295,4.534617901,349.9421487603305,-45.77685950413223,-54.710743801652896,-7969.694214876033,1898.900826446281,-964.793388429752,1
2024-06-14 18:16:26,-0.2382374406,0.1014036313,0.2687807083,1.295263171,-8.420407295,4.534617901,411.0357142857143,52.60714285714286,-271.7857142857143,-7943.357142857143,1870.571428571429,-1030.178571428571,1
2024-06-14 18:16:26,-0.2785545588,0.05497787148,0.141720742,1.065419793,-9.016563416,4.553771496,317.9550561797753,301.314606741573,-121.9438202247191,-8072.775280898876,1783.9101123595506,-1166.6067415730338,1
2024-06-14 18:16:26,-0.2785545588,0.05497787148,0.141720742,1.065419793,-9.016563416,4.553771496,117.20224719101122,17.258426966292134,58.752808988764045,-7986.0,1852.820224719101,-1162.4044943820224,1
2024-06-14 18:16:26,-4.346917152,-0.4776966274,-0.3946189582,0.4213795066,-12.47618484,1.8602947,-188.3908045977012,123.48275862068964,65.0919540229885,-7822.540229885058,1584.712643678161,-1170.4827586206898,1
2024-06-14 18:16:26,3.824016333,0.1832595766,-0.125838235,1.63523972,-1.074996591,1.604115129,-130.63636363636363,83.72727272727272,-56.63636363636364,-7879.181818181818,1880.3636363636365,-1261.0,1
2024-06-14 18:16:26,3.824016333,0.1832595766,-0.125838235,1.63523972,-1.074996591,1.604115129,10.413043478260876,-339.0434782608696,116.0326086956522,-7813.510869565217,1849.3152173913045,-1389.304347826087,1
2024-06-14 18:16:26,0.9028588533,-0.08918632567,0.3078760803,0.8619126081,-11.82975101,4.960785866,-52.83050847457627,49.09604519774011,101.37853107344633,-7835.0,1883.5706214689264,-1314.4689265536724,1
2024-06-14 18:16:27,-0.03909537569,0.2101376504,-0.4141666293,0.349553436,-9.528923035,3.871424198,60.91208791208791,28.10989010989011,95.41758241758242,-7829.846153846154,1841.6593406593408,-1327.2197802197802,1
2024-06-14 18:16:27,-0.03909537569,0.2101376504,-0.4141666293,0.349553436,-9.528923035,3.871424198,593.0823529411765,-17.32941176470588,-273.7294117647059,-7833.2,1669.6352941176472,-1362.8,1
2024-06-14 18:16:27,0.7782423496,0.1637118906,-0.07452555746,0.8667010069,-8.28633213,5.137956619,175.51685393258427,141.02247191011236,-358.7752808988764,-7846.303370786517,1912.6966292134832,-1195.7752808988764,1
2024-06-14 18:16:27,0.7782423496,0.1637118906,-0.07452555746,0.8667010069,-8.28633213,5.137956619,-13.844444444444434,40.77777777777778,-220.95555555555555,-7848.422222222222,1875.3333333333333,-1189.6888888888889,1
2024-06-14 18:16:27,0.5412266254,0.1918116808,0.4300491214,0.4261679053,-7.515398979,6.31829834,-115.28888888888888,73.35555555555555,-90.62222222222222,-7832.155555555555,1835.5333333333333,-1174.2222222222222,1
2024-06-14 18:16:27,-0.07086037099,0.03909537569,0.003665191587,0.1915361285,-7.888894558,6.284779549,341.6446280991736,-108.12396694214875,-105.4793388429752,-7894.719008264463,1889.8677685950413,-1190.98347107438,1
2024-06-14 18:16:27,-0.07086037099,0.03909537569,0.003665191587,0.1915361285,-7.888894558,6.284779549,523.6551724137931,-127.3103448275862,59.93103448275863,-7977.206896551724,1843.1379310344828,-1210.896551724138,1
2024-06-14 18:16:27,0.3762930036,-0.01343903504,-0.05986479297,0.06703764945,-7.630321026,6.653486729,-291.6373626373626,71.3956043956044,-105.5934065934066,-7830.395604395604,2080.153846153846,-1277.0549450549452,1
2024-06-14 18:16:27,0.326202035,0.02565634064,-0.2260201424,0.2968810201,-7.486668587,6.476315498,-454.4224137931034,19.73275862068965,33.672413793103445,-8034.0,1831.129310344828,-1358.7586206896551,1
2024-06-14 18:16:27,0.326202035,0.02565634064,-0.2260201424,0.2968810201,-7.486668587,6.476315498,-403.5603448275862,72.31896551724138,7.810344827586206,-8034.0,1799.2327586206898,-1344.9655172413793,1
2024-06-14 18:16:28,-0.3115412891,0.1380555481,-0.2553416789,0.1292868853,-6.847416878,7.139509678,-101.1413043478261,214.34782608695653,93.55434782608695,-7831.836956521739,1697.695652173913,-1186.1847826086955,1
2024-06-14 18:16:28,-0.3115412891,0.1380555481,-0.2553416789,0.1292868853,-6.847416878,7.139509678,-104.94565217391305,62.17391304347825,85.40217391304348,-7831.29347826087,1693.3478260869565,-1183.4673913043478,1
2024-06-14 18:16:28,-0.287106663,-0.01343903504,0.07330382615,0.5075707436,-7.295132637,6.811503887,453.8974358974359,47.33333333333333,77.76923076923077,-7845.717948717949,1719.5641025641023,-1299.6666666666667,1
2024-06-14 18:16:28,-1.369559884,-0.2333505303,-0.1905899495,0.4596867263,-8.341399193,5.712565422,4179.179775280899,1802.1685393258424,333.5280898876405,-7036.966292134832,386.71910112359546,-1419.9550561797753,1
2024-06-14 18:16:28,-1.369559884,-0.2333505303,-0.1905899495,0.4596867263,-8.341399193,5.712565422,8207.022727272728,4809.590909090909,-149.29545454545453,-7445.5,1335.1818181818182,-3558.6136363636365,1
2024-06-14 18:16:28,0.5937610269,0.2247984111,-0.1404990107,2.011129379,-8.817844391,4.515464306,3015.5454545454545,1485.818181818182,-115.45454545454548,-8554.363636363636,2016.0,-3803.0,1
2024-06-14 18:16:28,0.6976081133,-0.00122173049,0.1282816976,0.4333505034,-7.489062786,6.768408298,-891.5842696629213,-567.7078651685393,250.41573033707863,-7279.471910112359,502.6404494382023,-3376.6067415730336,1
2024-06-14 18:16:28,0.6976081133,-0.00122173049,0.1282816976,0.4333505034,-7.489062786,6.768408298,-380.41379310344826,-81.93103448275862,105.96551724137932,-7485.0344827586205,752.3793103448276,-3437.793103448276,1
2024-06-14 18:16:28,-0.1136209369,0.008552113548,-0.003665191587,1.084573388,-7.927201748,5.746084213,-281.8876404494382,-347.2696629213483,-35.86516853932584,-7399.685393258427,1052.2247191011236,-3265.955056179775,1
2024-06-14 18:16:28,-0.1136209369,0.008552113548,-0.003665191587,1.084573388,-7.927201748,5.746084213,159.47674418604652,-153.88372093023256,-67.56976744186046,-7352.767441860465,1070.360465116279,-3389.6627906976746,1
2024-06-14 18:16:29,0.2602286041,0.04276056588,0.03665191308,0.7086837292,-7.113173485,6.655880928,114.91111111111113,-100.71111111111112,-64.94444444444446,-7210.055555555556,1043.0,-3410.5444444444443,1
2024-06-14 18:16:29,-0.3567453027,0.01832595654,0.07941248268,0.4046200812,-7.69257021,6.517016888,-64.62790697674419,-191.93023255813952,-118.97674418604652,-7279.767441860465,1112.6976744186047,-3361.651162790697,1
2024-06-14 18:16:29,-0.3567453027,0.01832595654,0.07941248268,0.4046200812,-7.69257021,6.517016888,-296.8205128205128,-18.307692307692307,-294.991452991453,-7352.615384615385,677.965811965812,-3020.264957264957,1
2024-06-14 18:16:29,-1.154535294,-0.2040289938,-0.2064724565,0.4884171486,-9.579200745,4.414907932,-315.3125,40.625,-230.6875,-7365.625,699.6875,-3252.1875,1
2024-06-14 18:16:29,1.17530477,0.09162978828,0.4459316432,1.094150186,-7.603984833,6.284779549,477.27272727272725,-490.8181818181818,-240.27272727272728,-7206.443181818182,816.4772727272727,-3065.568181818182,1
2024-06-14 18:16:29,-0.3164281845,-0.06108652428,-0.2602286041,0.8643068075,-7.467514992,5.999869347,-99.92063492063492,-177.68253968253967,-90.11111111111111,-7480.047619047619,772.5714285714286,-2989.333333333333,1
2024-06-14 18:16:29,-0.3164281845,-0.06108652428,-0.2602286041,0.8643068075,-7.467514992,5.999869347,-149.63440860215053,-607.0,299.2043010752688,-7404.397849462365,825.7204301075269,-3020.05376344086,1
2024-06-14 18:16:29,0.1685988009,0.01466076635,0.1722639948,0.5746083856,-8.171410561,6.088454723,-223.66666666666663,-535.3333333333334,244.66666666666663,-7566.0,786.0,-2717.6666666666665,1
2024-06-14 18:16:29,0.2113593817,0.07452555746,-0.08429940045,0.5267243981,-7.675810814,6.205770969,-106.68539325842696,-210.86516853932585,-306.35955056179773,-7512.022471910112,731.2471910112359,-2728.2808988764045,1
2024-06-14 18:16:30,0.2113593817,0.07452555746,-0.08429940045,0.5267243981,-7.675810814,6.205770969,83.63043478260869,159.2826086956522,-224.2934782608696,-7583.489130434783,885.9021739130435,-2878.543478260869,1
2024-06-14 18:16:30,-0.1343903542,-0.05986479297,-0.06352998316,0.7996633649,-6.967126846,6.39491272,66.5529411764706,-470.6823529411765,30.84705882352941,-7822.905882352941,742.4705882352941,-2555.7294117647057,1
2024-06-14 18:16:30,0.531452775,0.02687807009,0.1380555481,0.5482721925,-7.963114738,6.622362137,-212.8876404494382,-336.8089887640449,-322.64044943820227,-7633.123595505618,796.2584269662922,-2537.674157303371,1
2024-06-14 18:16:30,0.531452775,0.02687807009,0.1380555481,0.5482721925,-7.963114738,6.622362137,-314.1818181818182,71.18181818181819,116.9090909090909,-7617.545454545455,668.1818181818182,-2534.0,1
2024-06-14 18:16:30,-1.193630695,0.07574728876,0.05375614017,0.2322375625,-9.588777542,5.295974255,-283.46067415730334,-302.7191011235955,-262.70786516853934,-7558.943820224719,888.4157303370787,-2464.0,1
2024-06-14 18:16:30,-1.193630695,0.07574728876,0.05375614017,0.2322375625,-9.588777542,5.295974255,39.70454545454545,56.22727272727273,12.272727272727272,-7774.136363636364,814.4545454545455,-2659.068181818182,1
2024-06-14 18:16:30,-0.8613200188,0.2052507252,0.3616322279,0.1029506698,-7.99663353,6.505045891,170.1,-147.63333333333333,38.266666666666666,-7610.566666666667,759.1,-2443.7,1
2024-06-14 18:16:30,-1.301142931,0.2296853364,0.6291912198,0.09337386489,-9.96466732,5.252878666,56.89655172413793,-102.0,41.96551724137931,-7961.586206896552,697.3103448275862,-2632.172413793104,1
2024-06-14 18:16:30,-1.301142931,0.2296853364,0.6291912198,0.09337386489,-9.96466732,5.252878666,-15.323076923076924,-496.9230769230769,68.95384615384616,-7779.0,758.5076923076923,-2641.6615384615384,1
2024-06-14 18:16:30,-0.6145304441,0.1295034289,0.283441484,-0.03351882473,-9.050082207,5.669469833,57.85106382978724,16.723404255319153,25.680851063829785,-7760.595744680851,809.2978723404256,-2635.531914893617,1
2024-06-14 18:16:31,0.07574728876,-0.0109955743,-0.07941248268,0.4070142806,-8.975862503,5.437232018,-45.95652173913044,-32.782608695652186,2.565217391304344,-7795.304347826087,785.9565217391305,-2644.782608695652,1
2024-06-14 18:16:31,0.07574728876,-0.0109955743,-0.07941248268,0.4070142806,-8.975862503,5.437232018,-139.74418604651163,-133.53488372093022,-15.279069767441854,-7914.046511627907,700.9069767441861,-2278.046511627907,1
2024-06-14 18:16:31,0.07452555746,-0.04520402849,-0.1270599663,0.5027823448,-9.933543205,5.228936672,-340.4436090225564,-35.6390977443609,-169.3233082706767,-7906.451127819549,859.1203007518797,-2365.842105263158,1
2024-06-14 18:16:31,0.07452555746,-0.04520402849,-0.1270599663,0.5027823448,-9.933543205,5.228936672,-151.17045454545453,25.15909090909091,-294.8636363636364,-7829.636363636364,854.0340909090909,-2201.7613636363635,1
2024-06-14 18:16:31,0.4019493461,-0.08429940045,-0.3127630055,0.9911994934,-7.364564419,6.301538944,-153.66666666666666,15.333333333333334,75.2,-7800.666666666667,848.6666666666666,-2587.866666666667,1
2024-06-14 18:16:31,-0.6438519955,0.01221730467,-0.00122173049,0.85473001,-8.482656479,5.779603004,-179.15384615384616,-8.81318681318681,-199.7802197802198,-8259.142857142857,855.5604395604396,-2368.8571428571427,1
2024-06-14 18:16:31,-0.6438519955,0.01221730467,-0.00122173049,0.85473001,-8.482656479,5.779603004,-227.6206896551724,-499.5172413793104,61.310344827586206,-7804.862068965517,848.3103448275862,-2262.103448275862,1
2024-06-14 18:16:31,0.9798278809,-0.03787364438,0.3090978265,2.173935175,-9.497797966,2.772485495,-2.232558139534888,-290.8372093023256,-248.8372093023256,-7951.476744186047,679.2790697674419,-2370.720930232558,1
2024-06-14 18:16:31,0.4654793143,-0.04642575979,-0.1808161139,1.644816518,-6.797138691,6.598419666,63.46666666666667,169.7111111111111,-207.84444444444443,-7612.466666666666,566.3111111111111,-2347.4444444444443,1
2024-06-14 18:16:31,0.4654793143,-0.04642575979,-0.1808161139,1.644816518,-6.797138691,6.598419666,136.42857142857144,163.36263736263737,-272.24175824175825,-8139.736263736264,655.967032967033,-2348.923076923077,1
2024-06-14 18:16:32,0.4935791194,0.1783726513,0.2577851415,1.18752408,-6.888118267,6.442796707,-289.27272727272725,-206.04545454545456,-317.46590909090907,-7685.113636363636,554.4886363636364,-2369.590909090909,1
2024-06-14 18:16:32,0.4935791194,0.1783726513,0.2577851415,1.18752408,-6.888118267,6.442796707,86.71264367816092,-293.5287356321839,-274.5057471264368,-7976.6551724137935,386.367816091954,-2018.632183908046,1
2024-06-14 18:16:32,0.17715092,0.05986479297,0.2700024247,0.2920926213,-9.514557838,4.955997467,-90.875,-285.625,-112.125,-8167.75,392.625,-2036.625,1
2024-06-14 18:16:32,0.17715092,0.05986479297,0.2700024247,0.2920926213,-9.514557838,4.955997467,-10.77310924369748,-497.4033613445378,-123.53781512605042,-7773.117647058823,460.1344537815126,-2000.420168067227,1
2024-06-14 18:16:32,-0.02687807009,0.05009094998,-0.02199114859,1.163581967,-9.923966408,4.223371983,83.09836065573771,-312.1311475409836,-258.39344262295083,-7584.032786885245,585.8196721311475,-1968.426229508197,1
2024-06-14 18:16:32,-0.299323976,0.08918632567,0.1930334121,1.058237195,-6.986280441,6.066906929,1.4615384615384528,-201.23076923076923,-199.0769230769231,-8011.846153846154,533.7692307692307,-1986.7692307692307,1
2024-06-14 18:16:32,-0.299323976,0.08918632567,0.1930334121,1.058237195,-6.986280441,6.066906929,-129.97701149425288,-201.32183908045977,62.14942528735632,-7734.206896551724,492.44827586206895,-2037.8850574712644,1
2024-06-14 18:16:32,-0.1893682331,0.06841690838,0.2235766798,1.443703651,-7.84340477,5.861005783,-84.59482758620689,341.0086206896552,-89.36206896551724,-7851.181034482759,247.94827586206893,-2162.844827586207,1
2024-06-14 18:16:32,-0.1893682331,0.06841690838,0.2235766798,1.443703651,-7.84340477,5.861005783,-8.372881355932204,202.0169491525424,-215.94915254237287,-8017.813559322034,476.66101694915255,-2011.4406779661017,1
2024-06-14 18:16:33,-0.009773843922,0.1001819,0.2614503205,0.8930372596,-7.4363904,6.133944988,-226.3333333333333,58.6,-259.1333333333333,-7698.0,448.8666666666667,-2293.6,1
2024-06-14 18:16:33,-1.237612963,0.02809980139,0.3958406746,0.5051765442,-8.32463932,5.789179802,-138.51111111111112,37.68888888888889,-102.22222222222224,-7629.844444444445,567.2222222222222,-2300.6,1
2024-06-14 18:16:33,-1.237612963,0.02809980139,0.3958406746,0.5051765442,-8.32463932,5.789179802,-411.6067415730337,3.3258426966292127,-4.134831460674157,-8109.651685393258,462.3932584269663,-2083.2696629213483,1
2024-06-14 18:16:33,-0.9566149712,0.1343903542,0.2406809032,0.2873041928,-8.667010307,5.094861031,-163.86666666666667,510.76666666666665,-272.2333333333333,-7519.3,227.46666666666667,-2056.0,1
2024-06-14 18:16:33,1.215621829,0.428827405,0.06719517708,2.408566952,-2.475604534,2.224213362,-92.33333333333331,1319.0,236.66666666666663,-7495.0,359.6666666666667,-2541.0,1
2024-06-14 18:16:33,1.215621829,0.428827405,0.06719517708,2.408566952,-2.475604534,2.224213362,-121.80898876404495,1161.887640449438,696.9101123595506,-7863.38202247191,779.8314606741573,-2616.23595505618,1
2024-06-14 18:16:33,0.7269296646,-0.03054326214,-0.04276056588,0.06703764945,-9.217676163,5.877765179,-608.9772727272727,276.70454545454544,468.77272727272725,-7994.136363636364,677.4772727272727,-2964.0,1
2024-06-14 18:16:33,0.7269296646,-0.03054326214,-0.04276056588,0.06703764945,-9.217676163,5.877765179,-216.7111111111111,-94.97777777777776,319.0888888888889,-7963.888888888889,880.4222222222222,-2957.155555555556,1
2024-06-14 18:16:33,0.9285151958,0.04520402849,0.04031710699,1.278503656,-6.830657482,7.050923824,-370.9565217391304,-428.2173913043478,-3.3804347826087024,-7515.402173913043,997.9891304347826,-2488.4021739130435,1
2024-06-14 18:16:33,1.358564258,0.02687807009,-0.1905899495,1.551442742,-3.933673382,7.505822182,51.0,-346.4,290.94444444444446,-7437.055555555556,1261.5,-2469.8777777777777,1
2024-06-14 18:16:34,1.358564258,0.02687807009,-0.1905899495,1.551442742,-3.933673382,7.505822182,-358.94202898550725,108.23188405797102,-179.9855072463768,-7614.971014492754,1303.9855072463768,-2680.217391304348,1
2024-06-14 18:16:34,-0.3885102868,0.09407325089,0.06352998316,1.209071875,-6.054935932,6.895300865,-506.0434782608696,269.8260869565217,-479.2608695652174,-7463.521739130435,853.2608695652174,-2791.086956521739,1
2024-06-14 18:16:34,-0.2528982162,0.09529497474,0.2443460971,1.053448796,-7.151480675,6.672640324,-284.0,-276.2,-323.4,-7328.4,980.0,-2471.0,1
2024-06-14 18:16:34,-0.2528982162,0.09529497474,0.2443460971,1.053448796,-7.151480675,6.672640324,38.91111111111111,-44.1,-74.13333333333334,-7643.911111111111,824.4333333333334,-2550.688888888889,1
2024-06-14 18:16:34,0.2345722616,0.04886921868,0.09651670605,1.11569798,-6.959944248,6.636727333,-42.5,-117.83088235294116,-48.53676470588236,-7758.316176470588,992.6323529411764,-2526.073529411765,1
2024-06-14 18:16:34,-0.1404990107,0.04886921868,0.161268428,0.9097966552,-8.097189903,6.143521786,23.365853658536587,-371.9268292682927,-269.9024390243902,-7411.707317073171,702.829268292683,-2672.634146341464,1
2024-06-14 18:16:34,-0.1404990107,0.04886921868,0.161268428,0.9097966552,-8.097189903,6.143521786,35.0,122.54545454545456,34.09090909090909,-7789.045454545455,687.9545454545455,-2492.3636363636365,1
2024-06-14 18:16:34,-0.68539083,0.05742133409,0.334754169,0.7517793179,-7.783549786,6.078877926,-94.68888888888888,-155.2888888888889,-24.544444444444444,-7824.477777777778,1120.7333333333331,-2617.455555555556,1
2024-06-14 18:16:34,-0.68539083,0.05742133409,0.334754169,0.7517793179,-7.783549786,6.078877926,-124.5632183908046,56.4712643678161,-256.71264367816093,-7659.896551724138,1126.8390804597702,-2316.0919540229884,1
2024-06-14 18:16:34,-2.895501375,-0.5803219676,-1.097113967,-1.000776291,-10.61828423,4.340687752,-500.5842696629214,536.9887640449438,323.8988764044944,-7699.23595505618,949.5505617977528,-2657.561797752809,1
2024-06-14 18:16:35,0.9272934198,0.5021312237,1.40743351,-0.1987187415,-6.366182327,4.833893299,-5512.688888888889,-328.0,1104.3333333333333,-7841.866666666667,1986.5777777777776,-2898.177777777778,1
2024-06-14 18:16:35,0.9272934198,0.5021312237,1.40743351,-0.1987187415,-6.366182327,4.833893299,-5169.724137931034,-1227.7816091954023,921.632183908046,-7673.781609195402,1297.7586206896551,-2283.448275862069,1
2024-06-14 18:16:35,-0.2028072625,-0.0720821023,-0.2345722616,0.6631938815,-7.642292023,6.232107162,-1723.043956043956,-467.010989010989,-131.87912087912088,-7715.538461538462,2035.7032967032967,-1752.241758241758,1
2024-06-14 18:16:35,-0.2028072625,-0.0720821023,-0.2345722616,0.6631938815,-7.642292023,6.232107162,-485.84090909090907,-324.7613636363636,-257.5340909090909,-7765.340909090909,2325.306818181818,-1740.909090909091,1
2024-06-14 18:16:35,-0.4349360466,0.04520402849,-0.05864306539,0.5626373887,-8.511386871,5.360617638,-369.1428571428571,-378.57142857142856,-402.0,-7750.714285714285,2348.5714285714284,-1598.857142857143,1
2024-06-14 18:16:35,0.009773843922,0.008552113548,0.03909537569,0.323217243,-8.513781548,5.384559631,10.538461538461547,-191.27472527472528,-413.1208791208791,-7614.032967032967,2129.8571428571427,-1242.3076923076924,1
2024-06-14 18:16:35,0.009773843922,0.008552113548,0.03909537569,0.323217243,-8.513781548,5.384559631,296.4439461883408,-154.82959641255604,-304.7488789237668,-7533.331838565023,2277.2331838565024,-1362.0269058295964,1
2024-06-14 18:16:35,-0.106290549,0.01832595654,0.03054326214,0.3471592367,-8.597578049,5.343858242,425.8345323741007,243.5179856115108,-214.71223021582733,-7693.071942446043,2037.7482014388488,-1545.5971223021584,1
2024-06-14 18:16:35,-0.09896016866,0.007330383174,-0.04031710699,0.2418143749,-8.743624687,5.140350819,-1058.3863636363635,-866.4772727272727,62.43181818181818,-7591.920454545455,2325.2727272727275,-1685.2727272727273,1
2024-06-14 18:16:35,-0.09896016866,0.007330383174,-0.04031710699,0.2418143749,-8.743624687,5.140350819,-925.8104265402844,-453.3175355450237,65.86729857819905,-7713.417061611374,1986.6635071090047,-1464.7677725118483,1
2024-06-14 18:16:36,0.1930334121,0.0,-0.004886921961,0.2896983922,-8.961497307,4.967968464,-1110.072,-574.944,34.312,-7751.496,2343.016,-1440.0,1
2024-06-14 18:16:36,-0.02565634064,0.0109955743,-0.008552113548,0.2753331959,-8.494627953,5.420472622,-1122.872,-520.544,23.112,-7761.896,2401.416,-1440.0,1
2024-06-14 18:16:36,-0.02565634064,0.0109955743,-0.008552113548,0.2753331959,-8.494627953,5.420472622,-428.4146341463414,167.5609756097561,-390.0243902439024,-8010.707317073171,1973.121951219512,-1565.8048780487804,1
2024-06-14 18:16:36,0.4569272101,0.007330383174,-0.03054326214,0.4788403511,-8.219294548,5.564124584,13.613636363636369,34.25,-350.34090909090907,-7977.181818181818,2087.931818181818,-1253.4545454545455,1
2024-06-14 18:16:36,0.4569272101,0.007330383174,-0.03054326214,0.4788403511,-8.219294548,5.564124584,560.0,83.52222222222223,-268.47777777777776,-8017.544444444445,1922.9666666666667,-1258.388888888889,1
2024-06-14 18:16:36,0.1343903542,0.0,-0.01466076635,0.3687070608,-7.783549786,6.229712963,549.4318181818181,222.27272727272725,-342.27272727272725,-7996.204545454545,2078.7954545454545,-1576.2954545454545,1
2024-06-14 18:16:36,-0.05009094998,-0.02809980139,0.05009094998,0.4836287498,-8.212111473,5.894524574,191.1758241758241,284.6923076923077,-333.5824175824176,-7985.186813186813,2106.8901098901097,-1431.4175824175825,1
2024-06-14 18:16:36,-0.283441484,-0.03176499158,-0.0720821023,0.4860229492,-8.880094528,5.243301868,-111.02247191011236,-46.13483146067416,-271.0,-7946.876404494382,1785.370786516854,-1817.112359550562,1
2024-06-14 18:16:36,-0.03909537569,-0.01588249579,0.1123992056,0.3734954596,-8.032546997,6.009446144,-52.54545454545455,-71.45454545454545,13.318181818181818,-7984.045454545455,1766.5454545454545,-1532.9545454545455,1
2024-06-14 18:16:37,-0.03909537569,-0.01588249579,0.1123992056,0.3734954596,-8.032546997,6.009446144,106.39772727272728,67.4090909090909,97.4090909090909,-7965.761363636364,1742.8977272727273,-1479.6022727272727,1
2024-06-14 18:16:37,0.1209513173,0.009773843922,-0.07819075137,0.4788403511,-7.603984833,6.263231754,714.9545454545455,177.75,-86.29545454545453,-7837.306818181818,1212.340909090909,-1339.5454545454545,1
2024-06-14 18:16:37,0.1209513173,0.009773843922,-0.07819075137,0.4788403511,-7.603984833,6.263231754,5329.755555555556,1908.4666666666667,-561.5333333333333,-6924.622222222222,280.8888888888889,-2008.6888888888889,1
2024-06-14 18:16:37,-0.338419348,0.02687807009,0.01466076635,0.1915361285,-8.36294651,6.033388138,7211.983870967742,3605.0,-589.8387096774194,-7708.8387096774195,1307.0967741935483,-3388.4112903225805,1
2024-06-14 18:16:37,0.1649336219,-0.04886921868,0.09407325089,0.5123591423,-7.711723804,6.119579315,2811.2203389830506,1124.8474576271187,370.728813559322,-7835.881355932203,1241.8983050847455,-3378.220338983051,1
2024-06-14 18:16:37,0.1649336219,-0.04886921868,0.09407325089,0.5123591423,-7.711723804,6.119579315,86.61176470588236,-159.6235294117647,428.8588235294118,-7213.964705882353,688.3529411764706,-3053.823529411765,1
2024-06-14 18:16:37,0.4019493461,-0.02443460934,-0.2431243658,0.605733037,-7.189787865,6.698976517,-529.948905109489,-213.6204379562044,203.0656934306569,-7320.357664233576,810.8905109489051,-3348.21897810219,1
2024-06-14 18:16:37,-0.09162978828,0.00244346098,-0.01832595654,0.2466027737,-8.142680168,6.124367714,-156.74074074074073,-252.7530864197531,10.098765432098766,-7437.864197530864,731.0123456790124,-3004.1481481481483,1
2024-06-14 18:16:37,0.7586946487,-0.06597344577,-0.1710422635,0.5722141862,-8.382100105,6.641515732,-269.1034482758621,-278.17241379310343,-61.65517241379311,-7444.586206896552,750.9655172413793,-3059.448275862069,1
2024-06-14 18:16:38,0.7586946487,-0.06597344577,-0.1710422635,0.5722141862,-8.382100105,6.641515732,-64.36363636363636,166.36363636363637,-341.0,-7224.363636363636,857.0909090909091,-3094.0,1
2024-06-14 18:16:38,0.0109955743,0.05253441259,0.06475171447,0.7038952708,-7.402871609,6.234501362,-256.2696629213483,-166.62921348314606,-166.31460674157304,-7627.775280898876,878.1123595505618,-3051.5393258426966,1
2024-06-14 18:16:38,-0.7977899909,-0.02687807009,-0.07574728876,0.3447650373,-8.403648376,5.633556366,-209.73563218390805,-247.82758620689657,-255.82758620689657,-7511.436781609195,861.1264367816092,-3165.390804597701,1
2024-06-14 18:16:38,-0.7977899909,-0.02687807009,-0.07574728876,0.3447650373,-8.403648376,5.633556366,-1204.134831460674,-164.8876404494382,-326.19101123595505,-7818.876404494382,1125.7640449438202,-3360.438202247191,1
2024-06-14 18:16:38,0.3689626157,-0.03420845419,-0.109955743,0.7469909191,-8.853757858,5.813121796,-6970.111111111111,-2774.0,1007.3333333333334,-7720.333333333333,1818.111111111111,-2908.6666666666665,1
2024-06-14 18:16:38,-0.6585127115,0.02076941915,-0.1148426682,0.383072257,-9.868899345,5.228936672,-808.0,363.625,-288.5,-7983.25,1790.125,-1209.625,1
2024-06-14 18:16:38,-0.5913175344,0.09651670605,0.2577851415,0.3447650373,-7.991845131,5.940014362,-250.48888888888888,346.3777777777778,54.08888888888889,-7753.777777777777,2074.955555555556,-1252.8444444444444,1
2024-06-14 18:16:38,-0.5913175344,0.09651670605,0.2577851415,0.3447650373,-7.991845131,5.940014362,141.04545454545456,-30.77272727272728,-109.76136363636364,-7867.545454545455,2200.431818181818,-1204.3522727272727,1
2024-06-14 18:16:38,-0.7513642311,0.1075122803,0.4569272101,0.4118026793,-6.485892296,6.667851925,181.8,258.9,35.0,-7639.4,2011.8,-1222.3,1
2024-06-14 18:16:39,0.2296853364,0.1918116808,0.4605923891,0.7661445141,-7.252037048,7.079654217,235.84615384615384,-43.82051282051282,21.102564102564106,-7968.282051282052,2015.8461538461536,-1555.4102564102564,1
2024-06-14 18:16:39,0.2296853364,0.1918116808,0.4605923891,0.7661445141,-7.252037048,7.079654217,463.64367816091954,111.5057471264368,52.88505747126436,-7994.19540229885,2002.3333333333333,-1585.0,1
2024-06-14 18:16:39,-0.1649336219,0.1698205322,0.4153883755,0.2442085743,-8.348581314,6.217741966,1162.887640449438,-66.11235955056179,-223.71910112359552,-7716.213483146067,1337.5168539325844,-1294.8988764044943,1
2024-06-14 18:16:39,-0.7244861722,0.1331686229,0.2736676335,0.4525041282,-8.487444878,6.129156113,6326.802816901409,1733.4647887323945,-740.0211267605634,-6993.93661971831,146.90140845070422,-1883.37323943662,1
2024-06-14 18:16:39,-0.7244861722,0.1331686229,0.2736676335,0.4525041282,-8.487444878,6.129156113,7991.575,2990.7,-1196.325,-8193.25,1841.075,-3485.05,1
2024-06-14 18:16:39,-0.5473352671,0.1539380401,0.2981022298,0.8020575643,-6.880935669,6.672640324,-401.72093023255815,-1281.6046511627908,247.86046511627907,-7503.395348837209,780.3953488372093,-2742.7441860465115,1
2024-06-14 18:16:39,-0.5473352671,0.1539380401,0.2981022298,0.8020575643,-6.880935669,6.672640324,-464.4222222222222,-304.66666666666663,332.26666666666665,-7172.955555555555,522.8444444444444,-2634.4444444444443,1
2024-06-14 18:16:39,0.2174680233,0.00244346098,-0.09651670605,1.00317049,-8.573636055,6.069301128,-205.27272727272725,223.14772727272728,-29.26136363636364,-7785.227272727273,462.7272727272728,-2897.1704545454545,1
2024-06-14 18:16:39,0.2260201424,-0.0354301855,-0.2211332172,1.082179189,-8.228871346,5.786785603,72.66666666666666,-328.6666666666667,-155.33333333333334,-7695.133333333333,466.0,-3120.866666666667,1
2024-06-14 18:16:39,0.2260201424,-0.0354301855,-0.2211332172,1.082179189,-8.228871346,5.786785603,316.98837209302326,-435.953488372093,-119.58139534883722,-7642.988372093023,680.0,-2905.953488372093,1
2024-06-14 18:16:40,0.3604104817,-0.02809980139,-0.08674286306,1.350329757,-7.395689011,6.502651691,-335.40425531914894,-272.1914893617021,-170.1914893617021,-7616.978723404255,419.8936170212766,-2837.851063829787,1
2024-06-14 18:16:40,-0.2394591719,0.03909537569,0.1221730486,1.055842996,-8.966285706,5.360617638,-331.23595505617976,-232.97752808988764,-277.9887640449438,-7909.460674157303,394.5280898876405,-2834.348314606741,1
2024-06-14 18:16:40,-0.2394591719,0.03909537569,0.1221730486,1.055842996,-8.966285706,5.360617638,-218.0116279069768,-340.4651162790698,-22.697674418604663,-7734.53488372093,604.4418604651163,-2824.058139534884,1
2024-06-14 18:16:40,-2.222327709,-0.08063421398,-0.2748893499,0.7326257229,-8.420407295,6.27999115,51.53846153846154,-421.05494505494505,-310.2087912087912,-7587.197802197802,407.2637362637363,-2477.120879120879,1
2024-06-14 18:16:40,-2.222327709,-0.08063421398,-0.2748893499,0.7326257229,-8.420407295,6.27999115,-23.21759259259259,-847.6064814814815,-355.7083333333333,-7611.828703703703,542.574074074074,-2615.0694444444443,1
2024-06-14 18:16:40,0.762359798,0.9150761366,-0.1673770845,3.102885485,-9.931148529,5.501875401,49.06976744186046,-433.5813953488372,-302.4186046511628,-7774.6511627906975,529.8372093023256,-2286.046511627907,1
2024-06-14 18:16:40,-0.5448917747,-0.006108652335,0.1014036313,1.426944256,-6.698976517,6.521805286,11.860465116279071,-590.1705426356589,-312.4961240310077,-7794.031007751938,516.6589147286821,-2227.906976744186,1
2024-06-14 18:16:40,-0.5448917747,-0.006108652335,0.1014036313,1.426944256,-6.698976517,6.521805286,55.01123595505618,-324.5280898876405,-234.438202247191,-7751.662921348315,365.8426966292135,-2175.483146067416,1
2024-06-14 18:16:40,-0.2064724565,0.1270599663,-0.02199114859,0.8667010069,-9.11233139,4.896142483,-247.3953488372093,-202.7209302325581,-275.37209302325584,-7848.53488372093,232.88372093023256,-2014.186046511628,1
2024-06-14 18:16:40,0.9150761366,-0.006108652335,-0.3127630055,1.268926859,-8.372523308,5.691017628,-455.34108527131787,-122.41085271317829,-326.72868217054264,-7819.782945736434,243.31007751937983,-2182.4651162790697,1
2024-06-14 18:16:41,0.9150761366,-0.006108652335,-0.3127630055,1.268926859,-8.372523308,5.691017628,-365.1372549019608,-222.9607843137255,-268.94117647058823,-8018.549019607844,238.1176470588236,-2200.019607843137,1
2024-06-14 18:16:41,0.009773843922,-0.05131268129,-0.334754169,1.113303781,-8.166622162,5.547365189,-321.72727272727275,258.5454545454545,-573.090909090909,-8073.272727272727,210.45454545454544,-2081.818181818182,1
2024-06-14 18:16:41,0.009773843922,-0.05131268129,-0.334754169,1.113303781,-8.166622162,5.547365189,-290.97777777777776,-300.2888888888889,-473.31111111111113,-7678.911111111111,-16.266666666666666,-1957.8222222222223,1
2024-06-14 18:16:41,-0.1441642046,-0.0293215327,-0.3481931984,1.211466074,-9.493009567,5.106832027,-251.97701149425288,75.47126436781609,623.4137931034483,-8241.32183908046,331.08045977011494,-2368.5057471264367,1
2024-06-14 18:16:41,0.02199114859,0.03298672289,-0.03665191308,1.580173135,-6.871358871,6.883329868,-393.7272727272728,-361.77272727272725,223.45454545454544,-7983.727272727273,244.04545454545453,-2245.590909090909,1
2024-06-14 18:16:41,0.02199114859,0.03298672289,-0.03665191308,1.580173135,-6.871358871,6.883329868,87.41758241758242,-286.42857142857144,323.46153846153845,-8219.032967032967,487.8791208791209,-2102.4835164835163,1
2024-06-14 18:16:41,-4.896695614,-1.03969264,0.618195653,0.3854664862,-14.14973164,-1.805228114,-114.5764705882353,-430.5764705882353,-277.4,-7861.635294117647,423.5529411764706,-1874.8705882352945,1
2024-06-14 18:16:41,3.326772213,0.7843509912,-1.225395679,-2.255337954,-3.514688015,10.08198357,-180.9090909090909,-374.45454545454544,-31.75,-8057.545454545455,501.1136363636364,-1905.772727272728,1
2024-06-14 18:16:41,3.326772213,0.7843509912,-1.225395679,-2.255337954,-3.514688015,10.08198357,-209.54651162790697,176.7093023255814,-328.0232558139535,-7919.267441860465,581.046511627907,-1888.6976744186047,1
2024-06-14 18:16:41,0.7367035151,-0.1331686229,-0.2211332172,-0.3184288144,-7.738059998,3.093308687,-240.021978021978,24.846153846153847,-267.2087912087912,-7945.714285714285,583.2637362637363,-2075.703296703297,1
2024-06-14 18:16:42,0.7367035151,-0.1331686229,-0.2211332172,-0.3184288144,-7.738059998,3.093308687,-177.3258426966292,-15.494382022471882,-110.97752808988764,-8229.808988764045,197.1573033707865,-2120.202247191012,1
2024-06-14 18:16:42,-0.381179899,-0.07819075137,-0.2235766798,-0.806845963,-7.448361397,6.076483727,-436.7021276595744,350.645390070922,316.20567375886526,-7677.354609929078,434.8581560283688,-1945.645390070922,1
2024-06-14 18:16:42,-0.6890559793,0.1209513173,0.2235766798,0.9457096457,-6.39491272,5.975927353,-806.9148936170213,515.1843971631206,536.7730496453901,-7912.815602836879,620.6737588652483,-2210.1843971631206,1
2024-06-14 18:16:42,-0.6890559793,0.1209513173,0.2235766798,0.9457096457,-6.39491272,5.975927353,-5832.574712643678,-958.2183908045976,1018.7931034482758,-8052.333333333333,1609.7816091954023,-2242.1264367816093,1
2024-06-14 18:16:42,-0.3787364662,0.106290549,0.2015855312,-0.1723825186,-6.727706909,6.713341713,-3820.1724137931033,-875.2758620689656,215.7586206896552,-7786.9655172413795,844.9655172413793,-1586.6206896551723,1
2024-06-14 18:16:42,0.161268428,0.007330383174,-0.03787364438,0.2394201756,-8.202534676,5.803544998,-1765.5244755244755,-269.24475524475525,-88.01398601398601,-7840.636363636364,1222.629370629371,-1374.2447552447552,1
2024-06-14 18:16:42,0.161268428,0.007330383174,-0.03787364438,0.2394201756,-8.202534676,5.803544998,-1554.3356643356642,-157.35664335664336,-53.04895104895105,-7849.727272727273,1249.2027972027972,-1362.3566433566434,1
2024-06-14 18:16:42,0.1722639948,-0.06597344577,-0.1588249654,0.5434837937,-7.596801758,6.047753334,428.9655172413793,-29.701149425287355,-74.65517241379311,-8039.632183908046,1981.0229885057472,-980.0344827586208,1
2024-06-14 18:16:42,0.1722639948,-0.06597344577,-0.1588249654,0.5434837937,-7.596801758,6.047753334,279.97752808988764,254.8314606741573,-232.31460674157304,-8058.0,1776.6516853932585,-994.943820224719,1
2024-06-14 18:16:42,-0.6010913849,0.1282816976,0.1466076523,-0.2274491638,-8.413225174,5.19781208,215.46067415730337,314.3370786516854,-509.1685393258427,-8191.494382022472,2045.5280898876404,-1339.3033707865168,1
2024-06-14 18:16:43,-0.04398229718,0.1392772794,0.6096435189,0.3399766386,-6.835445881,5.415684223,-57.46739130434781,209.3804347826087,-776.5869565217391,-7683.652173913044,1530.8152173913045,-1223.3369565217392,1
2024-06-14 18:16:43,-0.04398229718,0.1392772794,0.6096435189,0.3399766386,-6.835445881,5.415684223,277.7865168539326,219.42696629213484,-272.24719101123594,-7878.70786516854,1552.8988764044943,-1633.247191011236,1
2024-06-14 18:16:43,1.141096234,0.1759291887,0.3555235863,1.036689281,-8.195352554,5.882553577,327.8735632183908,232.7816091954023,-330.18390804597703,-8000.758620689655,1546.0344827586207,-1502.0919540229886,1
2024-06-14 18:16:43,-1.821600199,0.08796459436,-0.2064724565,-0.6943184733,-9.902418137,4.108449936,2202.333333333333,349.66666666666663,15.133333333333333,-7517.288888888889,787.0222222222222,-1378.2444444444443,1
2024-06-14 18:16:43,-1.821600199,0.08796459436,-0.2064724565,-0.6943184733,-9.902418137,4.108449936,3975.808988764045,2069.966292134832,141.22471910112358,-7301.887640449439,570.4943820224719,-1843.6067415730336,1
2024-06-14 18:16:43,2.926044464,-0.5070181489,0.1942551434,3.134010077,-5.013458252,-1.707065821,5185.782608695652,3793.695652173913,568.5217391304348,-7277.217391304348,838.4782608695652,-2510.7391304347825,1
2024-06-14 18:16:43,2.926044464,-0.5070181489,0.1942551434,3.134010077,-5.013458252,-1.707065821,705.2941176470588,2255.7764705882355,1348.0588235294117,-7707.211764705882,1526.9882352941177,-4186.670588235294,1
2024-06-14 18:16:43,0.09407325089,0.2590068579,0.7525860071,-1.391031146,-8.123526573,6.809109688,680.2781954887218,390.7067669172933,1339.421052631579,-7311.4060150375935,1567.5864661654136,-4232.796992481203,1
2024-06-14 18:16:43,-0.1136209369,0.1172861308,0.05009094998,-0.490811348,-7.493851185,6.289567947,533.0,-224.9090909090909,548.7272727272727,-6739.818181818182,1326.2727272727273,-3383.0,1
2024-06-14 18:16:43,-0.1136209369,0.1172861308,0.05009094998,-0.490811348,-7.493851185,6.289567947,-755.0222222222222,660.6333333333333,-32.27777777777778,-7181.911111111112,715.1888888888889,-3806.8333333333335,1
2024-06-14 18:16:44,0.3885102868,0.01954768784,0.04764748737,-0.3351882398,-7.709329605,6.224924564,-551.6870229007634,550.8396946564885,147.3587786259542,-6844.519083969466,1368.9847328244275,-4021.847328244274,1
2024-06-14 18:16:44,-0.09040805697,0.007330383174,-0.02565634064,-0.5219359994,-7.788338184,6.059724331,-585.2748091603054,236.3358778625954,289.3435114503817,-6801.007633587787,1243.793893129771,-4169.93893129771,1
2024-06-14 18:16:44,-0.09040805697,0.007330383174,-0.02565634064,-0.5219359994,-7.788338184,6.059724331,-456.043956043956,570.4615384615385,-116.34065934065934,-6807.494505494506,1541.3186813186812,-4033.78021978022,1
2024-06-14 18:16:44,-0.1514945775,-0.0415388383,-0.003665191587,-0.4692635238,-7.931990147,6.06211853,-292.41379310344826,493.2413793103448,-8.310344827586206,-6841.310344827586,1678.4827586206898,-4041.689655172414,1
2024-06-14 18:16:44,-0.1514945775,-0.0415388383,-0.003665191587,-0.4692635238,-7.931990147,6.06211853,-268.967032967033,215.96703296703296,29.27472527472528,-6814.549450549451,1449.6813186813188,-4182.516483516483,1
2024-06-14 18:16:44,-0.3995058835,0.05497787148,-0.02076941915,-0.5698199868,-8.434772491,5.480327606,-302.0,338.33333333333337,-152.33333333333334,-6587.666666666667,1446.3333333333333,-4264.0,1
2024-06-14 18:16:44,0.2101376504,-0.08185594529,0.004886921961,-0.3711012602,-7.714118004,5.839457989,-753.0114942528736,333.57471264367814,-219.26436781609195,-6824.666666666667,1528.528735632184,-4359.908045977011,1
2024-06-14 18:16:44,0.2101376504,-0.08185594529,0.004886921961,-0.3711012602,-7.714118004,5.839457989,-528.9101123595506,306.35955056179773,-199.2584269662921,-6341.865168539326,1626.8539325842696,-4245.786516853933,1
2024-06-14 18:16:44,0.1527163088,0.04276056588,-0.1380555481,-0.6416460276,-8.370129585,5.695806026,-379.4772727272728,102.76136363636364,-577.5568181818181,-6431.761363636364,1424.284090909091,-4455.931818181818,1
2024-06-14 18:16:44,-0.216246292,0.01832595654,0.0109955743,-0.538695395,-7.752425194,6.291962147,-175.91011235955057,-120.13483146067416,-259.08988764044943,-6380.719101123596,1595.0786516853932,-4080.280898876405,1
2024-06-14 18:16:45,-0.216246292,0.01832595654,0.0109955743,-0.538695395,-7.752425194,6.291962147,-549.1348314606741,-120.24719101123594,-207.8426966292135,-6428.966292134832,1209.8539325842696,-4379.516853932584,1
2024-06-14 18:16:45,0.2235766798,-0.03298672289,0.09651670605,-0.4429273009,-8.240841866,5.68144083,-181.03529411764703,-276.90588235294115,-56.41176470588235,-6298.258823529412,1690.7058823529412,-4396.047058823529,1
2024-06-14 18:16:45,0.2235766798,-0.03298672289,0.09651670605,-0.4429273009,-8.240841866,5.68144083,65.86206896551724,-161.9655172413793,-101.51724137931036,-7019.241379310345,1619.896551724138,-4052.448275862069,1
2024-06-14 18:16:45,-0.1808161139,0.05619960278,-0.03665191308,-0.5243301988,-9.222464561,4.941632271,-54.625,-224.3125,-292.625,-6424.333333333333,1454.4791666666667,-4327.354166666667,1
2024-06-14 18:16:45,-0.1649336219,0.006108652335,0.03298672289,-0.490811348,-7.967903137,6.016628742,91.25842696629212,-241.1348314606741,39.10112359550562,-6762.359550561798,1645.8988764044943,-4130.471910112359,1
2024-06-14 18:16:45,-0.1649336219,0.006108652335,0.03298672289,-0.490811348,-7.967903137,6.016628742,14.772727272727252,-182.79545454545453,0.1590909090909065,-6917.386363636364,1539.4545454545455,-4143.272727272727,1
2024-06-14 18:16:45,0.283441484,-0.02443460934,0.1563815027,-0.4860229492,-8.341399193,5.815515995,-15.198473282442734,-483.86259541984737,-84.68702290076335,-6747.839694656489,1583.0152671755725,-4084.122137404581,1
2024-06-14 18:16:45,0.1539380401,-0.0293215327,-0.1576032341,-0.323217243,-7.647080421,6.368576527,-25.827586206896555,-147.17241379310346,63.89655172413793,-7004.827586206897,1270.7931034482758,-3766.1724137931033,1
2024-06-14 18:16:45,-0.0354301855,0.006108652335,-0.03176499158,-0.2394201756,-7.963114738,5.877765179,88.9,-367.03333333333336,-59.73333333333333,-6945.133333333333,1492.2333333333331,-3819.5666666666666,1
2024-06-14 18:16:46,-0.0354301855,0.006108652335,-0.03176499158,-0.2394201756,-7.963114738,5.877765179,100.63529411764706,-248.08235294117648,-340.16470588235296,-6903.247058823529,1263.4,-3888.564705882353,1
2024-06-14 18:16:46,-0.6120869517,0.09162978828,0.1722639948,-0.1005564705,-7.412448406,6.418854713,43.70786516853933,-303.1573033707865,-339.2247191011236,-7100.191011235955,1242.741573033708,-3811.1573033707855,1
2024-06-14 18:16:46,-0.6414085031,0.1466076523,0.3359758854,-0.2968810201,-8.537723541,5.851428986,62.37078651685394,-85.59550561797752,-198.1011235955056,-6590.640449438202,1311.1797752808989,-3896.8651685393256,1
2024-06-14 18:16:46,-0.6414085031,0.1466076523,0.3359758854,-0.2968810201,-8.537723541,5.851428986,-338.1818181818182,20.045454545454533,199.8181818181818,-7264.545454545455,1366.909090909091,-3937.681818181818,1
2024-06-14 18:16:46,0.01954768784,-0.009773843922,-0.06719517708,-0.4692635238,-9.885659218,4.812345505,-366.43820224719104,-276.96629213483146,112.42696629213484,-6933.921348314607,1220.258426966292,-3799.561797752809,1
2024-06-14 18:16:46,-0.1722639948,0.009773843922,-0.1356120855,-0.2513911724,-7.51300478,6.248866558,-14.0,-445.0,-269.9318181818182,-6897.818181818182,1162.6818181818182,-3897.4545454545455,1
2024-06-14 18:16:46,0.5363397002,-0.06719517708,0.0,0.2585737705,-7.680599213,6.105214119,-300.1818181818182,310.22727272727275,21.113636363636363,-6853.545454545455,1290.25,-3947.795454545456,1
2024-06-14 18:16:46,0.5363397002,-0.06719517708,0.0,0.2585737705,-7.680599213,6.105214119,-65.63087248322148,31.02013422818792,-289.9597315436242,-7102.3691275167785,1364.9261744966443,-3884.8120805369126,1
2024-06-14 18:16:46,0.1185078546,-0.0109955743,0.06597344577,0.7948749661,-6.797138691,6.68461132,-44.8255033557047,-226.0268456375839,-504.0536912751678,-6923.174496644296,1340.765100671141,-3750.5838926174497,1
2024-06-14 18:16:47,-0.6976081133,0.1539380401,-0.01221730467,-0.01675941236,-7.979874134,5.920860767,-380.5581395348837,33.55813953488372,217.62790697674416,-7228.697674418605,1328.3488372093022,-3473.139534883721,1
2024-06-14 18:16:47,-0.6976081133,0.1539380401,-0.01221730467,-0.01675941236,-7.979874134,5.920860767,-121.87614678899082,74.00917431192661,273.96330275229354,-6946.568807339449,1198.151376146789,-3880.2155963302753,1
2024-06-14 18:16:47,-0.8258898258,0.228463605,0.5241223574,-0.3663128614,-8.607154846,5.506663799,-49.15469613259668,-136.20441988950276,58.80110497237569,-7408.480662983426,1355.0055248618785,-3798.486187845304,1
2024-06-14 18:16:47,0.2064724565,-0.01466076635,-0.01954768784,-0.2442085743,-8.616731644,5.705382824,198.52941176470583,-141.0,92.05882352941175,-7306.882352941177,1361.529411764706,-3680.705882352941,1
2024-06-14 18:16:47,0.2064724565,-0.01466076635,-0.01954768784,-0.2442085743,-8.616731644,5.705382824,293.3636363636364,-203.63636363636363,29.454545454545453,-7159.0,1542.6363636363635,-3355.181818181818,1
2024-06-14 18:16:47,0.393397212,-0.05619960278,-0.09773843735,0.5770025849,-7.54891777,6.500257492,-148.4,236.66666666666669,-240.3333333333333,-7248.066666666667,1320.2,-3499.133333333333,1
2024-06-14 18:16:47,0.4178318381,0.006108652335,0.05009094998,0.8882488012,-7.534552574,6.320692539,-343.0561797752809,-226.96629213483143,-46.59550561797752,-6978.3707865168535,1340.9101123595506,-3671.921348314607,1
2024-06-14 18:16:47,0.04642575979,0.1392772794,0.287106663,0.4740519226,-7.486668587,6.31829834,321.20454545454544,-423.54545454545456,-54.52272727272727,-7100.409090909091,1328.25,-3608.068181818182,1
2024-06-14 18:16:47,0.04642575979,0.1392772794,0.287106663,0.4740519226,-7.486668587,6.31829834,-111.93258426966293,-25.30337078651685,-318.8988764044944,-7180.224719101124,1337.3258426966293,-3281.4044943820227,1
2024-06-14 18:16:48,-0.1844813079,0.2247984111,0.3298672438,0.04788403213,-8.159439087,5.750872612,107.71910112359552,-131.22471910112358,-158.08988764044943,-7126.38202247191,1356.505617977528,-3462.3932584269664,1
2024-06-14 18:16:48,-0.770911932,0.0171042271,0.2736676335,-0.06224924326,-9.22725296,5.324704647,-285.85393258426967,-360.4494382022472,-295.6292134831461,-7355.797752808989,1299.9662921348315,-3268.674157303371,1
2024-06-14 18:16:48,-0.770911932,0.0171042271,0.2736676335,-0.06224924326,-9.22725296,5.324704647,69.52325581395348,-323.74418604651163,31.25581395348837,-7193.406976744186,974.4883720930231,-3260.546511627907,1
2024-06-14 18:16:48,-0.1795943826,0.1075122803,-0.2883284092,-0.09576806426,-10.22084713,4.517858505,230.9090909090909,53.0,-103.54545454545456,-7174.818181818182,1315.6363636363635,-3230.6363636363635,1
2024-06-14 18:16:48,-0.1795943826,0.1075122803,-0.2883284092,-0.09576806426,-10.22084713,4.517858505,-30.198581560283685,59.290780141843975,-156.7163120567376,-7088.113475177305,1335.914893617021,-3441.780141843972,1
2024-06-14 18:16:48,-0.522900641,0.01954768784,0.0293215327,-0.0359130241,-9.145850182,5.137956619,-82.41666666666667,-161.25,-56.333333333333336,-7323.583333333333,1302.8333333333333,-3419.583333333333,1
2024-06-14 18:16:48,-0.2431243658,0.0415388383,0.2919935882,0.007182605099,-8.267178535,6.071695328,-213.23076923076923,-57.76923076923077,-207.0,-7472.0,957.0769230769232,-3422.230769230769,1
2024-06-14 18:16:48,-0.2431243658,0.0415388383,0.2919935882,0.007182605099,-8.267178535,6.071695328,47.60431654676259,-32.8273381294964,98.50359712230215,-7397.136690647482,1041.6187050359713,-3354.942446043165,1
2024-06-14 18:16:48,-0.3457497358,0.1759291887,0.3689626157,-0.04788403213,-7.529764175,6.052541733,97.96402877697842,-318.43884892086334,107.136690647482,-7125.194244604317,1326.5107913669065,-3216.812949640288,1
2024-06-14 18:16:48,0.02687807009,0.1295034289,0.2150245607,-0.1029506698,-6.91684866,6.39491272,-358.1555555555556,-172.0,-114.57777777777778,-7165.622222222222,1300.8444444444444,-3382.5777777777776,1
2024-06-14 18:16:49,0.02687807009,0.1295034289,0.2150245607,-0.1029506698,-6.91684866,6.39491272,-275.96629213483146,-342.9887640449438,30.247191011235955,-7485.61797752809,1330.4831460674156,-3350.168539325842,1
2024-06-14 18:16:49,-1.505172014,0.02565634064,0.1111774743,-0.390254885,-7.02937603,7.199364662,-848.6086956521739,-495.7173913043478,-169.17391304347825,-7666.95652173913,1458.5652173913045,-3382.326086956521,1
2024-06-14 18:16:49,-1.505172014,0.02565634064,0.1111774743,-0.390254885,-7.02937603,7.199364662,-2399.857142857143,-1320.571428571429,86.57142857142857,-7627.714285714285,1788.2857142857142,-3206.8571428571427,1
2024-06-14 18:16:49,4.824613571,-0.7855727077,-0.616973877,3.627215624,-4.295197964,-4.766855717,-4945.405405405405,-2303.6486486486488,587.6621621621622,-7507.972972972973,1364.2702702702702,-2687.810810810811,1
2024-06-14 18:16:49,0.3530801237,0.1148426682,0.1392772794,0.08619125932,-7.642292023,5.724536419,-1421.7391304347825,-688.4565217391304,-178.47826086956522,-7382.739130434783,1372.3695652173913,-2017.3260869565213,1
2024-06-14 18:16:49,0.3530801237,0.1148426682,0.1392772794,0.08619125932,-7.642292023,5.724536419,-808.5208333333334,-467.5,-305.4166666666667,-7608.9375,1693.2291666666667,-1728.4166666666667,1
2024-06-14 18:16:49,-1.329242826,0.1270599663,0.2419026345,0.04309562966,-9.478644371,5.497087002,-227.12121212121207,-871.3333333333334,411.8484848484849,-8048.424242424242,2632.696969696969,-1543.2424242424242,1
2024-06-14 18:16:49,-0.779464066,0.03054326214,0.2064724565,-0.2418143749,-8.882488251,5.64552784,-153.46067415730337,-899.7191011235955,177.42696629213484,-7693.348314606742,2532.438202247191,-1413.7078651685392,1
2024-06-14 18:16:49,-0.779464066,0.03054326214,0.2064724565,-0.2418143749,-8.882488251,5.64552784,-291.8848920863309,-678.9640287769785,-306.8848920863309,-7748.438848920863,2253.3525179856115,-1231.5179856115108,1
2024-06-14 18:16:49,-1.051909924,-0.03909537569,0.1942551434,-0.2920926213,-11.40118885,3.890577793,-228.56410256410257,-880.5128205128206,-572.974358974359,-7957.333333333333,1971.6666666666667,-1082.974358974359,1
2024-06-14 18:16:50,-1.051909924,-0.03909537569,0.1942551434,-0.2920926213,-11.40118885,3.890577793,-141.69230769230768,-604.3846153846154,-187.30769230769232,-7863.307692307692,2223.4615384615386,-728.8461538461538,1
2024-06-14 18:16:50,-0.1172861308,0.03298672289,-0.1490511149,-0.2106897533,-11.48259163,4.177882195,-1039.875,-329.25,-324.5,-7842.375,2352.375,-837.625,1
2024-06-14 18:16:50,0.6499606371,-0.05864306539,0.003665191587,0.4740519226,-8.887276649,5.786785603,-964.8157894736842,6.21052631578948,-215.0,-7868.210526315789,2021.065789473684,-814.2236842105264,1
2024-06-14 18:16:50,0.6499606371,-0.05864306539,0.003665191587,0.4740519226,-8.887276649,5.786785603,-109.14814814814817,157.49382716049382,-552.6172839506173,-8050.543209876543,1783.7283950617284,-1029.4074074074074,1
2024-06-14 18:16:50,-0.06352998316,0.08918632567,0.283441484,0.6344634295,-6.938396454,6.306327343,-316.3908045977012,289.2298850574713,-269.7241379310345,-8229.919540229885,2048.597701149425,-983.5172413793103,1
2024-06-14 18:16:50,-0.08918632567,0.1490511149,0.2235766798,0.1651999205,-8.303091049,6.289567947,-128.0625,93.75,43.625,-7897.010416666667,1693.0416666666667,-850.1979166666666,1
2024-06-14 18:16:50,-0.08918632567,0.1490511149,0.2235766798,0.1651999205,-8.303091049,6.289567947,315.475,205.15,47.8,-8064.5,1627.775,-716.275,1
2024-06-14 18:16:50,-3.050661087,-0.3946189582,-0.1038470939,-0.8164227605,-7.860164165,5.480327606,2444.168539325842,519.3932584269662,48.82022471910113,-7584.797752808989,661.4044943820224,-611.6179775280899,1
2024-06-14 18:16:50,-3.050661087,-0.3946189582,-0.1038470939,-0.8164227605,-7.860164165,5.480327606,8571.1,3362.9222222222224,-682.7333333333333,-7157.555555555556,240.52222222222224,-1941.9444444444443,1
2024-06-14 18:16:50,1.214400053,0.1624901593,0.6902777553,0.8475474119,-8.274360657,4.153939724,6951.539325842697,3521.4606741573034,-791.6629213483146,-8312.460674157302,2037.3370786516853,-3296.6853932584268,1
2024-06-14 18:16:51,0.3469714522,-0.01343903504,-0.03176499158,1.053448796,-8.860940933,4.517858505,857.4065934065934,52.39560439560438,805.6373626373627,-7939.505494505494,1626.2857142857142,-3367.3076923076924,1
2024-06-14 18:16:51,0.3469714522,-0.01343903504,-0.03176499158,1.053448796,-8.860940933,4.517858505,-326.5113636363636,32.06818181818182,562.1136363636364,-7388.045454545455,845.8522727272727,-2843.8863636363635,1
2024-06-14 18:16:51,0.009773843922,-0.0293215327,0.05009094998,1.058237195,-9.279925346,4.544194698,-194.3956043956044,37.92307692307692,-86.98901098901099,-7757.054945054945,865.021978021978,-2796.714285714286,1
2024-06-14 18:16:51,-0.07941248268,0.01343903504,-0.2028072625,0.7350199223,-10.10353088,3.253720045,41.80487804878049,-141.58536585365854,-83.0,-7646.963414634146,776.5121951219512,-2736.134146341464,1
2024-06-14 18:16:51,-0.07941248268,0.01343903504,-0.2028072625,0.7350199223,-10.10353088,3.253720045,-255.1470588235294,0.602941176470587,-53.42647058823529,-7328.441176470588,967.970588235294,-2870.6029411764707,1
2024-06-14 18:16:51,-0.2590068579,0.01466076635,-0.2541199327,0.7924807668,-10.05804157,3.502717018,-538.9705882352941,-120.72058823529412,-311.5147058823529,-7329.911764705882,731.2058823529412,-2899.279411764706,1
2024-06-14 18:16:51,-0.2590068579,0.01466076635,-0.2541199327,0.7924807668,-10.05804157,3.502717018,-12.54794520547945,-599.9589041095891,-164.6027397260274,-7604.45205479452,739.0,-2745.013698630137,1
2024-06-14 18:16:51,0.3188716471,-0.06352998316,-0.299323976,1.199495077,-8.700529099,4.853046894,66.19101123595506,-1034.629213483146,56.50561797752809,-7509.61797752809,669.8988764044943,-2665.505617977528,1
2024-06-14 18:16:51,0.6414085031,0.03054326214,-0.1380555481,1.333570361,-8.195352554,5.305551052,-98.70212765957449,-619.3617021276596,-28.02127659574468,-7500.170212765957,765.7659574468086,-2421.744680851064,1
2024-06-14 18:16:51,0.6414085031,0.03054326214,-0.1380555481,1.333570361,-8.195352554,5.305551052,-150.45238095238096,-579.0238095238095,-179.88095238095238,-7567.5,826.2142857142858,-2359.690476190476,1
2024-06-14 18:16:52,-0.5461135507,0.0232128799,0.02443460934,0.8786720037,-8.667010307,4.65193367,10.355555555555556,-286.5777777777778,-372.56666666666666,-7593.644444444444,646.4888888888889,-2374.2444444444445,1
2024-06-14 18:16:52,-0.2101376504,0.0171042271,0.1233947799,0.6224924326,-8.789113998,5.35343504,-136.84615384615384,-1.582417582417584,-250.3186813186813,-7962.153846153846,860.8681318681319,-2077.351648351648,1
2024-06-14 18:16:52,-0.2101376504,0.0171042271,0.1233947799,0.6224924326,-8.789113998,5.35343504,-286.6162790697674,-251.2093023255814,-235.0581395348837,-7897.639534883721,800.0116279069767,-1995.9651162790697,1
2024-06-14 18:16:52,-1.005484223,0.01832595654,0.04276056588,0.6799532771,-8.513781548,4.922478676,32.97727272727273,-445.875,-398.9318181818182,-8080.113636363636,813.9431818181819,-2253.6477272727275,1
2024-06-14 18:16:52,-1.005484223,0.01832595654,0.04276056588,0.6799532771,-8.513781548,4.922478676,6.59550561797753,-518.0786516853932,-573.2247191011236,-8137.955056179775,634.2022471910112,-1977.6966292134832,1
2024-06-14 18:16:52,-0.3066543639,0.0232128799,0.0354301855,0.9169792533,-9.555258751,4.503493309,-22.454545454545453,-246.0909090909091,-495.95454545454544,-7636.318181818182,271.3636363636364,-1767.0227272727273,1
2024-06-14 18:16:52,-4.097683907,-0.37751472,-0.381179899,-0.5530605912,-8.001421928,5.31512785,15.136363636363637,31.806818181818183,17.94318181818182,-7864.818181818182,444.4886363636364,-1723.7613636363635,1
2024-06-14 18:16:52,-4.097683907,-0.37751472,-0.381179899,-0.5530605912,-8.001421928,5.31512785,-15.967741935483843,74.19354838709677,279.8709677419355,-8219.129032258064,451.5806451612904,-1763.1612903225807,1
2024-06-14 18:16:52,0.8637634516,-0.1466076523,0.441044718,1.929726601,-5.956773758,2.628833532,257.2558139534884,-458.59302325581393,308.2325581395349,-7938.732558139535,480.90697674418607,-1879.2325581395348,1
2024-06-14 18:16:53,1.949881911,0.141720742,0.1356120855,-0.7972691655,-7.999027729,5.942408562,271.4788732394366,-657.7464788732394,-51.29577464788733,-8232.901408450703,798.5070422535211,-1380.661971830986,1
2024-06-14 18:16:53,-0.2981022298,0.1783726513,0.2602286041,0.004788403399,-8.250418663,6.088454723,286.2676056338028,-785.2112676056338,-94.25352112676056,-8001.915492957746,793.5774647887324,-1367.281690140845,1
2024-06-14 18:16:53,-0.2981022298,0.1783726513,0.2602286041,0.004788403399,-8.250418663,6.088454723,-181.25925925925924,-28.333333333333336,27.03703703703704,-8016.777777777777,576.7777777777778,-1344.3333333333333,1
2024-06-14 18:16:53,0.6462954283,0.04520402849,0.0354301855,-0.0023942017,-7.457938194,6.727706909,84.52873563218391,-294.7241379310345,18.06896551724138,-8104.977011494253,632.9540229885058,-1321.3218390804598,1
2024-06-14 18:16:53,0.07574728876,-0.008552113548,-0.2076941878,0.09576806426,-7.115567684,6.845022678,-288.9862068965517,-72.2,-97.68275862068964,-7975.958620689656,605.255172413793,-1200.855172413793,1
2024-06-14 18:16:53,0.07574728876,-0.008552113548,-0.2076941878,0.09576806426,-7.115567684,6.845022678,330.42857142857144,-209.42857142857144,-101.42857142857144,-8150.428571428572,779.7142857142857,-1055.142857142857,1
2024-06-14 18:16:53,0.1563815027,-0.01954768784,0.1050688252,0.04309562966,-7.000645638,7.225700855,-269.1379310344828,-9.413793103448256,54.0,-8069.689655172414,398.8965517241379,-1109.655172413793,1
2024-06-14 18:16:53,-0.25167647,-0.05375614017,0.1588249654,-0.1795651317,-7.800309181,6.478709698,-229.0,94.9,-251.8,-7896.7,471.6,-986.9,1
2024-06-14 18:16:53,-0.25167647,-0.05375614017,0.1588249654,-0.1795651317,-7.800309181,6.478709698,70.16483516483515,-260.8791208791209,66.35164835164835,-8250.10989010989,488.7912087912088,-960.131868131868,1
2024-06-14 18:16:53,-0.08429940045,0.08674286306,-0.06597344577,-0.141257897,-7.034164429,7.134721279,68.19774011299435,-344.45762711864404,-276.0282485875706,-8234.42372881356,599.0734463276837,-1273.734463276836,1
2024-06-14 18:16:54,-0.08429940045,0.08674286306,-0.06597344577,-0.141257897,-7.034164429,7.134721279,62.0,-215.5,-242.0,-8214.0,578.75,-1216.25,1
2024-06-14 18:16:54,-0.2919935882,0.1356120855,-0.145385921,-0.323217243,-6.842628479,7.082048416,-405.6555555555556,-212.42222222222225,-82.04444444444445,-7974.988888888889,616.6888888888889,-1005.1555555555556,1
2024-06-14 18:16:54,0.216246292,0.01588249579,-0.09529497474,-0.06464344263,-7.486668587,6.50744009,-551.08,-161.34666666666666,-31.333333333333336,-7904.866666666667,549.48,-1072.6666666666667,1
2024-06-14 18:16:54,0.216246292,0.01588249579,-0.09529497474,-0.06464344263,-7.486668587,6.50744009,-196.4065934065934,52.96703296703296,315.6263736263736,-8507.945054945056,444.13186813186815,-1069.4835164835165,1
2024-06-14 18:16:54,-1.259604096,0.06230825558,-0.03176499158,-0.1915361285,-8.121131897,5.774814606,-1199.818181818182,-192.5,640.6363636363636,-8563.227272727272,1163.0454545454545,-1439.1363636363635,1
2024-06-14 18:16:54,-0.3652974069,0.0354301855,-0.009773843922,-0.09337386489,-9.121908188,4.297592163,-5846.573033707865,-480.5056179775281,1791.7303370786517,-8292.23595505618,1345.8539325842696,-812.1011235955057,1
2024-06-14 18:16:54,-0.3652974069,0.0354301855,-0.009773843922,-0.09337386489,-9.121908188,4.297592163,-6193.389705882353,-245.36029411764707,1190.4632352941176,-7983.257352941177,747.8455882352941,-806.8529411764706,1
2024-06-14 18:16:54,-0.1991420686,0.01343903504,0.02443460934,-0.0191536136,-9.428366661,3.823540211,-956.6666666666666,564.8666666666667,-170.6,-7848.933333333333,1711.7333333333331,-557.7333333333333,1
2024-06-14 18:16:54,0.1820378453,-0.004886921961,-0.00122173049,-0.05985504389,-9.311050415,4.031835556,-1056.0469798657718,-312.77852348993287,-189.99328859060404,-8164.442953020134,1790.6979865771812,-411.2953020134228,1
2024-06-14 18:16:55,0.3481931984,0.0171042271,0.006108652335,-0.05985504389,-8.908824921,4.721365929,-1035.241610738255,-253.71812080536915,-221.53691275167785,-8182.563758389262,2010.1610738255035,-423.3758389261745,1
2024-06-14 18:16:55,0.3481931984,0.0171042271,0.006108652335,-0.05985504389,-8.908824921,4.721365929,-6388.593023255814,-4468.0,-2080.639534883721,-8709.139534883721,1900.116279069768,357.3604651162791,1
2024-06-14 18:16:55,-0.06230825558,0.009773843922,-0.008552113548,-0.07661445439,-8.904036522,4.742913723,-5762.965909090909,-3779.988636363637,-2232.4772727272725,-7551.193181818182,207.57954545454544,1746.8181818181818,1
2024-06-14 18:16:55,-0.01954768784,0.0171042271,0.01954768784,-0.04070143029,-8.808267593,4.776432514,-2613.8314606741574,-1499.1573033707866,-2645.2921348314608,-8032.685393258427,-62.41573033707866,2144.303370786517,1
2024-06-14 18:16:55,-0.01954768784,0.0171042271,0.01954768784,-0.04070143029,-8.808267593,4.776432514,-556.0898876404494,-464.8876404494382,-2921.775280898876,-8162.5842696629215,-220.6292134831461,2414.4606741573034,1
2024-06-14 18:16:55,-0.06719517708,-0.007330383174,-0.01221730467,-0.007182605099,-8.937555313,4.695029736,521.8888888888889,199.93333333333328,-2022.6888888888889,-7861.955555555555,-889.5111111111111,2618.333333333333,1
2024-06-14 18:16:55,-0.06719517708,-0.007330383174,-0.01221730467,-0.007182605099,-8.937555313,4.695029736,14068.362637362638,5919.956043956044,-686.9010989010989,-7394.714285714285,-3004.208791208792,501.6483516483517,1
2024-06-14 18:16:55,-0.1197295859,0.0171042271,0.01343903504,-0.1053448766,-8.647856712,4.8291049,16858.156424581004,5912.156424581006,-1082.4972067039107,-8417.27374301676,-42.88826815642458,-1459.7486033519554,1
2024-06-14 18:16:55,0.03665191308,-0.009773843922,-0.03176499158,-0.08858546615,-8.662221909,4.994304657,15371.00558659218,5425.005586592179,-676.9106145251396,-8564.759776536313,380.5754189944134,-1456.95530726257,1
2024-06-14 18:16:55,0.03665191308,-0.009773843922,-0.03176499158,-0.08858546615,-8.662221909,4.994304657,4411.951807228916,830.0,626.1084337349398,-9028.240963855422,508.3132530120482,-702.843373493976,1
2024-06-14 18:16:56,-0.1136209369,-0.00122173049,-0.0109955743,-0.06224924326,-8.868123055,4.642356873,1460.1666666666667,-312.1777777777778,335.93333333333334,-8300.3,-557.6111111111111,111.42222222222222,1
2024-06-14 18:16:56,-0.03176499158,0.004886921961,-0.01343903504,-0.05267243832,-9.038111687,4.589684486,852.6703296703297,-350.1098901098901,205.4065934065934,-8368.923076923076,-395.75824175824175,134.84615384615384,1
2024-06-14 18:16:56,-0.03176499158,0.004886921961,-0.01343903504,-0.05267243832,-9.038111687,4.589684486,608.625,-372.75,425.875,-8499.0,-595.5,166.75,1
2024-06-14 18:16:56,0.05131268129,-0.02076941915,-0.00122173049,-0.05985504389,-8.896853447,4.738125324,110.0909090909091,-295.27272727272725,223.8181818181818,-8161.909090909091,-514.8181818181819,202.1818181818182,1
2024-06-14 18:16:56,0.05131268129,-0.02076941915,-0.00122173049,-0.05985504389,-8.896853447,4.738125324,15.873563218390808,269.1954022988506,284.7471264367816,-8184.954022988506,-343.7701149425287,279.8505747126437,1
2024-06-14 18:16:56,-0.009773843922,-0.0293215327,-0.05742133409,-0.0143652102,-8.961497307,4.690241337,-595.5,62.0,-210.25,-8461.5,-469.25,-46.0,1
2024-06-14 18:16:56,0.2101376504,-0.05131268129,-0.02687807009,0.09816227108,-8.681375504,5.171475887,16.75294117647059,312.29411764705884,-329.74117647058824,-8457.423529411764,-638.5176470588235,-85.90588235294118,1
2024-06-14 18:16:56,0.2101376504,-0.05131268129,-0.02687807009,0.09816227108,-8.681375504,5.171475887,132.75,320.5,-276.25,-8516.5,-583.25,78.0,1
2024-06-14 18:16:56,-0.235793978,0.0109955743,0.01588249579,0.1053448766,-8.793902397,5.039794445,197.07142857142856,5.571428571428569,58.10714285714285,-8532.107142857143,-457.7857142857143,26.178571428571427,1
2024-06-14 18:16:56,0.09162978828,-0.01343903504,0.00244346098,0.117315881,-8.535328865,5.300762653,-65.66666666666667,-16.133333333333333,-76.46666666666667,-8169.533333333334,-574.3333333333334,-110.93333333333334,1
2024-06-14 18:16:57,0.09162978828,-0.01343903504,0.00244346098,0.117315881,-8.535328865,5.300762653,-69.66304347826087,273.9021739130435,-32.141304347826086,-8502.641304347826,-240.91304347826087,93.90217391304348,1
2024-06-14 18:16:57,-0.1820378453,0.003665191587,0.006108652335,0.2011129409,-9.126696587,4.647145271,-119.2235294117647,63.44705882352942,-16.694117647058825,-8505.494117647058,-433.1411764705882,59.95294117647059,1
2024-06-14 18:16:57,-0.1820378453,0.003665191587,0.006108652335,0.2011129409,-9.126696587,4.647145271,-88.10416666666667,59.770833333333336,191.9583333333333,-8473.864583333334,-294.95833333333337,62.04166666666666,1
2024-06-14 18:16:57,0.1172861308,-0.06352998316,-0.02076941915,0.117315881,-8.846575737,4.999093056,-232.2168674698795,92.95180722891568,284.9397590361445,-8188.843373493976,-154.80722891566265,114.57831325301206,1
2024-06-14 18:16:57,0.2638937831,0.04642575979,0.03054326214,0.1604115069,-8.767566681,5.195417881,-299.2013888888889,31.40277777777777,-18.15972222222222,-8494.479166666666,-139.73611111111111,111.15277777777776,1
2024-06-14 18:16:57,0.2638937831,0.04642575979,0.03054326214,0.1604115069,-8.767566681,5.195417881,-244.29761904761904,-283.3095238095238,-84.28571428571429,-8452.916666666666,-350.2261904761905,104.02380952380952,1
2024-06-14 18:16:57,-0.2382374406,0.03787364438,0.06475171447,-0.06224924326,-8.317456245,5.398924828,22.227272727272727,78.72727272727273,67.18181818181819,-8456.954545454546,-375.3181818181818,-66.72727272727273,1
2024-06-14 18:16:57,0.5106833577,0.05497787148,0.07574728876,0.04309562966,-8.192957878,5.68383503,-47.55555555555556,45.7,-77.55555555555556,-8185.833333333333,-266.9555555555556,-81.42222222222222,1
2024-06-14 18:16:57,0.5106833577,0.05497787148,0.07574728876,0.04309562966,-8.192957878,5.68383503,4.986301369863014,-20.28767123287671,-40.65753424657535,-8461.90410958904,-161.12328767123287,-109.4931506849315,1
2024-06-14 18:16:57,-0.05986479297,-0.03665191308,-0.09040805697,0.2920926213,-9.157821655,4.584896088,-271.6222222222222,-110.86666666666667,-30.444444444444443,-8508.111111111111,41.46666666666667,121.8,1
2024-06-14 18:16:58,-0.05986479297,-0.03665191308,-0.09040805697,0.2920926213,-9.157821655,4.584896088,48.31818181818182,-52.18181818181819,43.54545454545453,-8498.045454545454,48.72727272727273,116.77272727272728,1
2024-06-14 18:16:58,0.05864306539,-0.008552113548,0.007330383174,0.1963245422,-7.845798969,6.016628742,55.73885350318472,108.91082802547773,88.36305732484077,-8482.458598726114,44.97452229299363,15.203821656050962,1
2024-06-14 18:16:58,0.1588249654,-0.08185594529,-0.2687807083,0.1556231081,-8.489839554,5.506663799,-12.079999999999998,-17.28,57.6,-8330.44,63.48,118.72,1
2024-06-14 18:16:58,0.1588249654,-0.08185594529,-0.2687807083,0.1556231081,-8.489839554,5.506663799,99.73033707865169,-107.12359550561796,59.13483146067416,-8536.58426966292,91.87640449438204,74.31460674157303,1
2024-06-14 18:16:58,-0.05131268129,0.004886921961,-0.04520402849,0.2011129409,-7.546523571,6.10042572,-255.94444444444449,-304.1111111111111,38.388888888888886,-8510.722222222223,-264.44444444444446,-110.88888888888889,1
2024-06-14 18:16:58,-0.3787364662,0.08063421398,0.08674286306,0.08619125932,-8.726864815,5.360617638,78.2258064516129,-307.06451612903226,4.978494623655914,-8520.118279569893,-188.7956989247312,-98.02150537634408,1
2024-06-14 18:16:58,-0.3787364662,0.08063421398,0.08674286306,0.08619125932,-8.726864815,5.360617638,-543.2596685082873,-555.3093922651934,-283.23756906077347,-8482.414364640885,60.03867403314917,-7.447513812154696,1
2024-06-14 18:16:58,0.5485569835,0.03298672289,-0.09407325089,0.4620809257,-6.971915245,6.117185116,-600.3711340206186,-539.8659793814433,-258.90721649484533,-8785.247422680412,99.06185567010309,-139.29896907216494,1
2024-06-14 18:16:58,0.5485569835,0.03298672289,-0.09407325089,0.4620809257,-6.971915245,6.117185116,-1603.5555555555557,-2120.5185185185187,-12.74074074074074,-8997.296296296296,-128.1851851851852,190.2962962962963,1
2024-06-14 18:16:58,-0.5619960427,0.1392772794,0.1392772794,0.1795651317,-8.38928318,6.145915985,-2034.7472527472528,-2409.8571428571427,193.5164835164835,-7992.241758241758,-670.1868131868132,1162.6263736263736,1
2024-06-14 18:16:59,0.2785545588,0.07696902007,0.196698606,0.8427590132,-7.161057472,6.924031258,-1486.1379310344828,-1541.0,763.8965517241379,-7643.586206896552,-597.9655172413793,1461.0344827586207,1
2024-06-14 18:16:59,0.2785545588,0.07696902007,0.196698606,0.8427590132,-7.161057472,6.924031258,-973.3,-567.4,1034.7,-7759.5,374.2,1985.0,1
2024-06-14 18:16:59,-0.0232128799,0.02565634064,-0.05375614017,0.2753331959,-8.537723541,5.91128397,-2605.159090909091,748.4090909090909,1664.7045454545455,-7695.534090909091,1750.4886363636365,1912.1818181818185,1
2024-06-14 18:16:59,-0.4911356568,-0.00244346098,-0.0109955743,-0.009576806799,-9.131484985,5.152322292,-3676.453333333333,-3008.4066666666668,-905.7266666666668,-8445.873333333333,725.8066666666666,1549.9333333333334,1
2024-06-14 18:16:59,-0.4911356568,-0.00244346098,-0.0109955743,-0.009576806799,-9.131484985,5.152322292,-3335.12,-1975.74,-685.06,-8026.54,133.14,1376.6,1
2024-06-14 18:16:59,-0.7611380816,0.01954768784,0.05986479297,0.2585737705,-7.32146883,6.667851925,-2083.222222222222,1326.7111111111112,730.9444444444445,-8115.144444444444,903.0777777777778,826.5222222222222,1
2024-06-14 18:16:59,5.400048733,-0.4202753007,-0.3604104817,3.414131641,-6.31829834,-0.117315881,-428.35632183908046,2953.4137931034484,-1329.4482758620688,-8890.528735632184,919.816091954023,674.7586206896551,1
2024-06-14 18:16:59,5.400048733,-0.4202753007,-0.3604104817,3.414131641,-6.31829834,-0.117315881,1026.1342281879197,181.8255033557047,556.5503355704698,-8630.691275167785,1959.765100671141,1378.0604026845638,1
2024-06-14 18:16:59,1.200961113,0.05619960278,-0.08307767659,0.4548983276,-8.777143478,5.801150799,1068.6666666666663,1261.8333333333333,-1242.0833333333333,-8361.083333333334,574.75,2346.6666666666665,1
2024-06-14 18:16:59,1.200961113,0.05619960278,-0.08307767659,0.4548983276,-8.777143478,5.801150799,-32768.0,-932.6190476190476,-2039.928571428572,-1515.3214285714284,-8907.345238095239,2623.04761904762,1
2024-06-14 18:17:00,-0.3127630055,0.1185078546,0.2309070677,0.4118026793,-7.841010571,5.940014362,-26284.13793103448,-18682.44827586207,2253.586206896552,-3840.137931034483,1501.3793103448274,10729.103448275862,1
2024-06-14 18:17:00,0.2064724565,-0.01466076635,-0.4337143302,0.6823474765,-9.320627213,5.714959621,-12605.68888888889,-1912.4,-5786.844444444445,-9734.955555555556,745.8,13043.577777777778,1
2024-06-14 18:17:00,0.2064724565,-0.01466076635,-0.4337143302,0.6823474765,-9.320627213,5.714959621,-6535.928571428572,-188.7142857142857,-4621.571428571428,-5464.785714285715,-3576.1428571428573,6263.428571428572,1
2024-06-14 18:17:00,-0.2431243658,-0.05253441259,-0.432492584,0.8020575643,-7.642292023,5.839457989,-70.16842105263163,-5917.105263157895,2724.0315789473684,-8596.452631578948,-6757.505263157895,9804.78947368421,1
2024-06-14 18:17:00,-0.2431243658,-0.05253441259,-0.432492584,0.8020575643,-7.642292023,5.839457989,-2845.0714285714284,-14714.571428571428,-14934.452380952382,-3691.071428571429,-4568.928571428572,7141.5,1
2024-06-14 18:17:00,-0.342084527,-0.07086037099,-0.2101376504,0.3208230138,-8.973467827,5.779603004,-2441.222222222222,8320.888888888889,7879.666666666666,1984.4444444444443,-5282.0,6197.222222222223,1
2024-06-14 18:17:00,-0.3371976018,0.04642575979,0.1576032341,0.4118026793,-7.187393665,6.528987885,229.9310344827586,5497.896551724138,5108.862068965517,-2854.4827586206898,-5026.724137931034,6680.482758620689,1
2024-06-14 18:17:00,-0.3371976018,0.04642575979,0.1576032341,0.4118026793,-7.187393665,6.528987885,130.409090909091,-14299.590909090908,-13238.227272727272,111.36363636363647,-5701.363636363636,6610.045454545455,1
2024-06-14 18:17:00,0.7525860071,0.003665191587,0.02076941915,1.230619669,-6.512228489,7.026981831,-1016.7613636363636,7286.272727272727,7130.329545454546,349.75,-5606.215909090909,6538.988636363636,1
2024-06-14 18:17:00,0.09162978828,0.003665191587,-0.007330383174,1.00317049,-7.69257021,6.399701118,18.280898876404507,1418.7078651685397,960.7865168539328,-1530.943820224719,-5660.393258426966,6964.842696629214,1
2024-06-14 18:17:01,0.09162978828,0.003665191587,-0.007330383174,1.00317049,-7.69257021,6.399701118,141.33333333333334,-8143.333333333333,-7557.142857142857,-472.6190476190476,-5661.0,6993.285714285715,1
2024-06-14 18:17:01,-0.04031710699,-0.05619960278,-0.05986479297,0.5434837937,-10.68532181,5.509057999,-384.6976744186047,4688.162790697675,4516.906976744186,350.4186046511628,-5682.581395348837,6919.046511627907,1
2024-06-14 18:17:01,-0.04031710699,-0.05619960278,-0.05986479297,0.5434837937,-10.68532181,5.509057999,351.2857142857143,-4717.392857142857,-4367.833333333333,324.9761904761905,-5647.559523809524,6917.607142857143,1
2024-06-14 18:17:01,-2.62916398,-0.8613200188,-0.1759291887,-0.6081272364,-9.854534149,4.65193367,227.74172185430464,-1830.430463576159,-1986.721854304636,1984.8940397351,-5195.509933774834,6669.304635761589,1
2024-06-14 18:17:01,1.094670534,-0.05619960278,0.1111774743,0.8619126081,-7.536946774,6.069301128,-319.9403973509934,1990.0993377483449,1795.3973509933776,1534.5629139072848,-5412.728476821192,6564.0066225165565,1
2024-06-14 18:17:01,1.094670534,-0.05619960278,0.1111774743,0.8619126081,-7.536946774,6.069301128,-40.36363636363637,-1728.3636363636365,-1903.909090909091,540.6363636363636,-5520.272727272727,6949.727272727273,1
2024-06-14 18:17:01,-1.390329242,0.106290549,0.2235766798,0.6775590777,-9.30386734,5.272032261,50.68604651162789,-2396.0348837209303,-2298.209302325581,1476.9186046511627,-5178.53488372093,6719.6511627906975,1
2024-06-14 18:17:01,-0.830776751,0.02076941915,0.07330382615,0.7350199223,-7.972691536,5.662287235,-574.2,2557.8,2240.6,1278.2,-5300.2,6590.8,1
2024-06-14 18:17:01,-0.830776751,0.02076941915,0.07330382615,0.7350199223,-7.972691536,5.662287235,-2.0,79.36363636363649,7.818181818181756,236.72727272727272,-5704.0,6978.909090909091,1
2024-06-14 18:17:01,-1.307251573,-0.02443460934,0.1001819,0.4357447028,-9.327810287,5.037400246,363.1,-2993.1,-3086.7,1140.3555555555556,-5345.877777777778,6648.777777777777,1
2024-06-14 18:17:02,-1.181413412,0.008552113548,-0.2394591719,0.8427590132,-9.732429504,4.311957359,-499.8620689655172,2478.6666666666665,2247.942528735632,1325.0344827586207,-5303.701149425287,6652.287356321839,1
2024-06-14 18:17:02,-1.181413412,0.008552113548,-0.2394591719,0.8427590132,-9.732429504,4.311957359,-275.4222222222222,1237.5555555555557,1024.8444444444444,475.6222222222222,-5671.4,6948.755555555556,1
2024-06-14 18:17:02,-0.5791002512,0.08552113175,0.1795943826,0.7110779285,-10.12507915,4.900930882,290.1573033707865,-2145.112359550562,-2298.044943820225,1101.5168539325844,-5303.505617977528,6623.3707865168535,1
2024-06-14 18:17:02,-0.5791002512,0.08552113175,0.1795943826,0.7110779285,-10.12507915,4.900930882,-135.54651162790697,341.1046511627907,149.77906976744185,1589.3488372093022,-5480.96511627907,6591.988372093023,1
2024-06-14 18:17:02,0.9639453292,-0.07452555746,-0.145385921,1.510741234,-7.508216381,6.066906929,-257.3068181818182,1328.4431818181818,1425.5113636363635,1044.2954545454545,-5518.5,6823.181818181818,1
2024-06-14 18:17:02,0.1734857261,0.07330382615,0.1783726513,1.058237195,-7.287950039,6.447585106,87.3932584269663,-746.3370786516854,-761.7977528089888,822.8876404494382,-5647.70786516854,6931.539325842697,1
2024-06-14 18:17:02,0.1734857261,0.07330382615,0.1783726513,1.058237195,-7.287950039,6.447585106,-81.91891891891892,-1284.3513513513512,-1388.027027027027,1056.391891891892,-5319.702702702703,6772.527027027027,1
2024-06-14 18:17:02,-0.5607742667,0.06475171447,0.06597344577,0.8283938169,-7.292738438,6.615179062,-293.1428571428571,495.3571428571429,599.7857142857142,1341.2857142857142,-5285.071428571428,6615.214285714285,1
2024-06-14 18:17:02,-0.2443460971,-0.770911932,-0.4520402849,-0.3351882398,-8.532935143,2.056619167,-242.8426966292135,100.82022471910112,278.5393258426966,896.123595505618,-5624.932584269663,6939.887640449439,1
2024-06-14 18:17:02,-0.2443460971,-0.770911932,-0.4520402849,-0.3351882398,-8.532935143,2.056619167,-2.364640883977902,-33.61325966850829,124.30386740331492,1316.7734806629835,-5286.088397790055,6616.088397790055,1
2024-06-14 18:17:03,0.5363397002,0.08307767659,0.2089159191,0.7445967197,-8.190564156,5.954379559,-176.3977900552486,469.1491712707183,319.3314917127072,1122.2983425414363,-5301.005524861878,6631.005524861878,1
2024-06-14 18:17:03,0.5363397002,0.08307767659,0.2089159191,0.7445967197,-8.190564156,5.954379559,68.04651162790698,-379.72093023255815,-412.90697674418607,1063.9302325581396,-5353.023255813953,6915.604651162791,1
2024-06-14 18:17:03,-0.1087340117,-0.02199114859,-0.04276056588,1.407790542,-7.062894821,5.956773758,40.04651162790698,-207.5581395348837,-120.3953488372093,1167.953488372093,-5301.186046511628,6625.790697674419,1
2024-06-14 18:17:03,-1.233947754,0.2590068579,0.1808161139,1.63523972,-8.190564156,5.777208805,28.10869565217392,-90.82608695652176,2.5434782608695627,1096.3695652173913,-5328.891304347826,6796.282608695652,1
