Timestamp,Gyro_x_x,Gyro_y_x,Gyro_z_x,Acc_x_x,Acc_y_x,Acc_z_x,Gyro_x_y,Gyro_y_y,Gyro_z_y,Acc_x_y,Acc_y_y,Acc_z_y,combined_action_num
2024-06-14 18:21:06,-0.0109955743,-0.01832595654,0.007330383174,-0.7445967197,-1.094150186,9.821015358,435.3863636363636,-77.86363636363636,22.943181818181817,-8484.431818181818,-1054.8181818181818,812.0454545454545,0
2024-06-14 18:21:06,-0.0109955743,-0.01832595654,0.007330383174,-0.7445967197,-1.094150186,9.821015358,9.0,57.53333333333333,-112.95555555555556,-8501.2,-474.5777777777778,784.5555555555555,0
2024-06-14 18:21:06,-0.05619960278,-0.00244346098,0.004886921961,-0.7278373241,-1.07739079,9.919178009,83.87640449438203,98.53932584269664,76.67415730337079,-8523.988764044943,-871.7640449438202,542.0224719101124,0
2024-06-14 18:21:06,-0.05619960278,-0.00244346098,0.004886921961,-0.7278373241,-1.07739079,9.919178009,-143.14117647058825,78.61176470588235,-174.03529411764706,-8497.611764705882,-713.035294117647,838.9882352941177,0
2024-06-14 18:21:06,-0.03054326214,0.00244346098,0.003665191587,-0.6943184733,-1.137245774,9.904812813,107.35955056179776,-110.96629213483146,-359.4157303370786,-8366.831460674157,-658.0786516853933,870.876404494382,0
2024-06-14 18:21:07,-0.09651670605,-0.02443460934,0.01466076635,-0.7805097699,-1.175553083,9.883264542,-495.5116279069768,115.3720930232558,7.790697674418595,-8108.906976744186,-845.9767441860465,848.3953488372093,0
2024-06-14 18:21:07,-0.09651670605,-0.02443460934,0.01466076635,-0.7805097699,-1.175553083,9.883264542,-331.0561797752809,350.96629213483146,-368.7640449438202,-8543.14606741573,-1009.865168539326,797.3033707865169,0
2024-06-14 18:21:07,-0.2296853364,0.04398229718,0.0,-0.6272808313,-1.740584612,9.835380554,283.1404958677686,-193.0247933884297,32.20661157024794,-8331.578512396694,-664.0909090909091,825.1322314049587,0
2024-06-14 18:21:07,-0.2296853364,0.04398229718,0.0,-0.6751648784,-1.948880196,9.988609314,-251.68888888888887,63.355555555555554,-360.26666666666665,-8102.577777777778,-713.4666666666667,717.3555555555556,0
2024-06-14 18:21:07,0.3274237812,-0.1282816976,0.0171042271,-0.6751648784,-1.948880196,9.988609314,-182.38636363636363,339.90909090909093,38.22727272727273,-8479.625,-1111.2386363636365,712.0454545454545,0
2024-06-14 18:21:07,-0.1637118906,-0.2260201424,-0.04642575979,-0.1915361285,-1.405396342,9.81143856,26.50561797752809,33.87640449438202,161.66292134831463,-8427.943820224718,-703.6404494382023,782.8988764044943,0
2024-06-14 18:21:07,-0.1637118906,-0.2260201424,-0.04642575979,-0.1915361285,-1.405396342,9.81143856,-347.0,-88.0,-338.5,-8199.5,-762.5,630.5,0
2024-06-14 18:21:07,-0.3982841372,0.2651155293,0.1527163088,-1.45088625,-2.217030764,10.17296314,-265.0,319.3076923076923,49.84615384615385,-8515.846153846154,-1135.1538461538462,794.1538461538462,0
2024-06-14 18:21:07,0.04886921868,-0.4117231667,0.04031710699,-0.1628057212,-1.426944256,9.789890289,44.355555555555554,34.84444444444444,83.2,-8131.488888888889,-679.4444444444445,774.6,0
2024-06-14 18:21:07,0.04886921868,-0.4117231667,0.04031710699,-0.1628057212,-1.426944256,9.789890289,-317.3068181818182,206.5681818181818,-41.71590909090909,-8531.136363636364,-744.9772727272727,491.9772727272728,0
2024-06-14 18:21:08,-0.05497787148,-0.01466076635,0.1270599663,-0.1891419291,-0.4716577232,9.753977776,-87.04545454545455,-250.5909090909091,-111.86363636363636,-8485.227272727272,-846.8636363636364,788.6818181818181,0
2024-06-14 18:21:08,-0.05497787148,-0.01466076635,0.1270599663,-0.1891419291,-0.4716577232,9.753977776,-46.13636363636364,-33.63636363636363,1.1363636363636362,-8515.681818181818,-719.4090909090909,789.0909090909091,0
2024-06-14 18:21:08,0.0,0.05375614017,-0.07941248268,0.3711012602,-0.9361328483,9.665391922,68.33333333333333,50.66666666666666,273.8333333333333,-8130.666666666667,-832.8333333333334,770.6666666666666,0
2024-06-14 18:21:08,-0.1857030392,0.05253441259,0.01954768784,-0.1029506698,-1.491587639,9.787496567,-5.125,289.0909090909091,429.5,-8262.602272727272,-712.9772727272727,586.2727272727273,0
2024-06-14 18:21:08,-0.1857030392,0.05253441259,0.01954768784,-0.1029506698,-1.491587639,9.787496567,545.2954545454545,604.0227272727273,1405.159090909091,-8527.272727272728,-344.4318181818182,415.5,0
2024-06-14 18:21:08,-0.02443460934,0.08918632567,0.0171042271,-0.3088520169,-1.209071875,9.737217903,103.0,222.5,750.0,-8539.0,72.5,612.5,0
2024-06-14 18:21:08,0.03909537569,0.01832595654,0.006108652335,-0.3184288144,-1.379060149,9.782708168,29.655172413793103,299.41379310344826,558.448275862069,-8533.586206896553,-285.3103448275862,390.82758620689657,0
2024-06-14 18:21:08,0.03909537569,0.01832595654,0.006108652335,-0.3184288144,-1.379060149,9.782708168,-310.6849315068493,-39.49315068493151,475.4109589041096,-8341.0,-125.57534246575342,588.5753424657535,0
2024-06-14 18:21:08,0.0171042271,0.004886921961,0.003665191587,-0.2633621991,-1.233013868,9.753977776,-144.86486486486487,-76.94594594594595,86.0810810810811,-8369.648648648648,-102.78378378378378,571.1891891891892,0
2024-06-14 18:21:08,-0.00244346098,0.007330383174,0.007330383174,-0.3208230138,-1.125274777,9.809044838,-214.7209302325581,98.74418604651164,-329.1395348837209,-8553.720930232557,-243.86046511627904,411.0,0
2024-06-14 18:21:09,-0.00244346098,0.007330383174,0.007330383174,-0.3208230138,-1.125274777,9.809044838,-518.2588235294118,270.08235294117645,-371.7294117647059,-8152.788235294118,-332.4823529411765,241.89411764705883,0
2024-06-14 18:21:09,-0.01221730467,0.03054326214,0.009773843922,-0.3926490843,-1.319205165,9.794678688,83.26136363636364,-76.5909090909091,-261.07954545454544,-8545.863636363636,-269.0,229.26136363636363,0
2024-06-14 18:21:09,-0.01221730467,0.03054326214,0.009773843922,-0.3926490843,-1.319205165,9.794678688,64.0909090909091,-120.4318181818182,-77.0909090909091,-8180.125,49.75,167.75,0
2024-06-14 18:21:09,-0.02687807009,0.0171042271,0.00244346098,-0.4070142806,-1.350329757,9.706093788,-163.01086956521738,59.72826086956522,-144.82608695652175,-8330.619565217392,-315.6630434782609,222.0326086956522,0
2024-06-14 18:21:09,-0.06108652428,0.03787364438,-0.00244346098,-0.3926490843,-1.436521053,10.46026707,71.5,-113.0,-40.0,-8433.0,-304.5,239.5,0
2024-06-14 18:21:09,-0.06108652428,0.03787364438,-0.00244346098,-0.3926490843,-1.436521053,10.46026707,30.98876404494382,8.179775280898877,92.02247191011236,-8478.8202247191,70.9438202247191,250.17977528089887,0
2024-06-14 18:21:09,-0.1087340117,-0.03298672289,0.03909537569,0.14844051,-0.787692368,9.746794701,26.53488372093023,11.465116279069768,-366.3488372093023,-8500.302325581395,-333.62790697674416,596.3953488372093,0
2024-06-14 18:21:09,-0.6951646209,0.531452775,0.09040805697,-0.9816226959,-3.758896589,9.801861763,-340.2247191011236,-32.1685393258427,-279.17977528089887,-8421.91011235955,-365.0674157303371,534.8539325842696,0
2024-06-14 18:21:09,-0.6951646209,0.531452775,0.09040805697,-0.9816226959,-3.758896589,9.801861763,-96.86363636363636,5.51136363636364,39.45454545454545,-8540.045454545454,-351.10227272727275,560.3181818181819,0
2024-06-14 18:21:10,0.1392772794,0.3249803185,0.1319468915,-0.1053448766,-3.610456228,9.31823349,-234.7977528089888,-57.7247191011236,-181.0224719101124,-8140.769662921349,-260.01685393258424,614.2471910112359,0
2024-06-14 18:21:10,-0.1710422635,-0.1954768747,-0.0415388383,-0.4477157295,-3.801992416,9.555258751,-208.72527472527472,83.2967032967033,-194.2967032967033,-8232.461538461539,-339.0769230769231,461.0219780219781,0
2024-06-14 18:21:10,-0.2565633953,0.3836233616,0.1881465018,0.5291185975,-3.852270603,10.02212811,-36.84705882352941,-41.1764705882353,27.16470588235294,-8296.870588235293,-238.4705882352941,463.0470588235294,0
2024-06-14 18:21:10,-0.2565633953,0.3836233616,0.1881465018,0.5291185975,-3.852270603,10.02212811,-564.2307692307693,108.03846153846156,-162.0,-8211.884615384615,-325.53846153846155,198.6153846153846,0
2024-06-14 18:21:10,0.145385921,-0.283441484,-0.1246165112,-0.8714894056,-2.389413357,9.799467087,-190.5,272.8125,-87.4375,-8179.3125,-220.75,320.8125,0
2024-06-14 18:21:10,0.145385921,-0.283441484,-0.1246165112,-0.7733271718,-3.227383852,9.47146225,78.03296703296704,-177.3846153846154,-36.19780219780219,-8425.989010989011,-316.61538461538464,565.3626373626373,0
2024-06-14 18:21:10,0.3103195429,0.290771842,0.08674286306,-0.7733271718,-3.227383852,9.47146225,-228.4642857142857,-84.32142857142857,-238.4642857142857,-8476.67857142857,-221.67857142857144,562.6071428571429,0
2024-06-14 18:21:10,-0.1893682331,-0.2138028294,-0.07452555746,-0.3184288144,-2.274491549,9.251194954,-110.79545454545456,314.02272727272725,-275.4204545454545,-8346.15909090909,-574.875,210.64772727272728,0
2024-06-14 18:21:10,-0.1893682331,-0.2138028294,-0.07452555746,-0.3184288144,-2.274491549,9.251194954,-71.24137931034483,-345.82758620689657,57.172413793103445,-8515.0,-357.3103448275862,241.93103448275863,0
2024-06-14 18:21:10,0.06597344577,-0.07574728876,-0.02199114859,-0.5937620401,-3.593696833,9.282320023,38.57303370786517,-289.314606741573,-311.0561797752809,-8497.47191011236,-547.7977528089888,613.0,0
2024-06-14 18:21:11,-0.1747074574,0.2040289938,0.03054326214,-1.084573388,-2.770091295,9.416395187,61.61363636363636,-175.75,-314.125,-8478.59090909091,-526.9659090909091,608.2727272727273,0
2024-06-14 18:21:11,-0.1747074574,0.2040289938,0.03054326214,-1.084573388,-2.770091295,9.416395187,-94.38709677419357,100.61290322580643,30.935483870967744,-8516.032258064517,-547.0322580645161,618.0,0
2024-06-14 18:21:11,0.1820378453,0.3604104817,-0.01343903504,-1.142034173,-1.865083098,9.540893555,-107.7529411764706,-130.36470588235295,-344.16470588235296,-8351.470588235294,-380.9411764705882,523.1764705882352,0
2024-06-14 18:21:11,0.3481931984,-0.2370157093,-0.08552113175,-0.691924274,-3.452438831,9.327810287,-221.8571428571429,-64.07692307692307,-248.35164835164835,-8138.780219780219,-451.5164835164835,531.6153846153846,0
2024-06-14 18:21:11,0.3481931984,-0.2370157093,-0.08552113175,-0.691924274,-3.452438831,9.327810287,-52.72727272727273,-188.9090909090909,89.45454545454545,-8464.90909090909,-528.5454545454545,403.8181818181818,0
2024-06-14 18:21:11,-0.4153883755,0.2467895597,-0.05253441259,0.6224924326,-0.6344634295,8.796297073,32.8876404494382,119.96629213483146,-188.3932584269663,-8406.741573033707,-422.5955056179776,627.1011235955057,0
2024-06-14 18:21:11,-0.4153883755,0.2467895597,-0.05253441259,0.6224924326,-0.6344634295,8.796297073,77.39080459770115,31.73563218390805,0.1724137931034306,-8556.310344827587,-434.0229885057472,466.41379310344826,0
2024-06-14 18:21:11,-0.4984660447,-0.6462954283,-0.3323107064,-1.369483352,-4.350264549,8.35097599,-208.672131147541,-190.7377049180328,39.0,-8140.590163934426,-583.3770491803278,516.5573770491803,0
2024-06-14 18:21:11,0.1820378453,-0.5155702829,-0.06230825558,-0.5195417404,0.9840168953,9.730035782,255.1025641025641,-346.1794871794872,-46.65384615384615,-8534.76923076923,-365.96153846153845,764.3205128205128,0
2024-06-14 18:21:11,0.1820378453,-0.5155702829,-0.06230825558,-0.5195417404,0.9840168953,9.730035782,-508.7407407407408,160.8148148148148,-128.2962962962963,-8137.851851851852,-626.6666666666666,492.7037037037037,0
2024-06-14 18:21:12,-0.2492330223,0.1844813079,0.1783726513,-0.4285621047,-1.63523972,9.066842079,-591.7037037037037,320.0740740740741,-153.48148148148147,-8185.259259259259,-773.3333333333334,487.5185185185185,0
2024-06-14 18:21:12,0.01588249579,0.03909537569,0.04031710699,-0.2322375625,-3.124433279,9.349357605,-383.6206896551725,108.31034482758622,-174.51724137931035,-8358.344827586207,-537.5862068965517,423.8965517241379,0
2024-06-14 18:21:12,0.01588249579,0.03909537569,0.04031710699,-0.2322375625,-3.124433279,9.349357605,75.82758620689657,35.65517241379311,-566.448275862069,-8461.310344827587,-811.4827586206897,478.7241379310345,0
2024-06-14 18:21:12,-0.02809980139,0.03298672289,-0.004886921961,-0.5746083856,-2.894589901,9.52173996,-731.2777777777778,243.3333333333333,93.11111111111111,-8242.722222222223,-497.72222222222223,417.94444444444446,0
2024-06-14 18:21:12,-0.02809980139,0.03298672289,-0.004886921961,-0.5746083856,-2.894589901,9.52173996,-867.875,752.5340909090909,-202.4090909090909,-8353.46590909091,-927.5340909090908,317.2840909090909,0
2024-06-14 18:21:12,0.03298672289,0.0354301855,0.0109955743,-0.8307880163,-2.303221941,9.552865028,-80.10112359550561,-232.06741573033707,334.6629213483146,-8576.269662921348,-437.5280898876405,381.3258426966292,0
2024-06-14 18:21:12,-0.04031710699,0.1478293836,0.06475171447,-0.9457096457,-2.499546528,9.512163162,332.2093023255814,-331.19767441860466,-269.6511627906977,-8523.302325581395,-883.8837209302326,262.5232558139535,0
2024-06-14 18:21:12,-0.04031710699,0.1478293836,0.06475171447,-0.9457096457,-2.499546528,9.512163162,158.88636363636363,-221.6590909090909,36.75,-8109.568181818182,-787.1363636363636,585.8863636363636,0
2024-06-14 18:21:12,-0.2736676335,-0.3579670191,-0.06597344577,-0.8858546019,-4.108449936,9.090784073,236.11627906976744,-184.69767441860463,-93.38372093023256,-8213.813953488372,-561.2558139534883,606.3953488372093,0
2024-06-14 18:21:12,0.3103195429,0.4483750761,0.09529497474,-1.180341482,-2.458845139,9.516951561,277.59090909090907,-340.8181818181818,-90.54545454545456,-8546.25,-444.34090909090907,406.6363636363636,0
2024-06-14 18:21:13,0.3103195429,0.4483750761,0.09529497474,-1.180341482,-2.458845139,9.516951561,65.0,-295.5,-291.0,-8173.5,-647.5,413.0,0
2024-06-14 18:21:13,-0.2858849466,0.2919935882,-0.06719517708,-1.158793569,-4.352658749,9.30386734,60.375,-194.125,-117.625,-8483.125,-621.5,465.0,0
2024-06-14 18:21:13,-0.2858849466,0.2919935882,-0.06719517708,-1.158793569,-4.352658749,9.30386734,-315.5842696629214,-310.65168539325845,73.9438202247191,-8167.011235955056,-814.9550561797753,479.86516853932585,0
2024-06-14 18:21:13,1.034805775,0.574213326,0.1429424733,-2.142810583,-1.326387763,9.435548782,121.23404255319149,-198.31914893617025,-69.72340425531917,-8540.31914893617,-558.9574468085107,848.5744680851063,0
2024-06-14 18:21:13,-0.1050688252,-0.4508185387,-0.1221730486,-0.85473001,-4.213795185,9.200917244,-207.8181818181818,17.909090909090935,-81.9090909090909,-8479.545454545454,-785.7272727272727,790.8181818181819,0
2024-06-14 18:21:13,-0.1050688252,-0.4508185387,-0.1221730486,-0.85473001,-4.213795185,9.200917244,92.8076923076923,23.23076923076923,0.9230769230769234,-8123.5,-773.6153846153846,813.8076923076923,0
2024-06-14 18:21:13,0.5522221923,-0.6352998614,-0.2675589919,-0.8212111592,-2.619256735,9.595960617,-211.03846153846155,-52.15384615384616,-240.6153846153846,-8113.5,-845.9230769230769,809.9615384615385,0
2024-06-14 18:21:13,0.1527163088,0.1246165112,0.0720821023,-0.4046200812,-2.497152328,9.399636269,47.22222222222222,-82.13333333333334,-5.911111111111111,-8465.533333333333,-721.8,487.1111111111111,0
2024-06-14 18:21:13,0.1527163088,0.1246165112,0.0720821023,-0.4046200812,-2.497152328,9.399636269,-160.4431818181818,-29.43181818181818,-13.0,-8474.147727272728,-651.375,467.0113636363636,0
2024-06-14 18:21:13,-0.1588249654,0.1857030392,0.06352998316,-1.371877551,-2.851494312,9.615114212,-83.5,-94.0,33.5,-8484.0,-882.5,463.0,0
2024-06-14 18:21:14,-0.1588249654,0.1857030392,0.06352998316,-1.371877551,-2.851494312,9.615114212,-24.25274725274725,5.571428571428584,80.04395604395604,-8301.846153846154,-726.1648351648352,464.0659340659341,0
2024-06-14 18:21:14,-0.3970624208,-0.2211332172,-0.03054326214,-0.2992752194,-2.997540474,9.88805294,98.58695652173913,-93.30434782608695,-55.05434782608697,-8465.326086956522,-791.5869565217391,464.8804347826087,0
2024-06-14 18:21:14,0.5729916096,0.03665191308,-0.006108652335,-0.8475474119,-2.987963676,9.461885452,122.81395348837208,-38.2906976744186,58.546511627906966,-8478.43023255814,-841.6162790697674,434.7093023255814,0
2024-06-14 18:21:14,0.5729916096,0.03665191308,-0.006108652335,-0.8475474119,-2.987963676,9.461885452,109.75862068965516,-51.310344827586206,50.93103448275862,-8501.758620689656,-814.9310344827586,416.3448275862069,0
2024-06-14 18:21:14,0.6976081133,0.09040805697,-0.04398229718,-0.316034615,-2.442085743,9.576807022,-248.0112359550561,102.78651685393258,7.348314606741573,-8451.539325842698,-823.9101123595506,385.0337078651685,0
2024-06-14 18:21:14,0.5656611919,-0.2406809032,-0.01588249579,-1.331176162,-0.8810662031,9.646238327,88.86363636363636,80.97727272727273,77.3409090909091,-8469.90909090909,-891.2045454545455,404.2272727272728,0
2024-06-14 18:21:14,0.5656611919,-0.2406809032,-0.01588249579,-1.331176162,-0.8810662031,9.646238327,-88.65822784810126,86.75949367088607,74.87341772151899,-8515.291139240506,-835.1772151898734,421.4810126582278,0
2024-06-14 18:21:14,-0.9175195694,0.669508338,0.1368338168,-1.474828243,-2.331952572,10.01015759,-46.59550561797752,77.67415730337079,-95.50561797752808,-8374.191011235955,-844.0898876404494,458.2696629213483,0
2024-06-14 18:21:14,-0.9175195694,0.669508338,0.1368338168,-1.474828243,-2.331952572,10.01015759,-286.5,86.5,-151.0,-8465.5,-763.5,468.0,0
2024-06-14 18:21:14,0.17715092,0.06597344577,-0.01343903504,-0.5985504389,-2.128445387,9.52173996,-119.73118279569891,-42.623655913978496,44.87096774193549,-8458.408602150537,-661.6129032258065,473.4193548387097,0
2024-06-14 18:21:15,-0.1246165112,-0.334754169,-0.1087340117,-0.9002198577,-3.849876404,9.026140213,13.2421875,-103.3828125,-114.0625,-8477.296875,-779.84375,442.0703125,0
2024-06-14 18:21:15,-0.1246165112,-0.334754169,-0.1087340117,-0.9002198577,-3.849876404,9.026140213,22.909090909090907,-106.3181818181818,-287.54545454545456,-8482.227272727272,-683.9545454545455,441.3181818181818,0
2024-06-14 18:21:15,0.6206390858,-0.03909537569,-0.08063421398,-0.5410895944,-3.493140221,9.646238327,-273.8314606741573,122.0,-348.3258426966292,-8466.359550561798,-701.4606741573034,434.2247191011236,0
2024-06-14 18:21:15,0.1270599663,0.2247984111,0.06963863969,-1.108515382,-2.53067112,9.502586365,-248.13333333333333,-72.93333333333334,-16.133333333333333,-8479.6,-734.0666666666667,402.8,0
2024-06-14 18:21:15,0.1270599663,0.2247984111,0.06963863969,-1.108515382,-2.53067112,9.502586365,45.655913978494624,90.49462365591398,-310.73118279569894,-8476.58064516129,-719.1075268817204,400.0,0
2024-06-14 18:21:15,-0.3494149148,-0.05253441259,-1.0995574,-1.56101954,-0.9026140571,9.581595421,-27.61176470588235,48.54117647058823,-360.2705882352941,-8413.388235294118,-803.8705882352941,408.6352941176471,0
2024-06-14 18:21:15,-0.3494149148,-0.05253441259,-1.0995574,-1.56101954,-0.9026140571,9.581595421,-316.1685393258427,45.68539325842697,-172.48314606741573,-8183.168539325843,-1112.0112359550562,447.70786516853934,0
2024-06-14 18:21:15,0.3530801237,0.6059783101,0.3750712574,-0.605733037,-2.418143749,9.701305389,80.29213483146069,-113.38202247191012,91.85393258426969,-8111.370786516853,-1110.3595505617975,441.86516853932585,0
2024-06-14 18:21:15,-0.6206390858,-0.9382890463,-0.161268428,0.5554547906,-3.347094059,9.136273384,304.45454545454544,-104.9090909090909,353.0681818181818,-8400.954545454546,-779.5681818181818,433.5,0
2024-06-14 18:21:15,-0.6206390858,-0.9382890463,-0.161268428,0.5554547906,-3.347094059,9.136273384,17.444444444444443,41.888888888888886,-200.22222222222223,-8397.444444444445,-738.7777777777778,427.3333333333333,0
2024-06-14 18:21:16,-0.109955743,-0.4031710625,-0.03909537569,-1.292868972,-3.701435804,9.172186852,-271.6629213483146,-24.573033707865164,-581.1910112359551,-8228.58426966292,-1144.247191011236,498.6516853932585,0
2024-06-14 18:21:16,0.6047565937,-0.0720821023,0.03176499158,-0.4764461517,-4.623203278,9.967061996,-169.69565217391303,-89.65217391304347,-41.13043478260869,-8191.04347826087,-1132.4347826086955,486.6521739130435,0
2024-06-14 18:21:16,0.6047565937,-0.0720821023,0.03176499158,-0.4764461517,-4.623203278,9.967061996,-289.34065934065933,-24.36263736263736,314.42857142857144,-8725.505494505494,-666.6593406593406,634.1318681318681,0
2024-06-14 18:21:16,-0.3726277947,-0.2247984111,0.1368338168,0.4357447028,-0.6679822803,9.916783333,-259.95454545454544,29.806818181818183,-48.45454545454545,-8108.318181818182,-713.0681818181819,609.4545454545455,0
2024-06-14 18:21:16,-0.3726277947,-0.2247984111,0.1368338168,0.4357447028,-0.6679822803,9.916783333,-100.53488372093024,25.13953488372093,-325.0,-8155.6511627906975,-735.8837209302326,449.5116279069768,0
2024-06-14 18:21:16,-0.1514945775,-0.02809980139,0.01466076635,-0.04548983276,-3.79480958,9.105149269,-77.61111111111111,-274.8888888888889,58.94444444444444,-8333.444444444445,-672.4444444444445,470.5,0
2024-06-14 18:21:16,0.02076941915,-0.1075122803,0.004886921961,-1.098938584,-3.672705412,9.485827446,-150.26277372262774,-308.2992700729927,-167.34306569343067,-8167.116788321168,-707.5839416058394,805.5620437956204,0
2024-06-14 18:21:16,0.02076941915,-0.1075122803,0.004886921961,-1.098938584,-3.672705412,9.485827446,2.1538461538461533,44.07692307692308,-323.61538461538464,-8149.2307692307695,-865.4615384615385,677.8461538461538,0
2024-06-14 18:21:16,-0.2785545588,0.3225368559,0.1808161139,-0.7900865674,-2.856282711,9.392453194,-853.7159090909091,464.2386363636364,27.352272727272727,-8485.113636363636,-1122.0568181818182,598.2840909090909,0
2024-06-14 18:21:16,-0.1710422635,0.3885102868,0.141720742,-0.3184288144,-2.226607561,9.81143856,-106.1123595505618,390.1910112359551,-219.48314606741573,-8372.41573033708,-1316.9887640449438,467.0674157303371,0
2024-06-14 18:21:17,-0.1710422635,0.3885102868,0.141720742,-0.3184288144,-2.226607561,9.81143856,226.24137931034485,-184.06896551724137,279.34482758620686,-8137.551724137931,-672.2758620689656,579.6896551724137,0
2024-06-14 18:21:17,-0.06108652428,0.08307767659,-0.0354301855,-0.9983820915,-3.562572241,8.913613319,-67.54545454545455,-9.90909090909091,88.5,-8506.727272727272,-749.5909090909091,526.8181818181819,0
2024-06-14 18:21:17,-0.06108652428,0.08307767659,-0.0354301855,-0.9983820915,-3.562572241,8.913613319,-93.84745762711864,1.1751412429378547,-32.610169491525426,-8332.02824858757,-873.0508474576271,568.8757062146892,0
2024-06-14 18:21:17,0.1661553532,-0.3579670191,-0.09651670605,-1.144428372,-3.251325846,9.30386734,50.21739130434783,-207.91304347826087,217.08695652173915,-8375.652173913044,-684.3478260869565,615.0,0
2024-06-14 18:21:17,1.210734963,0.3359758854,-0.232128799,-0.940921247,0.9552865028,10.28788471,-66.58823529411765,-183.1764705882353,16.058823529411768,-8478.529411764706,-838.8235294117648,792.0,0
2024-06-14 18:21:17,1.210734963,0.3359758854,-0.232128799,-0.940921247,0.9552865028,10.28788471,-365.5,-116.0,-35.5,-8301.0,-778.0,807.5,0
2024-06-14 18:21:17,-0.3213151097,0.2406809032,-0.2626720667,1.802833915,0.2585737705,9.196128845,-177.5056179775281,-8.213483146067418,-320.7191011235955,-8476.056179775282,-973.2134831460672,476.75280898876406,0
2024-06-14 18:21:17,-3.408627987,0.8539896011,0.3164281845,-0.2801215947,-4.762067318,9.174580574,311.4065934065934,-242.2197802197802,-79.94505494505495,-8477.34065934066,-834.9890109890109,765.5494505494505,0
2024-06-14 18:21:17,-3.408627987,0.8539896011,0.3164281845,-0.2801215947,-4.762067318,9.174580574,-511.6823529411765,54.51764705882353,101.07058823529412,-8106.070588235294,-886.6588235294117,799.0705882352942,0
2024-06-14 18:21:17,0.3591887653,0.2663372457,-0.09040805697,-2.039859772,-7.053318024,7.199364662,-234.5176470588235,314.38823529411764,-247.7176470588236,-8485.635294117646,-1132.8117647058823,793.4705882352941,0
2024-06-14 18:21:18,0.3591887653,0.2663372457,-0.09040805697,-2.039859772,-7.053318024,7.199364662,-354.0646551724138,-36.58620689655172,-294.0301724137931,-8452.836206896553,-678.0344827586207,480.6896551724138,0
2024-06-14 18:21:18,1.25838244,-0.4630358517,0.1539380401,-2.286462545,-4.934449673,8.444349289,-354.4246575342466,-20.90410958904109,-199.6780821917808,-8131.465753424657,-755.2328767123288,472.904109589041,0
2024-06-14 18:21:18,-0.2247984111,-0.01221730467,-0.3323107064,-0.4764461517,-4.42209053,9.03571701,-180.4520547945205,-8.575342465753424,-215.43150684931507,-8134.2054794520545,-756.6027397260274,460.5753424657534,0
2024-06-14 18:21:18,-0.2247984111,-0.01221730467,-0.3323107064,-0.4764461517,-4.42209053,9.03571701,459.3107344632768,75.93785310734464,131.76271186440678,-8532.858757062148,-968.9830508474575,466.19209039548025,0
2024-06-14 18:21:18,-1.656666517,-0.6976081133,0.5668829679,-1.539471745,-4.853046894,8.520963669,343.17977528089887,29.21348314606741,236.68539325842696,-8504.359550561798,-816.0449438202247,471.8314606741573,0
2024-06-14 18:21:18,-0.09896016866,0.235793978,0.1661553532,-0.4309563041,-4.565742493,8.43956089,-455.5301204819277,186.6867469879518,-214.2530120481928,-8357.084337349397,-1243.1807228915663,548.1325301204819,0
2024-06-14 18:21:18,-0.09896016866,0.235793978,0.1661553532,-0.4309563041,-4.565742493,8.43956089,244.0114942528736,32.13793103448273,-0.3448275862069181,-8546.885057471265,-1012.551724137931,239.6436781609196,0
2024-06-14 18:21:18,0.538783133,-0.0293215327,-0.04031710699,-0.7733271718,-3.670311213,9.198522568,327.875,0.375,304.67708333333337,-8538.572916666666,-777.0416666666666,484.84375,0
2024-06-14 18:21:18,0.538783133,-0.0293215327,-0.04031710699,-0.7733271718,-3.670311213,9.198522568,17.20253164556962,55.86075949367091,25.0253164556962,-8177.784810126583,-756.0126582278481,608.7341772151899,0
2024-06-14 18:21:18,-0.2577851415,-0.106290549,-0.0232128799,-0.423773706,-2.923320293,9.466673851,53.934782608695656,29.63043478260869,114.2608695652174,-8452.217391304348,-717.6304347826087,421.0652173913044,0
2024-06-14 18:21:19,0.06841690838,0.02443460934,0.004886921961,-0.517147541,-3.026270866,9.421183586,-190.6,-50.01176470588236,-259.6823529411765,-8179.164705882353,-795.5058823529412,626.5058823529412,0
2024-06-14 18:21:19,0.06841690838,0.02443460934,0.004886921961,-0.517147541,-3.026270866,9.421183586,-62.741573033707866,-78.87640449438203,40.831460674157306,-8547.606741573034,-995.876404494382,634.561797752809,0
2024-06-14 18:21:19,0.02199114859,0.07696902007,0.009773843922,-0.8403648138,-3.481169224,9.473855972,-113.2,-198.0,10.400000000000006,-8354.6,-728.2,568.0,0
2024-06-14 18:21:19,-0.05742133409,0.1527163088,0.05009094998,-0.85473001,-3.019088268,9.526528358,-335.0,85.0,-159.5,-8277.5,-889.0,524.5,0
2024-06-14 18:21:19,-0.05742133409,0.1527163088,0.05009094998,-0.85473001,-3.019088268,9.526528358,-43.04395604395606,-81.43956043956044,-79.5934065934066,-8517.956043956045,-842.9890109890109,394.5164835164835,0
2024-06-14 18:21:19,0.01466076635,-0.2138028294,-0.106290549,-0.8164227605,-3.512293816,9.411606789,10.678571428571429,105.46428571428572,35.85714285714286,-8470.583333333334,-656.4404761904761,403.6190476190476,0
2024-06-14 18:21:19,0.01466076635,-0.2138028294,-0.106290549,-0.8164227605,-3.512293816,9.411606789,-349.1123595505618,-82.25842696629213,-323.7191011235955,-8152.67415730337,-743.6966292134831,598.056179775281,0
2024-06-14 18:21:19,0.1942551434,0.6059783101,0.2138028294,-0.9481038451,-3.438073635,9.35654068,-76.56818181818181,66.67045454545455,12.647727272727252,-8547.09090909091,-765.8977272727273,429.3295454545455,0
2024-06-14 18:21:19,0.1783726513,-0.8405506015,-0.3139847219,1.357512355,0.2609679997,8.367734909,-273.44966442953023,40.20805369127517,21.436241610738257,-8266.825503355705,-746.7248322147651,508.1744966442953,0
2024-06-14 18:21:19,0.1783726513,-0.8405506015,-0.3139847219,1.357512355,0.2609679997,8.367734909,204.42222222222225,-164.44444444444446,-27.3,-8467.355555555556,-829.8222222222222,478.74444444444447,0
2024-06-14 18:21:20,0.01832595654,0.125838235,0.05375614017,-1.63523972,-3.888183594,9.375694275,-403.9390243902439,41.6829268292683,-308.7439024390244,-8233.207317073171,-1026.2317073170732,624.1585365853658,0
2024-06-14 18:21:20,0.06841690838,0.1356120855,0.06719517708,-1.204283476,-2.324769735,8.588001251,183.6292134831461,277.1460674157304,-196.68539325842696,-8401.134831460675,-1031.370786516854,529.3033707865169,0
2024-06-14 18:21:20,0.06841690838,0.1356120855,0.06719517708,-1.204283476,-2.324769735,8.588001251,118.25842696629216,-242.8314606741573,48.550561797752806,-8378.393258426966,-968.5168539325842,624.0,0
2024-06-14 18:21:20,-0.1551597714,-0.2260201424,-0.0415388383,-1.168370485,-3.938461781,9.241618156,-378.75,-13.25,59.95454545454545,-8148.681818181818,-709.3636363636364,820.4318181818181,0
2024-06-14 18:21:20,-0.1551597714,-0.2260201424,-0.0415388383,-1.168370485,-3.938461781,9.241618156,188.7078651685393,301.9325842696629,116.8988764044944,-8446.157303370786,-940.7865168539324,796.0224719101124,0
2024-06-14 18:21:20,0.161268428,-0.2553416789,-0.06963863969,-1.395819545,-2.48996973,9.423578262,244.3636363636364,-50.81818181818182,233.45454545454544,-8236.818181818182,-780.1818181818181,417.6363636363636,0
2024-06-14 18:21:20,-0.2443460971,-0.1087340117,0.02443460934,-0.6607996821,-4.000710964,9.097966194,11.488372093023258,149.51162790697674,281.48837209302326,-8105.302325581395,-475.2906976744186,598.1279069767442,0
2024-06-14 18:21:20,-0.2443460971,-0.1087340117,0.02443460934,-0.6607996821,-4.000710964,9.097966194,283.0232558139535,565.9302325581396,-3.697674418604652,-8325.953488372093,-406.4651162790698,364.1627906976744,0
2024-06-14 18:21:20,0.6267477274,-0.3689626157,-0.07941248268,-0.04309562966,-3.009511471,9.634267807,-56.4494382022472,72.26966292134831,-291.23595505617976,-8456.292134831461,-600.7977528089888,212.68539325842696,0
2024-06-14 18:21:20,0.09162978828,-0.01832595654,-0.04276056588,0.4381389022,-5.087678432,8.757989883,-215.2134831460674,-35.92134831460674,16.314606741573034,-8539.651685393259,-868.0898876404494,195.1573033707865,0
2024-06-14 18:21:21,0.09162978828,-0.01832595654,-0.04276056588,0.4381389022,-5.087678432,8.757989883,105.66666666666669,13.166666666666671,-338.6666666666667,-8497.611111111111,-844.6666666666666,290.94444444444446,0
2024-06-14 18:21:21,-1.523497939,-0.08063421398,0.02809980139,-0.6320692301,-4.410119534,8.978256226,-454.2528735632184,-108.73563218390804,-369.0229885057472,-8480.83908045977,-817.1149425287356,201.1034482758621,0
2024-06-14 18:21:21,-1.523497939,-0.08063421398,0.02809980139,-0.6320692301,-4.410119534,8.978256226,-882.4387755102041,-281.8469387755102,-359.94897959183675,-8254.704081632653,-783.9591836734694,232.1020408163265,0
2024-06-14 18:21:21,-0.03420845419,0.006108652335,0.0171042271,-0.2226607651,-3.737348795,9.109937668,-883.5,-204.02702702702703,-174.06756756756758,-8131.635135135135,-1070.8108108108108,236.97297297297297,0
2024-06-14 18:21:21,-0.141720742,-0.299323976,-0.1123992056,-0.7948749661,-3.694253206,9.344569206,-312.6666666666667,-12.416666666666671,78.5,-8289.416666666666,-938.75,210.25,0
2024-06-14 18:21:21,-0.141720742,-0.299323976,-0.1123992056,-0.7948749661,-3.694253206,9.344569206,265.7710843373494,43.60240963855422,-267.2289156626506,-8192.867469879518,-749.0120481927711,253.8795180722892,0
2024-06-14 18:21:21,0.7916813493,-0.2565633953,-0.6230825782,-1.316810966,-4.022258759,9.514557838,-122.3225806451613,-273.06451612903226,39.2258064516129,-8512.741935483871,-708.1290322580645,516.3870967741935,0
2024-06-14 18:21:21,-0.1392772794,0.616973877,0.2076941878,-0.1244984865,-1.414973259,9.866505623,90.67058823529412,-351.8235294117647,-37.811764705882354,-8482.282352941176,-1037.2,519.9058823529411,0
2024-06-14 18:21:21,-0.1392772794,0.616973877,0.2076941878,-0.1244984865,-1.414973259,9.866505623,-51.78260869565217,-303.2608695652174,-279.6304347826087,-8395.369565217392,-960.3804347826087,436.6739130434783,0
2024-06-14 18:21:21,-0.1087340117,-0.06475171447,0.0293215327,-0.5817909837,-3.560178041,9.473855972,46.13953488372093,-216.13953488372093,-87.74418604651163,-8274.162790697674,-682.7209302325581,798.4418604651163,0
2024-06-14 18:21:22,-0.1087340117,-0.06475171447,0.0293215327,-0.5817909837,-3.560178041,9.473855972,-229.92391304347825,126.47826086956522,-307.19565217391306,-8534.58695652174,-749.1304347826087,646.0434782608695,0
2024-06-14 18:21:22,-0.1123992056,0.02199114859,0.0171042271,-0.6871358752,-2.67671752,9.526528358,-421.0,328.0952380952381,-798.5,-8149.071428571428,-1064.5,535.452380952381,0
2024-06-14 18:21:22,-0.04642575979,0.1197295859,0.01832595654,-0.7062895298,-2.841917515,9.39484787,-144.13793103448276,154.82758620689657,-640.4827586206897,-8372.48275862069,-1216.3793103448277,440.2068965517241,0
2024-06-14 18:21:22,-0.04642575979,0.1197295859,0.01832595654,-0.7062895298,-2.841917515,9.39484787,51.68181818181819,-170.52272727272728,94.9318181818182,-8493.545454545454,-972.5909090909092,620.3181818181819,0
2024-06-14 18:21:22,-0.06597344577,0.05864306539,0.03054326214,-0.8020575643,-2.968810081,9.56004715,-244.22222222222223,-450.94444444444446,42.05555555555556,-8251.555555555555,-1384.388888888889,890.5,0
2024-06-14 18:21:22,0.03420845419,0.02076941915,-0.01588249579,-0.9002198577,-2.346317768,9.493009567,217.8,312.7333333333333,209.9333333333333,-8164.866666666667,-1621.2666666666669,432.53333333333336,0
2024-06-14 18:21:22,0.03420845419,0.02076941915,-0.01588249579,-0.9002198577,-2.346317768,9.493009567,995.9761904761904,236.02380952380952,441.1904761904762,-8545.785714285714,-499.4285714285714,227.7142857142857,0
2024-06-14 18:21:22,-0.04398229718,0.05009094998,0.008552113548,-0.8379706144,-3.05021286,9.378087997,575.8426966292135,-11.98876404494382,576.3820224719101,-8543.516853932584,-429.86516853932585,233.2921348314607,0
2024-06-14 18:21:22,-0.04398229718,0.05009094998,0.008552113548,-0.8379706144,-3.05021286,9.378087997,561.4943820224719,-196.74157303370785,455.6516853932585,-8208.943820224718,-816.6966292134831,588.3932584269663,0
2024-06-14 18:21:22,0.02076941915,-0.2602286041,-0.04398229718,-0.7445967197,-2.614468336,9.373299599,61.98561151079136,36.143884892086334,166.5755395683453,-8213.712230215828,-529.7985611510792,472.2589928057554,0
2024-06-14 18:21:23,0.03420845419,0.08918632567,0.02809980139,-0.7302315235,-2.961627483,9.313444138,-353.2826086956522,222.6304347826087,-56.826086956521735,-8339.326086956522,-480.39130434782606,419.0434782608696,0
2024-06-14 18:21:23,0.03420845419,0.08918632567,0.02809980139,-0.7302315235,-2.961627483,9.313444138,-237.6913580246913,-191.4567901234568,-344.2345679012346,-8517.666666666666,-751.0246913580247,728.4320987654321,0
2024-06-14 18:21:23,1.919338584,-0.1123992056,-0.03054326214,-0.538695395,-4.900930882,9.030928612,-251.3488372093024,-289.8837209302326,-209.88372093023256,-8074.930232558139,-1134.953488372093,712.0232558139535,0
2024-06-14 18:21:23,-0.7892379165,0.03054326214,-0.009773843922,-1.537077546,-3.955221176,10.14662647,-263.8426966292135,-106.02247191011236,-346.32584269662925,-8269.943820224718,-1128.5280898876404,743.8651685393259,0
2024-06-14 18:21:23,-0.7892379165,0.03054326214,-0.009773843922,-1.537077546,-3.955221176,10.14662647,-565.8241758241759,342.2197802197802,-79.48351648351648,-8499.57142857143,-859.945054945055,789.6923076923077,0
2024-06-14 18:21:23,-0.01343903504,-0.1930334121,-0.05253441259,0.08140286058,-5.851428986,8.813055992,-415.2307692307692,307.84615384615387,-144.0769230769231,-8480.538461538461,-844.8461538461538,481.0769230769231,0
2024-06-14 18:21:23,-0.01343903504,-0.1930334121,-0.05253441259,0.08140286058,-5.851428986,8.813055992,-516.3448275862069,-269.2413793103448,-188.44827586206893,-8492.51724137931,-1070.551724137931,549.7931034482758,0
2024-06-14 18:21:23,-0.1160643995,-0.2186897546,-0.08185594529,0.6009446383,-1.297657371,9.404424667,74.50531914893617,93.19680851063828,23.54787234042553,-8149.755319148936,-1084.085106382979,797.3510638297872,0
2024-06-14 18:21:23,-0.05497787148,-0.1466076523,-0.0232128799,-0.2442085743,-3.60566783,9.299078941,-45.17553191489361,115.00531914893617,46.42021276595744,-8155.074468085107,-1069.1914893617022,798.4148936170212,0
2024-06-14 18:21:23,-0.05497787148,-0.1466076523,-0.0232128799,-0.2442085743,-3.60566783,9.299078941,-251.0857142857143,-70.78571428571429,-300.3142857142857,-8470.742857142857,-1081.6285714285714,431.4,0
2024-06-14 18:21:24,-0.5619960427,-0.1001819,0.0415388383,-0.09097966552,-3.919308186,9.141061783,93.41304347826087,87.56521739130434,32.26086956521739,-8528.217391304348,-832.7826086956522,502.7173913043478,0
2024-06-14 18:21:24,0.08063421398,0.03787364438,-0.03665191308,-0.9696516991,-1.922544003,9.538499832,-222.94117647058823,-43.117647058823536,61.35294117647059,-8146.0,-972.529411764706,457.3529411764706,0
2024-06-14 18:21:24,0.08063421398,0.03787364438,-0.03665191308,-0.9696516991,-1.922544003,9.538499832,4.662790697674438,-29.26744186046512,-251.82558139534885,-8508.546511627907,-1105.453488372093,488.2441860465116,0
2024-06-14 18:21:24,-0.01221730467,-0.02443460934,0.00244346098,-0.6679822803,-2.918531895,9.457097054,26.685393258426966,63.40449438202247,20.247191011235955,-8456.539325842698,-1070.6516853932585,452.0224719101124,0
2024-06-14 18:21:24,-0.01221730467,-0.02443460934,0.00244346098,-0.6679822803,-2.918531895,9.457097054,-12.793478260869565,-184.2826086956522,-76.52173913043478,-8406.989130434782,-752.3913043478261,891.8804347826087,0
2024-06-14 18:21:24,0.2382374406,0.1502728462,0.03176499158,-0.8499416113,-2.296039343,9.528923035,-285.39568345323744,-278.0215827338129,38.38848920863309,-8270.100719424461,-733.0287769784172,796.0215827338129,0
2024-06-14 18:21:24,1.064127207,0.1148426682,-0.07941248268,-1.046266198,-0.117315881,9.366117477,-355.8992805755396,-125.50359712230215,93.06474820143885,-8191.68345323741,-996.3381294964028,843.5035971223022,0
2024-06-14 18:21:24,1.064127207,0.1148426682,-0.07941248268,-1.046266198,-0.117315881,9.366117477,79.5632183908046,174.04597701149424,25.655172413793103,-8371.045977011494,-880.0,483.9770114942529,0
2024-06-14 18:21:24,-0.02687807009,-0.4667010605,-0.1576032341,0.2657563984,-4.560954094,10.01255131,26.434782608695656,-231.3913043478261,-38.78260869565217,-8229.434782608696,-831.5217391304348,583.8260869565217,0
2024-06-14 18:21:24,0.1123992056,-0.2309070677,-0.1185078546,-0.3806780577,-1.491587639,9.988609314,-543.7674418604652,-55.44186046511629,-37.69767441860465,-8474.581395348838,-1078.6046511627908,834.7441860465117,0
2024-06-14 18:21:25,0.1123992056,-0.2309070677,-0.1185078546,-0.3806780577,-1.491587639,9.988609314,-278.3333333333333,63.66666666666666,-21.166666666666668,-8530.333333333334,-684.3333333333334,659.0,0
2024-06-14 18:21:25,-0.2223549485,-0.08063421398,-0.0354301855,-0.8786720037,-2.011129379,8.892065048,-847.6896551724137,309.2068965517241,20.13793103448276,-8106.517241379311,-749.2758620689656,447.5517241379311,0
2024-06-14 18:21:25,-0.2223549485,-0.08063421398,-0.0354301855,-0.8786720037,-2.011129379,8.892065048,-295.04545454545456,14.454545454545451,94.4090909090909,-8156.954545454545,-494.4090909090909,809.2727272727273,0
2024-06-14 18:21:25,-0.0293215327,0.3604104817,0.106290549,-1.395819545,-2.79163909,9.423578262,-520.6666666666666,414.0,-79.66666666666666,-8149.333333333333,-558.0,733.3333333333334,0
2024-06-14 18:21:25,0.05864306539,-0.08918632567,-0.03909537569,-1.165976286,-2.999934673,9.39484787,-666.5454545454545,466.0909090909091,-66.54545454545455,-8496.545454545454,-723.3636363636364,497.0909090909091,0
2024-06-14 18:21:25,0.05864306539,-0.08918632567,-0.03909537569,-1.165976286,-2.999934673,9.39484787,367.7692307692308,-52.53846153846153,26.0,-8543.461538461539,-1063.5384615384614,190.84615384615384,0
2024-06-14 18:21:25,-0.01343903504,-0.0232128799,-0.01832595654,-1.039083481,-3.466804028,9.248801231,518.435294117647,-192.9647058823529,48.811764705882354,-8471.211764705882,-656.2470588235294,572.2705882352941,0
2024-06-14 18:21:25,-0.1221730486,-0.2113593817,-0.07452555746,-1.18752408,-3.143586874,9.346963882,166.00558659217876,-92.3854748603352,-84.16759776536313,-8266.027932960893,-719.7430167597765,553.6983240223464,0
2024-06-14 18:21:25,-0.1221730486,-0.2113593817,-0.07452555746,-1.18752408,-3.143586874,9.346963882,150.2173913043478,28.30434782608696,-64.34782608695652,-8469.782608695652,-826.0,421.82608695652175,0
2024-06-14 18:21:25,0.1111774743,0.3506366611,0.1160643995,-0.7781155705,-2.545036316,9.564835548,-273.4022988505747,94.36781609195404,-192.8390804597701,-8146.413793103448,-682.1494252873563,404.2528735632184,0
2024-06-14 18:21:26,0.1111774743,0.3506366611,0.1160643995,-0.9648633003,-3.057395458,9.476250648,-148.15116279069767,-85.67441860465115,9.093023255813932,-8474.767441860466,-1042.8488372093022,603.8604651162791,0
2024-06-14 18:21:26,0.0171042271,-0.06108652428,-0.007330383174,-0.9648633003,-3.057395458,9.476250648,-284.60714285714283,37.285714285714285,-284.07142857142856,-8125.892857142857,-880.8214285714286,422.2142857142857,0
2024-06-14 18:21:26,-0.1197295859,0.07696902007,0.05742133409,-0.962469101,-2.894589901,9.397241592,-336.75,63.0,-325.5,-8123.75,-717.25,406.5,0
2024-06-14 18:21:26,-0.1197295859,0.07696902007,0.05742133409,-0.962469101,-2.894589901,9.397241592,-68.32530120481928,-110.63855421686748,13.445783132530115,-8463.710843373494,-998.6024096385544,417.2168674698795,0
2024-06-14 18:21:26,0.01588249579,-0.07696902007,-0.03176499158,-0.9911994934,-3.004723072,9.375694275,68.48863636363636,-92.9318181818182,-80.25,-8495.488636363636,-871.7045454545455,493.0909090909091,0
2024-06-14 18:21:26,-0.006108652335,0.08674286306,0.0232128799,-0.7733271718,-2.806004286,9.646238327,53.95505617977528,17.134831460674164,-30.84269662921348,-8321.033707865168,-691.0674157303371,568.370786516854,0
2024-06-14 18:21:26,-0.006108652335,0.08674286306,0.0232128799,-0.7733271718,-2.806004286,9.646238327,188.27272727272725,-212.54545454545453,-278.3181818181818,-8502.59090909091,-582.8863636363636,660.4772727272727,0
2024-06-14 18:21:26,0.1343903542,0.5106833577,0.1514945775,-0.9768342972,-1.297657371,9.502586365,-516.0224719101124,-47.50561797752809,-80.10112359550561,-8135.078651685393,-730.9662921348315,415.86516853932585,0
2024-06-14 18:21:26,-0.1991420686,-0.008552113548,-0.006108652335,-0.4046200812,-3.524264812,9.136273384,-314.3333333333333,346.0,-470.0,-8544.0,-972.0,242.0,0
2024-06-14 18:21:26,-0.1991420686,-0.008552113548,-0.006108652335,-0.4046200812,-3.524264812,9.136273384,253.8804347826088,-257.42391304347825,40.75,-8204.91304347826,-709.5978260869565,583.0,0
2024-06-14 18:21:27,-0.06841690838,-0.0232128799,-0.009773843922,-0.6679822803,-4.108449936,9.129091263,-492.9325842696629,141.22471910112358,-291.8426966292135,-8106.528089887641,-1084.3932584269662,540.8314606741573,0
2024-06-14 18:21:27,-0.06841690838,-0.0232128799,-0.009773843922,-0.6679822803,-4.108449936,9.129091263,-223.20454545454544,212.95454545454544,76.36363636363637,-8521.977272727272,-1123.2727272727273,203.9318181818182,0
2024-06-14 18:21:27,-0.109955743,0.07696902007,0.04031710699,-1.063025594,-3.459621429,9.26556015,299.1290322580645,-301.16129032258067,-26.64516129032258,-8506.870967741936,-1068.2903225806451,221.6129032258065,0
2024-06-14 18:21:27,-0.03298672289,0.2260201424,0.02687807009,-1.163581967,-3.191470861,9.21528244,180.13953488372093,-286.30232558139534,2.534883720930232,-8456.56976744186,-967.9651162790698,306.1860465116279,0
2024-06-14 18:21:27,-0.03298672289,0.2260201424,0.02687807009,-1.163581967,-3.191470861,9.21528244,-188.5862068965517,-114.82758620689654,114.72413793103448,-8158.379310344828,-824.4137931034483,501.7931034482759,0
2024-06-14 18:21:27,0.04764748737,0.08429940045,0.02076941915,-1.699883223,-3.251325846,9.30386734,-37.02272727272728,-70.9090909090909,-150.27272727272728,-8348.272727272728,-963.5454545454544,622.5909090909091,0
2024-06-14 18:21:27,0.04764748737,0.08429940045,0.02076941915,-1.699883223,-3.251325846,9.30386734,301.8988764044944,68.3370786516854,-74.88764044943821,-8524.921348314607,-690.1797752808989,460.4494382022472,0
2024-06-14 18:21:27,-0.2089159191,0.2296853364,0.1331686229,-1.663970232,-2.195482969,8.65743351,-214.4078947368421,55.243421052631575,-11.065789473684204,-8337.947368421053,-798.2828947368421,603.9342105263158,0
2024-06-14 18:21:27,-0.03054326214,0.444709897,0.1649336219,-0.9840168953,-2.846705914,9.114726067,-25.96296296296299,59.333333333333336,-47.888888888888886,-8171.555555555556,-1049.4444444444443,609.4814814814815,0
2024-06-14 18:21:27,-0.03054326214,0.444709897,0.1649336219,-0.9840168953,-2.846705914,9.114726067,3.168539325842697,-65.40449438202248,17.348314606741575,-8207.157303370786,-696.370786516854,619.123595505618,0
2024-06-14 18:21:28,-0.05009094998,-0.2247984111,-0.06475171447,-0.9241618514,-2.911349297,9.277531624,-192.3846153846154,-3.46153846153846,-1.6923076923076934,-8494.461538461539,-682.3076923076923,634.9230769230769,0
2024-06-14 18:21:28,-0.05009094998,0.05619960278,0.02443460934,-0.8427590132,-3.165134668,9.311050415,-534.8333333333334,17.19047619047619,-337.2857142857143,-8258.714285714286,-778.4761904761905,601.7142857142857,0
2024-06-14 18:21:28,-0.05009094998,0.05619960278,0.02443460934,-0.8427590132,-3.165134668,9.311050415,184.53932584269663,22.55056179775281,28.88764044943821,-8479.730337078652,-986.5168539325842,464.9213483146068,0
2024-06-14 18:21:28,-0.04764748737,0.3518583775,0.05986479297,-1.146822572,-3.311181068,9.344569206,-191.1590909090909,34.93181818181818,-101.22727272727272,-8281.386363636364,-780.5113636363636,477.45454545454544,0
2024-06-14 18:21:28,-0.04764748737,0.3518583775,0.05986479297,-1.458068848,-3.557783842,9.133879662,-340.875,178.0,-324.875,-8359.375,-1112.875,542.75,0
2024-06-14 18:21:28,-0.02809980139,-0.04031710699,-0.003665191587,-1.458068848,-3.557783842,9.133879662,177.22727272727272,-237.75,-18.897727272727263,-8506.079545454546,-816.5227272727273,708.7272727272727,0
2024-06-14 18:21:28,0.03298672289,0.2040289938,0.02687807009,-1.577778935,-2.78924489,9.167398453,-10.101123595505612,-24.50561797752809,-77.51685393258427,-8281.865168539325,-677.0112359550562,484.5730337078652,0
2024-06-14 18:21:28,0.03298672289,0.2040289938,0.02687807009,-1.577778935,-2.78924489,9.167398453,95.32967032967034,126.41758241758242,59.64835164835165,-8537.87912087912,-883.2527472527472,778.2197802197802,0
2024-06-14 18:21:28,-0.08185594529,-0.5216789246,-0.2370157093,-0.1029506698,-2.466027737,8.77235508,-307.09302325581393,330.2093023255814,-318.6511627906977,-8184.802325581395,-1023.3953488372092,800.3488372093024,0
2024-06-14 18:21:28,-0.1136209369,0.06230825558,0.06719517708,-1.163581967,-3.629609823,9.040505409,-268.42528735632186,17.241379310344826,-65.08045977011494,-8506.793103448275,-921.0459770114944,424.2068965517241,0
2024-06-14 18:21:29,-0.1136209369,0.06230825558,0.06719517708,-1.163581967,-3.629609823,9.040505409,-588.8461538461538,278.15384615384613,105.13186813186812,-8468.747252747253,-1051.4395604395604,544.4505494505495,0
2024-06-14 18:21:29,-0.09773843735,-0.1832595766,-0.06963863969,-0.8020575643,-1.762132406,9.311050415,132.28571428571428,44.71428571428572,-110.64285714285714,-8153.0,-845.5,434.9285714285714,0
2024-06-14 18:21:29,-0.09773843735,-0.1832595766,-0.06963863969,-0.8020575643,-1.762132406,9.311050415,-242.96703296703296,84.2967032967033,-196.63736263736263,-8148.43956043956,-949.0769230769232,494.7692307692308,0
2024-06-14 18:21:29,0.4593706727,-0.1563815027,-0.08185594529,-1.051054597,-3.055001259,9.722852707,-302.986013986014,157.62937062937064,22.63636363636364,-8571.293706293707,-1034.5174825174824,232.74825174825176,0
2024-06-14 18:21:29,0.7452555895,-0.03665191308,-0.6401867867,-0.8475474119,-4.108449936,9.718064308,-172.42857142857144,-154.71428571428572,64.14285714285714,-8538.714285714286,-938.2857142857144,246.7142857142857,0
2024-06-14 18:21:29,0.7452555895,-0.03665191308,-0.6401867867,-0.8475474119,-4.108449936,9.718064308,-28.635294117647064,-221.2941176470588,-274.63529411764705,-8473.04705882353,-1144.6941176470589,426.1647058823529,0
2024-06-14 18:21:29,0.7110471725,0.04276056588,0.232128799,-1.007958889,1.769315004,8.506598473,289.45977011494256,-141.51724137931035,136.29885057471265,-8476.436781609196,-836.0689655172414,438.1264367816092,0
2024-06-14 18:21:29,-0.7208209634,-0.3885102868,0.06719517708,-1.134851575,-1.012747288,9.504981041,-606.2988505747127,64.88505747126437,-214.7816091954023,-8175.551724137931,-1030.2068965517242,482.7701149425287,0
2024-06-14 18:21:29,-0.7208209634,-0.3885102868,0.06719517708,-1.134851575,-1.012747288,9.504981041,-303.6590909090909,43.61363636363636,-215.79545454545456,-8463.863636363636,-1001.181818181818,463.3181818181818,0
2024-06-14 18:21:29,0.17715092,0.3457497358,0.1343903542,-1.52510643,-2.56897831,9.469067574,-14.862068965517238,-21.172413793103445,-36.689655172413794,-8532.586206896553,-860.6551724137931,803.3448275862069,0
2024-06-14 18:21:30,-0.1502728462,-0.04031710699,0.00244346098,-1.453280449,-2.595314741,9.3685112,-370.6741573033708,-228.19101123595505,-232.40449438202248,-8108.325842696629,-682.0449438202247,642.5280898876405,0
2024-06-14 18:21:30,-0.1502728462,-0.04031710699,0.00244346098,-1.453280449,-2.595314741,9.3685112,-145.7674418604651,279.8139534883721,54.76744186046511,-8156.395348837209,-1101.5348837209303,618.9767441860465,0
2024-06-14 18:21:30,0.03176499158,0.03787364438,0.06352998316,-1.59693253,-2.928108692,9.361329079,-48.21348314606742,227.3932584269663,-12.966292134831464,-8397.23595505618,-810.3932584269663,605.2134831460675,0
2024-06-14 18:21:30,0.03176499158,0.03787364438,0.06352998316,-1.59693253,-2.928108692,9.361329079,-237.247191011236,-4.719101123595522,69.32584269662921,-8529.483146067416,-707.9213483146068,591.629213483146,0
2024-06-14 18:21:30,-0.1014036313,0.0,0.006108652335,-1.419761658,-2.901772499,9.315838814,-413.0574712643678,12.35632183908046,-145.44827586206895,-8181.551724137931,-752.0344827586207,531.4597701149426,0
2024-06-14 18:21:30,0.1221730486,-0.6939429045,-0.1991420686,-1.015141487,-4.103661537,9.06205368,213.54545454545456,-318.1363636363636,36.86363636363637,-8485.5,-1149.1363636363635,480.1818181818182,0
2024-06-14 18:21:30,0.1221730486,-0.6939429045,-0.1991420686,-1.015141487,-4.103661537,9.06205368,264.7977528089888,-261.1685393258427,-41.29213483146067,-8450.707865168539,-506.80898876404495,822.2584269662922,0
2024-06-14 18:21:30,0.3005456924,-0.2736676335,-0.03054326214,-1.134851575,-0.8786720037,9.459490776,-396.3333333333333,-53.5,-53.66666666666666,-8110.333333333333,-900.3333333333334,471.3333333333333,0
2024-06-14 18:21:30,-0.04276056588,0.3457497358,0.1038470939,-1.393425345,-3.047818661,9.425971985,-252.1489361702128,230.63829787234044,-288.8510638297872,-8539.936170212766,-1036.659574468085,623.8297872340426,0
2024-06-14 18:21:30,-0.04276056588,0.3457497358,0.1038470939,-1.393425345,-3.047818661,9.425971985,51.39716312056737,-75.03546099290782,-25.730496453900685,-8527.170212765957,-768.5744680851064,589.7872340425532,0
2024-06-14 18:21:31,-0.1123992056,-0.03665191308,-0.009773843922,-1.235408068,-2.794033289,9.469067574,-276.5764705882353,-13.799999999999995,-332.4,-8144.2,-802.6470588235294,513.8352941176471,0
2024-06-14 18:21:31,-0.1123992056,-0.03665191308,-0.009773843922,-1.235408068,-2.794033289,9.469067574,-64.06818181818181,283.1363636363636,-322.47727272727275,-8430.545454545454,-1343.5227272727273,612.8409090909091,0
2024-06-14 18:21:31,0.1111774743,0.4874704778,0.1710422635,-0.8714894056,-3.088520288,9.244012833,334.1590909090909,-10.61363636363636,-234.3181818181818,-8521.545454545454,-848.090909090909,633.9772727272727,0
2024-06-14 18:21:31,-0.1026253626,-0.3946189582,-0.1307251602,-1.359906554,-3.215412855,9.078812599,-262.1363636363636,-154.36363636363637,-78.79545454545453,-8195.09090909091,-817.3409090909091,475.8636363636364,0
2024-06-14 18:21:31,-0.1026253626,-0.3946189582,-0.1307251602,-1.359906554,-3.215412855,9.078812599,-611.629213483146,-34.70786516853934,61.35955056179776,-8109.696629213483,-918.5955056179776,422.7640449438202,0
2024-06-14 18:21:31,-0.1820378453,0.9566149712,0.2724458873,-1.347935557,-2.427720547,9.43315506,310.08045977011494,67.06896551724138,-19.448275862068964,-8373.758620689656,-1057.2758620689656,614.7126436781609,0
2024-06-14 18:21:31,-0.1588249654,-0.09896016866,-0.04642575979,-0.3016694188,-1.841141105,9.366117477,253.2022471910112,-321.0,-190.04494382022472,-8171.123595505618,-731.561797752809,880.0224719101124,0
2024-06-14 18:21:31,-0.1588249654,-0.09896016866,-0.04642575979,-0.3016694188,-1.841141105,9.366117477,-777.9347826086956,65.82608695652173,34.96739130434783,-8281.989130434782,-709.6521739130435,478.1195652173913,0
2024-06-14 18:21:31,-0.08918632567,-0.3689626157,-0.145385921,-1.656787634,-4.477157116,9.057265282,-269.9761904761905,586.9642857142857,-9.083333333333329,-8530.25,-987.9166666666666,585.6785714285714,0
2024-06-14 18:21:31,-0.08918632567,-0.3689626157,-0.145385921,-1.656787634,-4.477157116,9.057265282,-295.46666666666664,-72.84444444444445,13.77777777777778,-8491.333333333334,-735.7777777777778,236.53333333333333,0
2024-06-14 18:21:32,0.2125810981,-0.2736676335,-0.08674286306,-1.316810966,-3.450044632,8.973467827,-17.186046511627893,32.95348837209303,120.97674418604652,-8536.744186046511,-877.046511627907,571.4186046511628,0
2024-06-14 18:21:32,-0.3616322279,0.5558874011,0.228463605,-1.81959331,-2.968810081,9.361329079,81.35955056179776,-309.35955056179773,48.82022471910112,-8125.101123595506,-731.3370786516854,462.8314606741573,0
2024-06-14 18:21:32,-0.3616322279,0.5558874011,0.228463605,-1.81959331,-2.968810081,9.361329079,-57.44705882352941,126.23529411764706,-37.823529411764696,-8421.8,-754.8352941176471,432.9294117647059,0
2024-06-14 18:21:32,-0.2040289938,-0.1734857261,-0.08796459436,-0.5291185975,-0.2537853718,9.143456459,62.42528735632184,-103.8735632183908,-104.3103448275862,-8472.643678160919,-729.4367816091954,625.9195402298851,0
2024-06-14 18:21:32,-0.2504547536,0.1038470939,0.007330383174,-2.003946781,-3.854664803,9.133879662,-93.56756756756756,9.66891891891892,39.21621621621622,-8475.858108108108,-723.9391891891892,425.72297297297297,0
2024-06-14 18:21:32,-0.2504547536,0.1038470939,0.007330383174,-2.003946781,-3.854664803,9.133879662,-1.6756756756756772,4.9391891891891895,85.16216216216216,-8273.831081081082,-751.6418918918919,407.47972972972974,0
2024-06-14 18:21:32,0.00122173049,0.1197295859,0.06230825558,-1.56101954,-3.481169224,9.22725296,94.44444444444444,107.27777777777776,-78.16666666666667,-8401.222222222223,-789.5,412.44444444444446,0
2024-06-14 18:21:32,0.00122173049,0.1197295859,0.06230825558,-1.56101954,-3.481169224,9.22725296,-195.3908045977012,297.7011494252873,48.13793103448276,-8149.275862068966,-710.7931034482758,485.1149425287357,0
2024-06-14 18:21:32,-0.02565634064,-0.01221730467,0.00244346098,-1.544260144,-3.665522814,9.06205368,-100.98876404494382,87.91011235955057,-17.11235955056179,-8542.370786516854,-750.314606741573,584.9662921348314,0
2024-06-14 18:21:32,-0.08429940045,0.04031710699,0.07086037099,-1.553836942,-3.739742994,8.930372238,42.16666666666666,-4.777777777777772,85.11111111111111,-8493.666666666666,-799.7222222222222,600.4444444444445,0
2024-06-14 18:21:33,-0.08429940045,0.04031710699,0.07086037099,-1.553836942,-3.739742994,8.930372238,-145.8068181818182,68.2159090909091,-212.32954545454544,-8233.431818181818,-786.8068181818182,618.9545454545455,0
2024-06-14 18:21:33,-0.08063421398,-0.09407325089,-0.03054326214,-1.304839969,-3.490746021,9.18894577,-18.84042553191489,68.7127659574468,-68.2340425531915,-8488.351063829787,-1059.2446808510638,604.0106382978723,0
2024-06-14 18:21:33,0.08307767659,-0.006108652335,-0.01588249579,-1.400607944,-3.308786631,9.220070839,75.2962962962963,50.14814814814815,-124.66666666666669,-8479.444444444445,-682.1851851851852,622.4814814814815,0
2024-06-14 18:21:33,0.08307767659,-0.006108652335,-0.01588249579,-1.400607944,-3.308786631,9.220070839,101.47191011235957,-86.33707865168539,-309.9550561797753,-8483.865168539325,-693.1348314606741,397.2696629213483,0
2024-06-14 18:21:33,0.06719517708,0.04642575979,0.008552113548,-1.352723956,-3.19865346,9.277531624,58.39080459770115,68.16091954022988,-212.20689655172413,-8461.298850574713,-1073.0114942528735,409.9425287356322,0
2024-06-14 18:21:33,0.06719517708,0.04642575979,0.008552113548,-1.352723956,-3.19865346,9.277531624,324.4835164835165,-10.21978021978022,1.098901098901102,-8418.868131868132,-974.5824175824176,522.7692307692307,0
2024-06-14 18:21:33,-0.2028072625,-0.1404990107,0.05375614017,-1.350329757,-4.067748547,9.021351814,778.9772727272727,-124.6590909090909,262.0,-8101.227272727273,-761.8181818181819,662.75,0
2024-06-14 18:21:33,-0.1979203373,-0.04642575979,-0.01954768784,-1.067813993,-3.45722723,9.25358963,-117.92134831460676,284.0449438202247,-62.62921348314607,-8471.022471910112,-736.0674157303371,418.14606741573033,0
2024-06-14 18:21:33,-0.1979203373,-0.04642575979,-0.01954768784,-1.067813993,-3.45722723,9.25358963,-62.6551724137931,369.4827586206897,-271.2413793103448,-8348.965517241379,-811.7241379310345,609.1379310344828,0
2024-06-14 18:21:33,0.2968805134,-0.1209513173,-0.03176499158,-1.249773264,-4.855441093,8.975862503,-453.7096774193549,290.06451612903226,13.290322580645162,-8472.516129032258,-720.6451612903226,547.0967741935484,0
2024-06-14 18:21:34,-0.2064724565,-0.09529497474,-0.00122173049,-0.9864110947,-3.79241538,9.121908188,-252.88732394366195,-36.23943661971831,-138.0845070422535,-8484.922535211268,-735.2535211267606,380.1971830985916,0
2024-06-14 18:21:34,-0.2064724565,-0.09529497474,-0.00122173049,-0.9864110947,-3.79241538,9.121908188,-41.18181818181819,-236.63636363636363,-46.27272727272727,-8485.545454545454,-831.5454545454545,416.7272727272728,0
2024-06-14 18:21:34,-0.08307767659,0.01832595654,0.0,-0.7613561153,-2.82276392,9.344569206,-301.58620689655174,-50.03448275862069,-355.4482758620689,-8539.724137931034,-703.3103448275862,586.0689655172414,0
2024-06-14 18:21:34,-0.08307767659,0.01832595654,0.0,-0.7613561153,-2.82276392,9.344569206,-505.5,-67.16666666666667,-136.5,-8397.666666666666,-817.5,508.5,0
2024-06-14 18:21:34,0.1624901593,0.2370157093,-0.1551597714,-3.016694069,-0.3399766386,9.141061783,-473.6179775280899,-59.57303370786517,-265.40449438202245,-8150.606741573034,-739.2696629213483,324.59550561797755,0
2024-06-14 18:21:34,0.006108652335,-0.8185594082,-0.07452555746,-1.209071875,-4.345476151,8.825027466,-219.2022471910112,-32.797752808988776,-133.71910112359552,-8521.516853932584,-1307.3483146067415,184.80898876404493,0
2024-06-14 18:21:34,0.006108652335,-0.8185594082,-0.07452555746,-1.209071875,-4.345476151,8.825027466,688.0,-190.0,-45.5,-8348.0,-1060.5,418.0,0
2024-06-14 18:21:34,0.07696902007,-0.0415388383,0.06597344577,-2.303221941,-4.201824188,8.774748802,137.48275862068965,-315.2413793103448,341.9655172413793,-8239.724137931034,-455.7931034482759,797.8275862068965,0
2024-06-14 18:21:34,-0.2394591719,-0.07086037099,0.0171042271,-1.695094824,-3.397372246,9.169792175,-427.5376344086022,192.67741935483872,-186.44086021505376,-8235.763440860215,-680.8387096774194,533.3870967741935,0
2024-06-14 18:21:34,-0.2394591719,-0.07086037099,0.0171042271,-1.695094824,-3.397372246,9.169792175,-113.22471910112358,-42.22471910112358,-303.4269662921348,-8562.337078651686,-993.9325842696628,525.7191011235955,0
2024-06-14 18:21:35,0.1795943826,0.2638937831,0.06841690838,-1.07739079,-3.476380825,9.476250648,161.93975903614458,-307.30120481927713,-80.66265060240963,-8533.44578313253,-1128.1927710843374,627.9879518072289,0
2024-06-14 18:21:35,0.1795943826,0.2638937831,0.06841690838,-1.07739079,-3.476380825,9.476250648,8.409090909090908,-289.90909090909093,-190.1818181818182,-8161.545454545455,-748.0454545454545,495.5,0
2024-06-14 18:21:35,0.03665191308,-0.04886921868,-0.006108652335,-0.9145850539,-3.526659012,9.181763649,-201.13636363636363,259.3636363636364,-185.47727272727272,-8217.988636363636,-934.8522727272727,425.5340909090909,0
2024-06-14 18:21:35,0.5803219676,-0.1087340117,-0.03420845419,-0.9816226959,-3.246537447,9.557653427,-305.22222222222223,79.61111111111111,-355.72222222222223,-8167.166666666667,-927.7777777777778,609.7222222222222,0
2024-06-14 18:21:35,0.5803219676,-0.1087340117,-0.03420845419,-0.9816226959,-3.246537447,9.557653427,-227.6292134831461,76.3932584269663,-223.2808988764045,-8295.191011235955,-968.8426966292136,609.0,0
2024-06-14 18:21:35,-0.712268889,0.2028072625,0.2235766798,-0.1963245422,-0.5315127969,8.635885239,254.72413793103448,-300.8045977011494,117.58620689655172,-8492.241379310344,-1084.1494252873565,463.9770114942529,0
2024-06-14 18:21:35,-0.01832595654,0.2553416789,0.04764748737,-1.403002143,-1.089361787,9.516951561,40.66666666666666,20.66666666666667,-335.6666666666667,-8098.0,-1067.6666666666667,429.0,0
2024-06-14 18:21:35,-0.01832595654,0.2553416789,0.04764748737,-1.403002143,-1.089361787,9.516951561,32.169934640522875,-107.43790849673204,-338.93464052287584,-8131.333333333333,-921.9150326797386,427.0392156862745,0
2024-06-14 18:21:35,-0.1527163088,0.05375614017,0.00122173049,-1.766920805,-2.52827692,9.397241592,1433.304347826087,-168.17391304347825,1017.2608695652174,-8333.869565217392,-999.7826086956522,749.2608695652174,0
2024-06-14 18:21:35,-0.1527163088,0.05375614017,0.00122173049,-1.766920805,-2.52827692,9.397241592,1512.8488372093022,-229.7906976744186,1256.7325581395348,-8282.581395348838,-254.4418604651163,796.8604651162791,0
2024-06-14 18:21:36,0.7147123218,-0.3152064681,-0.1111774743,-0.7900865674,-1.323993564,8.908824921,2.71264367816092,273.14942528735634,821.5172413793103,-8547.448275862069,-327.04597701149424,692.1034482758621,0
2024-06-14 18:21:36,0.2981022298,-0.6609562039,-0.1857030392,-0.3687070608,-1.845929503,8.975862503,81.0,105.0,311.0,-8349.153846153846,-562.5384615384615,739.6153846153846,0
2024-06-14 18:21:36,0.2981022298,-0.6609562039,-0.1857030392,-0.3687070608,-1.845929503,8.975862503,540.75,-304.5,38.25,-8377.25,-221.5,746.5,0
2024-06-14 18:21:36,-0.2651155293,-0.1905899495,-0.05497787148,-1.956062794,-2.813186884,9.308655739,11.103448275862064,-153.79310344827587,-102.34482758620688,-8334.0,-109.27586206896552,735.0689655172414,0
2024-06-14 18:21:36,-0.106290549,0.04398229718,0.03298672289,-1.371877551,-2.71263051,9.366117477,-490.0,42.0,-277.0,-8444.5,-333.5,1040.0,0
2024-06-14 18:21:36,-0.106290549,0.04398229718,0.03298672289,-1.371877551,-2.71263051,9.366117477,-670.5681818181818,-33.20454545454545,-268.5681818181818,-8182.022727272727,-578.6818181818181,739.2272727272727,0
2024-06-14 18:21:36,-0.106290549,-0.1869247705,-0.05375614017,-1.101332784,-4.350264549,9.155426979,-431.0674157303371,102.58426966292134,224.76404494382024,-8405.280898876405,-267.0561797752809,783.9325842696629,0
2024-06-14 18:21:36,-0.106290549,-0.1869247705,-0.05375614017,-1.101332784,-4.350264549,9.155426979,-500.6923076923077,138.4835164835165,78.06593406593407,-8611.978021978022,-301.7142857142857,788.4175824175824,0
2024-06-14 18:21:36,-0.145385921,0.1918116808,0.05253441259,-0.8020575643,-2.882618904,9.200917244,-441.3152173913044,-47.782608695652186,-499.6413043478261,-8409.021739130434,-242.25,834.5869565217391,0
2024-06-14 18:21:36,0.1734857261,-0.4178318381,-0.1930334121,-2.549824715,-3.921702385,8.769960403,-859.8505747126437,374.6896551724138,-258.95402298850576,-8468.298850574713,-626.7701149425287,483.0919540229885,0
2024-06-14 18:21:37,0.1734857261,-0.4178318381,-0.1930334121,-2.549824715,-3.921702385,8.769960403,-328.0574712643678,-23.517241379310345,-173.54022988505747,-8424.781609195403,-557.0574712643678,417.9310344827586,0
2024-06-14 18:21:37,-0.01221730467,-0.4764748812,-0.05864306539,-1.757344007,-4.350264549,8.906430244,-250.4848484848485,61.266666666666666,-168.47272727272727,-8166.90303030303,-456.3575757575758,463.5212121212121,0
2024-06-14 18:21:37,0.2651155293,0.3396410644,0.03298672289,-1.201889277,-3.488351822,9.397241592,-229.27272727272728,54.6,-170.29090909090908,-8151.145454545454,-476.96363636363634,473.21818181818185,0
2024-06-14 18:21:37,0.2651155293,0.3396410644,0.03298672289,-1.201889277,-3.488351822,9.397241592,36.09615384615385,30.673076923076923,-348.52884615384613,-8338.961538461539,-502.7788461538461,484.6057692307692,0
2024-06-14 18:21:37,-0.02199114859,0.02443460934,-0.0109955743,0.03112462163,-3.464409828,8.655038834,-212.6,204.6,-335.8,-8320.6,-522.6,481.2,0
2024-06-14 18:21:37,-0.02199114859,0.02443460934,-0.0109955743,0.03112462163,-3.464409828,8.655038834,-164.68539325842696,273.1348314606741,27.033707865168537,-8496.741573033707,-461.0337078651685,407.3033707865168,0
2024-06-14 18:21:37,0.6401867867,-0.3518583775,-0.07086037099,-1.053448796,-2.41574955,9.775525093,-148.0,223.90804597701148,-277.6896551724138,-8506.011494252874,-780.5057471264367,613.9080459770115,0
2024-06-14 18:21:37,-0.9004153609,0.1307251602,0.07452555746,-0.7254431248,-3.900154591,10.57758331,-357.76404494382024,-95.58426966292134,-95.07865168539324,-8544.438202247191,-470.6404494382023,436.5280898876405,0
2024-06-14 18:21:37,-0.9004153609,0.1307251602,0.07452555746,-0.7254431248,-3.900154591,10.57758331,-567.0,288.1123595505618,-95.13483146067416,-8457.033707865168,-433.5505617977528,585.8202247191011,0
2024-06-14 18:21:37,-0.1795943826,0.3090978265,0.1991420686,-1.098938584,-1.814804912,11.06599998,-224.55172413793105,-32.689655172413794,-237.7586206896552,-8366.413793103447,-480.7241379310345,585.8620689655172,0
2024-06-14 18:21:38,-0.1136209369,1.080009699,0.2419026345,-0.1532289088,-3.179499865,8.856152534,-300.4,60.333333333333336,-55.13333333333333,-8484.266666666666,-540.3333333333334,526.8666666666667,0
2024-06-14 18:21:38,-0.1136209369,1.080009699,0.2419026345,-0.1532289088,-3.179499865,8.856152534,-462.7272727272728,539.2727272727273,-251.0,-8503.0,-870.1818181818181,214.0909090909091,0
2024-06-14 18:21:38,-0.3323107064,-0.1111774743,0.0232128799,-1.740584612,-4.003105164,8.805873871,-407.5909090909091,-159.38636363636363,-121.1590909090909,-8563.03409090909,-455.6818181818182,391.5340909090909,0
2024-06-14 18:21:38,-0.3323107064,-0.1111774743,0.0232128799,-1.740584612,-4.003105164,8.805873871,-712.7777777777778,-119.11111111111111,-154.83333333333331,-8203.555555555555,-641.9444444444445,535.1666666666666,0
2024-06-14 18:21:38,-0.5241223574,-0.334754169,-0.04276056588,-0.8283938169,-2.612074137,8.801085472,-179.875,-76.42045454545455,-331.3863636363636,-8444.579545454546,-966.875,320.2159090909091,0
2024-06-14 18:21:38,0.2785545588,-0.4031710625,-0.2370157093,-2.075772762,-2.829946518,9.167398453,664.0851063829788,-180.7234042553192,-128.39361702127658,-8520.117021276596,-602.9468085106382,392.89361702127655,0
2024-06-14 18:21:38,0.2785545588,-0.4031710625,-0.2370157093,-2.075772762,-2.829946518,9.167398453,153.13483146067415,25.606741573033705,-35.60674157303371,-8135.921348314607,-526.561797752809,388.3033707865168,0
2024-06-14 18:21:38,1.180191636,-0.4960225821,-0.1319468915,-1.158793569,-1.742978811,9.418789864,-309.46067415730334,244.71910112359552,-337.0224719101124,-8551.191011235955,-483.7415730337079,585.4494382022472,0
2024-06-14 18:21:38,-0.4495968223,0.9773843884,0.2883284092,-1.948880196,-1.426944256,9.840168953,-300.50314465408803,-29.056603773584904,-340.7295597484277,-8537.327044025158,-530.0314465408806,562.8238993710692,0
2024-06-14 18:21:38,-0.4495968223,0.9773843884,0.2883284092,-1.948880196,-1.426944256,9.840168953,-291.6981132075472,-70.56603773584905,-197.96226415094333,-8521.603773584906,-741.9811320754717,555.9056603773585,0
2024-06-14 18:21:39,0.2663372457,-0.2748893499,-0.09162978828,-1.611297727,-3.023876667,9.531316757,49.86516853932584,-142.04494382022472,44.39325842696629,-8290.438202247191,-846.7078651685393,611.370786516854,0
2024-06-14 18:21:39,0.2663372457,-0.2748893499,-0.09162978828,-1.611297727,-3.023876667,9.531316757,-4.955555555555549,71.24444444444444,69.53333333333333,-8491.533333333333,-832.7333333333333,527.7333333333333,0
2024-06-14 18:21:39,0.08429940045,-0.1490511149,-0.7098253965,-2.772485495,-1.544260144,9.203310966,-205.55172413793105,53.48275862068965,-172.06896551724137,-8144.931034482759,-687.6206896551724,429.3103448275862,0
2024-06-14 18:21:39,-0.5766568184,0.1893682331,0.3225368559,-1.728613615,-3.509899616,9.543288231,-29.292134831460658,306.7415730337078,-73.19101123595505,-8374.337078651686,-700.6516853932584,571.2921348314607,0
2024-06-14 18:21:39,-0.5766568184,0.1893682331,0.3225368559,-1.728613615,-3.509899616,9.543288231,254.6966292134832,-171.06741573033707,2.9325842696629216,-8325.460674157302,-799.8089887640449,591.7977528089888,0
2024-06-14 18:21:39,-0.7892379165,0.2406809032,-0.0109955743,-1.012747288,-3.332728863,9.595960617,179.79310344827587,114.51724137931036,-266.1034482758621,-8166.689655172414,-884.0344827586207,605.2068965517242,0
2024-06-14 18:21:39,-0.03420845419,0.3677408695,0.1356120855,-0.9026140571,-3.732560396,9.093177795,557.7272727272727,-281.04545454545456,101.13636363636364,-8529.545454545454,-519.8181818181819,624.3181818181819,0
2024-06-14 18:21:39,-0.03420845419,0.3677408695,0.1356120855,-0.9026140571,-3.732560396,9.093177795,-62.02298850574713,-311.85057471264366,52.689655172413794,-8228.942528735632,-777.0344827586207,492.5057471264368,0
2024-06-14 18:21:39,-0.618195653,-0.07819075137,-0.1160643995,-1.795651317,-3.485957623,9.030928612,-122.0,-196.7142857142857,38.57142857142857,-8363.42857142857,-478.57142857142856,696.5714285714286,0
2024-06-14 18:21:39,-0.618195653,-0.07819075137,-0.1160643995,-1.795651317,-3.485957623,9.030928612,-489.6,320.8705882352941,71.34117647058824,-8278.517647058823,-639.3764705882353,610.7294117647059,0
2024-06-14 18:21:40,0.4776966274,-0.03665191308,-0.04642575979,-1.877054095,-1.647210717,9.430760384,-74.94505494505495,12.186813186813184,-294.31868131868134,-8352.164835164835,-825.6593406593406,581.2967032967033,0
2024-06-14 18:21:40,-0.06475171447,-0.07941248268,0.004886921961,-1.55862534,-3.866635799,9.088389397,-54.82954545454545,-230.8181818181818,-97.34090909090908,-8418.068181818182,-482.32954545454544,507.9431818181818,0
2024-06-14 18:21:40,-0.06475171447,-0.07941248268,0.004886921961,-1.55862534,-3.866635799,9.088389397,-320.9770114942529,-26.505747126436773,-106.52873563218392,-8123.241379310345,-704.3218390804598,558.8390804597701,0
2024-06-14 18:21:40,-0.0720821023,-0.125838235,0.01588249579,-1.158793569,-3.878606796,9.090784073,90.35555555555555,-71.6888888888889,-154.0,-8418.422222222222,-664.4888888888889,500.8,0
2024-06-14 18:21:40,-0.08185594529,0.00122173049,0.008552113548,-1.297657371,-3.371036053,9.22725296,-142.16,-98.72,-2.480000000000004,-8475.76,-808.56,776.44,0
2024-06-14 18:21:40,-0.2724458873,0.1233947799,0.06230825558,-1.510741234,-3.727771997,9.088389397,50.842696629213485,-31.13483146067416,57.32584269662921,-8375.685393258427,-720.9213483146067,574.6629213483146,0
2024-06-14 18:21:40,-0.2724458873,0.1233947799,0.06230825558,-1.510741234,-3.727771997,9.088389397,9.269662921348312,-202.48314606741573,-49.41573033707866,-8492.539325842698,-800.1348314606741,471.2921348314607,0
2024-06-14 18:21:40,-0.1624901593,-0.07574728876,-0.009773843922,-1.391031146,-2.928108692,9.35654068,-277.6829268292683,-36.95121951219512,-148.41463414634148,-8504.621951219513,-675.8780487804878,435.4878048780488,0
2024-06-14 18:21:40,-0.03665191308,-0.006108652335,0.007330383174,-1.484405041,-3.004723072,9.327810287,-129.95604395604394,96.010989010989,-70.56043956043956,-8314.978021978022,-834.2087912087912,536.5604395604396,0
2024-06-14 18:21:41,-0.03665191308,-0.006108652335,0.007330383174,-1.484405041,-3.004723072,9.327810287,-48.18181818181819,30.72727272727272,-110.02272727272728,-8407.295454545454,-741.0909090909091,470.9090909090909,0
2024-06-14 18:21:41,-0.009773843922,0.03909537569,0.01832595654,-1.59932673,-3.088520288,9.263166428,109.51685393258428,-226.46067415730337,-222.56179775280896,-8190.662921348315,-651.5168539325842,567.7191011235955,0
2024-06-14 18:21:41,0.004886921961,-0.003665191587,-0.01343903504,-1.467645645,-3.248931646,9.246406555,120.65517241379312,-60.51724137931035,53.82758620689656,-8437.551724137931,-854.3793103448276,393.7586206896552,0
2024-06-14 18:21:41,0.004886921961,-0.003665191587,-0.01343903504,-1.467645645,-3.248931646,9.246406555,-328.22727272727275,70.86363636363636,-80.5909090909091,-8471.90909090909,-841.3636363636364,418.4090909090909,0
2024-06-14 18:21:41,-0.1331686229,0.2260201424,0.04276056588,-1.953668594,-3.497928619,9.083600998,-352.5,-60.5,40.0,-8236.5,-851.0,603.0,0
2024-06-14 18:21:41,-0.1331686229,0.2260201424,0.04276056588,-1.953668594,-3.497928619,9.083600998,-49.91954022988506,108.83908045977012,-289.62068965517244,-8516.413793103447,-653.448275862069,577.5747126436781,0
2024-06-14 18:21:41,-0.06352998316,0.06719517708,0.03176499158,-1.786074519,-3.224989653,9.107542992,-297.123595505618,49.68539325842696,-309.0112359550562,-8254.494382022473,-886.561797752809,460.3595505617977,0
2024-06-14 18:21:41,-0.1050688252,0.03054326214,-0.01954768784,-1.690306425,-3.593696833,9.117119789,-92.37078651685393,-95.75280898876404,87.9438202247191,-8473.32584269663,-695.1348314606741,551.2921348314607,0
2024-06-14 18:21:41,-0.1050688252,0.03054326214,-0.01954768784,-1.690306425,-3.593696833,9.117119789,306.6551724137931,46.310344827586206,30.74712643678161,-8472.252873563219,-847.8390804597701,781.8275862068965,0
2024-06-14 18:21:41,0.1307251602,0.05864306539,-0.232128799,-1.879448295,-3.919308186,9.251194954,-399.4352941176471,94.2470588235294,64.10588235294118,-8468.376470588235,-812.4823529411765,440.9294117647059,0
2024-06-14 18:21:42,0.04031710699,-0.05742133409,0.07086037099,-1.482010841,-2.923320293,9.29189682,-71.33707865168537,-35.87640449438202,-169.95505617977528,-8481.887640449439,-1086.370786516854,427.1011235955056,0
2024-06-14 18:21:42,0.04031710699,-0.05742133409,0.07086037099,-1.482010841,-2.923320293,9.29189682,16.52980132450331,13.437086092715234,-190.50993377483445,-8339.940397350992,-787.4569536423841,413.2649006622517,0
2024-06-14 18:21:42,0.04886921868,-0.3604104817,0.1050688252,-0.7972691655,-4.23294878,9.105149269,-152.36,205.24,-334.44,-8149.32,-1029.44,584.16,0
2024-06-14 18:21:42,0.04886921868,-0.3604104817,0.1050688252,-0.7972691655,-4.23294878,9.105149269,-255.34782608695653,-110.21739130434784,-94.3695652173913,-8512.53804347826,-1076.2445652173913,555.9239130434783,0
2024-06-14 18:21:42,-0.1319468915,0.1319468915,0.06841690838,-1.367089152,-3.155557871,9.351752281,-42.30434782608697,-14.565217391304344,-61.76086956521739,-8503.298913043478,-881.1358695652174,574.4021739130435,0
2024-06-14 18:21:42,-0.2467895597,-0.09285151958,0.04276056588,-0.7541735172,-1.587355733,9.095572472,120.5,65.75,-56.25,-8487.0,-719.75,579.25,0
2024-06-14 18:21:42,-0.2467895597,-0.09285151958,0.04276056588,-0.7541735172,-1.587355733,9.095572472,95.73404255319149,86.69148936170212,-33.15957446808511,-8459.212765957447,-697.2127659574468,544.8829787234042,0
2024-06-14 18:21:42,0.7012733221,-0.2858849466,-0.2052507252,-0.4309563041,-2.291250944,9.366117477,-55.8125,-216.1,64.925,-8487.3125,-698.725,526.8125,0
2024-06-14 18:21:42,-0.7086036801,-0.4214970171,-0.3909537494,-2.726995707,-6.20337677,8.561665535,-267.53846153846155,93.46153846153848,65.53846153846153,-8467.23076923077,-742.6923076923077,391.0769230769231,0
2024-06-14 18:21:42,-0.7086036801,-0.4214970171,-0.3909537494,-2.726995707,-6.20337677,8.561665535,74.14285714285714,77.42857142857143,51.142857142857146,-8460.714285714286,-952.7142857142858,387.8571428571428,0
2024-06-14 18:21:43,-0.7171558142,0.6291912198,0.2919935882,-2.63601613,-3.102885485,9.078812599,-20.5,115.83333333333331,98.0,-8455.166666666666,-722.3333333333334,404.6666666666667,0
2024-06-14 18:21:43,-0.7171558142,0.6291912198,0.2919935882,-2.63601613,-3.102885485,9.078812599,105.73033707865169,-75.13483146067415,51.19101123595506,-8474.988764044943,-653.1685393258427,615.4494382022472,0
2024-06-14 18:21:43,0.2150245607,-0.09407325089,-0.2602286041,-3.11964488,-3.301604033,8.83699894,-236.4943820224719,35.741573033707866,-151.6629213483146,-8147.044943820225,-781.8314606741573,417.5842696629214,0
2024-06-14 18:21:43,-0.3567453027,-0.1734857261,0.3066543639,-2.7533319,-4.118026733,8.927978516,-497.3043478260869,277.17391304347825,-314.2173913043478,-8160.521739130435,-939.4782608695652,561.4347826086956,0
2024-06-14 18:21:43,-0.3567453027,-0.1734857261,0.3066543639,-2.7533319,-4.118026733,8.927978516,71.54022988505747,-19.356321839080465,-5.64367816091954,-8546.827586206897,-1096.1494252873565,594.8505747126437,0
2024-06-14 18:21:43,-0.581543684,-0.03298672289,0.1404990107,-0.9289502501,-4.857835293,8.894459724,-81.13483146067415,-94.7191011235955,-97.76404494382022,-8155.685393258427,-687.3370786516854,508.4606741573034,0
2024-06-14 18:21:43,0.2125810981,-0.2028072625,-0.1576032341,-1.551442742,-3.545812607,9.117119789,-263.0,137.0,-305.0,-8315.5,-729.5,568.0,0
2024-06-14 18:21:43,0.2125810981,-0.2028072625,-0.1576032341,-1.551442742,-3.545812607,9.117119789,-187.1543209876544,-22.01851851851852,-199.5617283950617,-8276.864197530864,-841.679012345679,526.8641975308642,0
2024-06-14 18:21:43,0.3640756905,-0.1197295859,0.07086037099,-1.108515382,-3.967192173,10.01255131,-169.2530864197531,-23.87037037037037,77.59876543209879,-8496.617283950618,-1042.9135802469136,546.6172839506173,0
2024-06-14 18:21:43,0.05986479297,-0.4776966274,0.2040289938,0.4692635238,1.00317049,8.911218643,-555.7441860465117,364.2093023255814,2.6511627906976742,-8410.953488372093,-966.5348837209302,223.02325581395348,0
2024-06-14 18:21:44,0.05986479297,-0.4776966274,0.2040289938,0.4692635238,1.00317049,8.911218643,2.011363636363626,118.79545454545452,14.636363636363626,-8523.613636363636,-1058.25,220.27272727272728,0
2024-06-14 18:21:44,-0.1857030392,-0.444709897,-0.6731734872,-1.944091797,-3.861847401,8.7843256,-140.0,358.1978021978022,86.6043956043956,-8182.241758241758,-1068.076923076923,154.9010989010989,0
2024-06-14 18:21:44,-0.1857030392,-0.444709897,-0.6731734872,-1.944091797,-3.861847401,8.7843256,40.142857142857146,-57.523809523809526,-11.88095238095238,-8564.5,-1061.2619047619048,339.8809523809524,0
2024-06-14 18:21:44,-0.4239404798,-0.3298672438,0.5766568184,-2.032677174,-3.634398222,9.346963882,272.752688172043,-351.35483870967744,322.40860215053766,-8543.967741935483,-1049.5913978494625,324.7204301075269,0
2024-06-14 18:21:44,-0.5888741016,0.3665191531,-0.1661553532,-1.807622313,-4.285621166,9.346963882,1029.5060240963855,-433.0120481927711,165.1566265060241,-8163.0,-1073.2048192771083,219.3012048192771,0
2024-06-14 18:21:44,-0.5888741016,0.3665191531,-0.1661553532,-1.807622313,-4.285621166,9.346963882,1774.8539325842696,-539.1348314606741,1184.7752808988764,-8502.977528089888,-935.9325842696628,583.3595505617977,0
2024-06-14 18:21:44,0.00122173049,-0.5265658498,0.8246681094,-1.04147768,-6.677428722,9.006986618,1738.7826086956522,-731.7826086956522,1459.5217391304348,-8526.130434782608,-300.86956521739125,762.9130434782609,0
2024-06-14 18:21:44,0.00122173049,-0.5265658498,0.8246681094,-1.04147768,-6.677428722,9.006986618,615.0,-663.1910112359551,1423.056179775281,-8507.52808988764,225.3370786516854,1021.9550561797752,0
2024-06-14 18:21:44,-0.58276546,0.4618141353,0.2040289938,-1.604115129,-4.865017891,9.047688484,32.05747126436781,-151.6206896551724,1002.7011494252874,-8216.425287356322,133.70114942528735,1094.1954022988505,0
2024-06-14 18:21:44,0.3665191531,-0.1710422635,-0.1624901593,-1.276109457,-4.230554581,8.817844391,245.02197802197804,290.35164835164835,479.6703296703297,-8425.527472527472,163.23076923076923,1040.7142857142858,0
2024-06-14 18:21:45,0.3665191531,-0.1710422635,-0.1624901593,-1.276109457,-4.230554581,8.817844391,322.59090909090907,-110.9090909090909,599.1136363636364,-8494.545454545454,692.5,737.6363636363636,0
2024-06-14 18:21:45,-0.1466076523,-0.07941248268,-0.008552113548,-1.082179189,-3.67988801,9.021351814,-810.9186046511628,-123.1279069767442,-335.1046511627907,-8215.837209302326,580.3604651162791,879.1511627906976,0
2024-06-14 18:21:45,-0.6988298297,-0.2199114859,-0.9272934198,-1.625662923,-5.64552784,8.518569946,-12.965517241379317,-47.0,-226.3793103448276,-8369.068965517241,288.17241379310343,797.1379310344828,0
2024-06-14 18:21:45,-0.6988298297,-0.2199114859,-0.9272934198,-1.625662923,-5.64552784,8.518569946,252.7721518987342,-432.4050632911392,-71.10126582278481,-8163.658227848101,494.3037974683545,1142.493670886076,0
2024-06-14 18:21:45,-0.1038470939,0.08796459436,0.2797762752,-1.403002143,-2.79163909,9.263166428,43.27848101265823,-565.9493670886076,58.01265822784811,-8124.4177215189875,506.9620253164557,1138.0632911392406,0
2024-06-14 18:21:45,-0.1038470939,0.08796459436,0.2797762752,-1.403002143,-2.79163909,9.263166428,-628.6904761904761,281.92857142857144,-411.4285714285714,-8122.190476190476,506.9285714285714,1053.071428571429,0
2024-06-14 18:21:45,-0.3152064681,-0.1136209369,0.109955743,-0.6488286853,-3.706224203,9.308655739,-586.1379310344828,316.51724137931035,-269.1379310344828,-8541.965517241379,597.6206896551724,1059.7241379310344,0
2024-06-14 18:21:45,0.7501425147,-0.432492584,0.7867944241,-1.549048543,-6.423643112,8.614337921,-506.1136363636364,365.04545454545456,-63.59090909090909,-8488.5,424.77272727272725,672.3863636363636,0
2024-06-14 18:21:45,0.7501425147,-0.432492584,0.7867944241,-1.549048543,-6.423643112,8.614337921,-362.4494382022472,558.8426966292135,-527.6741573033707,-8537.741573033707,243.80898876404493,802.4943820224719,0
2024-06-14 18:21:45,-0.7941248417,0.1600466967,-0.5204572082,-2.71502471,-3.507505417,8.714894295,-541.3586956521739,-83.90217391304348,-341.3369565217391,-8494.304347826086,216.66304347826087,801.1195652173913,0
2024-06-14 18:21:46,-0.3139847219,0.5119050741,0.1087340117,-2.391807556,-1.503558636,9.579200745,-551.6206896551724,251.1034482758621,-162.6206896551724,-8143.9655172413795,209.93103448275863,741.8620689655172,0
2024-06-14 18:21:46,-0.3139847219,0.5119050741,0.1087340117,-2.391807556,-1.503558636,9.579200745,-434.5505617977528,221.80898876404493,-359.8988764044944,-8525.056179775282,337.2134831460674,468.6179775280899,0
2024-06-14 18:21:46,0.3530801237,-0.4667010605,-0.3885102868,-1.82198751,-5.566518784,8.726864815,-196.26666666666668,97.4,-163.73333333333335,-8409.31111111111,289.6666666666667,499.1333333333333,0
2024-06-14 18:21:46,0.1539380401,0.4019493461,0.1185078546,-1.429338455,-4.146757126,8.961497307,-95.18604651162792,-199.04651162790697,-311.6511627906977,-8372.186046511628,324.5348837209302,454.7441860465116,0
2024-06-14 18:21:46,0.1539380401,0.4019493461,0.1185078546,-1.429338455,-4.146757126,8.961497307,-75.24137931034483,-318.62068965517244,46.58620689655172,-8518.379310344828,339.41379310344826,786.7586206896551,0
2024-06-14 18:21:46,-0.1918116808,0.6157521605,-0.1527163088,-1.704671621,-2.93768549,9.162610054,-75.875,-368.9375,-188.625,-8265.4375,154.5625,841.375,0
2024-06-14 18:21:46,-0.1918116808,0.6157521605,-0.1527163088,-1.704671621,-2.93768549,9.162610054,-221.07865168539325,162.0,-496.9325842696629,-8440.14606741573,150.35955056179776,850.5955056179776,0
2024-06-14 18:21:46,0.6279694438,-0.5986479521,-0.1563815027,-1.766920805,-4.503493309,8.760383606,-446.7977528089888,-96.06741573033707,-502.0112359550562,-8546.359550561798,276.19101123595505,871.8089887640449,0
2024-06-14 18:21:46,-0.09529497474,-0.04886921868,0.006108652335,-1.15400517,-3.478775024,9.145850182,-661.0691823899372,-45.723270440251575,-477.52201257861634,-8506.59748427673,-44.44025157232704,669.1132075471698,0
2024-06-14 18:21:46,-0.09529497474,-0.04886921868,0.006108652335,-1.15400517,-3.478775024,9.145850182,3.6279069767441854,37.81395348837209,-430.4418604651163,-8530.302325581395,-216.53488372093025,669.7441860465117,0
2024-06-14 18:21:47,0.0415388383,0.09529497474,0.03176499158,-1.163581967,-3.56496644,9.179368973,-610.7674418604652,321.3953488372093,-437.7906976744186,-8170.488372093023,-287.2093023255814,494.5348837209302,0
2024-06-14 18:21:47,-0.0293215327,0.03420845419,0.01832595654,-1.252167463,-3.691859007,9.006986618,-875.2307692307693,366.7802197802198,-610.8791208791208,-8283.42857142857,-389.2087912087912,427.3626373626374,0
2024-06-14 18:21:47,-0.0293215327,0.03420845419,0.01832595654,-1.252167463,-3.691859007,9.006986618,100.41379310344828,157.3448275862069,-183.27586206896552,-8372.103448275862,-495.7586206896552,546.7931034482758,0
2024-06-14 18:21:47,-0.04276056588,0.0109955743,0.0171042271,-1.335964561,-3.806780815,9.071630478,-256.1363636363636,-69.0,-307.54545454545456,-8135.75,-542.1363636363636,516.6136363636364,0
2024-06-14 18:21:47,-0.04276056588,0.0109955743,0.0171042271,-1.335964561,-3.806780815,9.071630478,-587.2471910112359,303.17977528089887,-324.97752808988764,-8468.022471910112,-226.86516853932585,209.6067415730337,0
2024-06-14 18:21:47,-0.02199114859,0.145385921,0.0232128799,-1.472434044,-3.172317266,9.10036087,-827.1428571428571,366.7142857142857,-220.42857142857144,-8465.857142857143,-796.0,162.57142857142858,0
2024-06-14 18:21:47,0.1136209369,-0.0171042271,-0.08429940045,-1.989581585,-3.56736064,9.085995674,-193.3033707865169,-45.68539325842698,-323.4719101123595,-8359.921348314607,-613.0786516853932,198.42696629213484,0
2024-06-14 18:21:47,0.1136209369,-0.0171042271,-0.08429940045,-1.989581585,-3.56736064,9.085995674,-307.5,-90.27777777777776,-602.8888888888889,-8506.444444444445,-1048.2222222222222,136.44444444444446,0
2024-06-14 18:21:47,-0.07574728876,0.08429940045,0.2638937831,-1.539471745,-3.222595453,9.018958092,267.29213483146066,-231.7303370786517,30.51685393258427,-8537.359550561798,-620.314606741573,302.1011235955056,0
2024-06-14 18:21:47,1.143539786,-0.2590068579,0.2333505303,-1.297657371,-0.2106897533,9.84974575,119.0,-124.36363636363636,214.72727272727272,-8142.090909090909,-617.7272727272727,626.4545454545455,0
2024-06-14 18:21:48,1.143539786,-0.2590068579,0.2333505303,-1.297657371,-0.2106897533,9.84974575,-345.6136363636364,115.02272727272728,-324.90909090909093,-8453.545454545454,-813.5681818181819,572.4090909090909,0
2024-06-14 18:21:48,0.03665191308,-0.2394591719,-0.1026253626,-0.03830722719,-2.475604534,8.959102631,275.0,36.10112359550562,-337.19101123595505,-8503.85393258427,-725.561797752809,390.9213483146068,0
2024-06-14 18:21:48,0.03665191308,-0.2394591719,-0.1026253626,-0.03830722719,-2.475604534,8.959102631,13.82758620689654,54.02298850574712,-91.35632183908046,-8503.540229885057,-603.2988505747127,594.0114942528736,0
2024-06-14 18:21:48,-0.05986479297,0.1026253626,0.01466076635,-1.149216771,-5.295974255,8.829815865,71.77777777777777,57.27777777777778,-286.55555555555554,-8476.388888888889,-675.1666666666666,622.8888888888889,0
2024-06-14 18:21:48,-0.1307251602,0.1759291887,0.03054326214,-0.9050082564,-4.005499363,9.129091263,15.34615384615384,80.65384615384616,-109.3653846153846,-8326.73076923077,-744.4615384615385,616.3076923076923,0
2024-06-14 18:21:48,-0.1307251602,0.1759291887,0.03054326214,-0.9050082564,-4.005499363,9.129091263,-289.1818181818182,-24.636363636363622,-274.6363636363636,-8413.818181818182,-873.4545454545455,565.6818181818181,0
2024-06-14 18:21:48,0.07819075137,0.1343903542,0.05742133409,-1.472434044,-3.476380825,9.071630478,12.677777777777775,121.56666666666666,58.48888888888889,-8510.144444444444,-694.6888888888889,540.5444444444445,0
2024-06-14 18:21:48,-0.1661553532,-0.4043927789,-0.1319468915,-0.4357447028,-1.314416766,8.894459724,-9.93181818181818,30.89772727272728,71.13636363636364,-8162.886363636364,-855.2159090909091,594.4772727272727,0
2024-06-14 18:21:48,-0.1661553532,-0.4043927789,-0.1319468915,-0.4357447028,-1.314416766,8.894459724,-186.72727272727275,93.0,6.272727272727273,-8469.0,-711.5454545454545,603.5454545454545,0
2024-06-14 18:21:48,-0.06108652428,-0.2089159191,-0.0293215327,-1.666364431,-3.394978046,8.951920509,-371.9204545454545,-81.9659090909091,-271.6136363636364,-8160.568181818182,-756.9772727272727,581.7386363636364,0
2024-06-14 18:21:49,-0.06108652428,-0.2089159191,-0.0293215327,-1.666364431,-3.394978046,8.951920509,6.780219780219781,-56.0989010989011,62.38461538461539,-8522.45054945055,-1093.5054945054944,391.4725274725275,0
2024-06-14 18:21:49,0.4569272101,-0.2504547536,0.1185078546,-0.1197100878,-1.462857246,8.875306129,-258.95348837209303,73.11627906976744,6.186046511627907,-8147.744186046511,-438.5116279069768,483.62790697674416,0
2024-06-14 18:21:49,-0.1808161139,0.07452555746,0.02076941915,-1.520318031,-3.19625926,9.236829758,-552.0486486486486,154.94054054054055,-76.83243243243243,-8133.421621621622,-545.6756756756756,410.0108108108108,0
2024-06-14 18:21:49,-0.1808161139,0.07452555746,0.02076941915,-1.520318031,-3.19625926,9.236829758,-825.5621621621622,209.5351351351352,-312.5081081081081,-8137.205405405405,-688.918918918919,281.9027027027027,0
2024-06-14 18:21:49,0.05375614017,0.0,0.04276056588,-1.312022567,-3.143586874,9.339780807,246.0833333333333,198.2142857142857,-189.70238095238096,-8482.619047619048,-926.8690476190476,194.2083333333333,0
2024-06-14 18:21:49,-0.4031710625,0.2492330223,0.2003637999,-1.192312479,-3.203441858,9.205705643,-568.0,144.5,-45.5,-8185.5,-661.0,249.5,0
2024-06-14 18:21:49,-0.4031710625,0.2492330223,0.2003637999,-1.192312479,-3.203441858,9.205705643,505.903743315508,40.27272727272727,-102.50267379679144,-8349.764705882353,-1023.8449197860964,364.32620320855614,0
2024-06-14 18:21:49,-0.2199114859,-0.1783726513,-0.1123992056,-1.436521053,-3.143586874,9.282320023,465.2620320855615,-77.9090909090909,-59.18716577540107,-8361.529411764706,-836.144385026738,279.83422459893046,0
2024-06-14 18:21:49,-0.2199114859,-0.1783726513,-0.1123992056,-1.436521053,-3.143586874,9.282320023,406.57142857142856,-244.1428571428572,170.14285714285714,-8191.285714285715,-688.2857142857143,487.57142857142856,0
2024-06-14 18:21:49,0.1246165112,-0.428827405,-0.2028072625,-0.8164227605,-2.343923569,9.931148529,-54.0,-279.0,-29.5,-8530.0,-443.0,632.5,0
2024-06-14 18:21:50,-0.05864306539,-0.02199114859,-0.007330383174,-1.726219416,-3.337517262,9.31823349,-238.1777777777778,-146.88888888888889,-203.3777777777778,-8371.2,-494.3555555555556,573.5777777777778,0
2024-06-14 18:21:50,-0.05864306539,-0.02199114859,-0.007330383174,-1.726219416,-3.337517262,9.31823349,-265.57142857142856,338.2857142857143,-354.57142857142856,-8415.285714285714,-660.4285714285714,448.2857142857143,0
2024-06-14 18:21:50,-0.1600466967,0.6963863969,0.145385921,-1.422155857,-3.110068083,9.366117477,-112.42857142857144,-49.7639751552795,-292.0621118012422,-8409.42857142857,-857.3540372670808,611.9068322981367,0
2024-06-14 18:21:50,0.04276056588,0.145385921,-0.004886921961,-2.152387381,-3.873818398,8.935160637,25.705882352941178,-25.176470588235304,97.35294117647058,-8466.823529411764,-804.4705882352941,637.0588235294117,0
2024-06-14 18:21:50,0.04276056588,0.145385921,-0.004886921961,-2.152387381,-3.873818398,8.935160637,281.29545454545456,18.818181818181817,21.71590909090909,-8194.193181818182,-687.5,473.09090909090907,0
2024-06-14 18:21:50,0.4850270152,-0.2663372457,-0.4459316432,-2.633621931,-3.921702385,8.875306129,167.88505747126436,53.32183908045977,-21.04597701149425,-8492.770114942528,-601.8275862068965,417.86206896551727,0
2024-06-14 18:21:50,0.4850270152,-0.2663372457,-0.4459316432,-2.633621931,-3.921702385,8.875306129,-263.3181818181818,80.5909090909091,-41.52272727272728,-8494.931818181818,-754.0681818181819,440.4318181818182,0
2024-06-14 18:21:50,1.292590857,-0.7403686643,-0.1404990107,-1.788468719,-3.79480958,9.095572472,70.50537634408602,-83.6774193548387,-198.66666666666669,-8398.118279569893,-596.9462365591398,487.247311827957,0
2024-06-14 18:21:50,0.9590584636,-0.2199114859,0.3274237812,-1.007958889,-2.86107111,10.19451046,-48.23255813953489,44.2093023255814,-46.34883720930232,-8132.953488372093,-423.1395348837209,475.1627906976744,0
2024-06-14 18:21:50,0.9590584636,-0.2199114859,0.3274237812,-1.007958889,-2.86107111,10.19451046,-42.67901234567901,156.77777777777777,-218.7530864197531,-8463.814814814816,-835.6666666666666,460.9629629629629,0
2024-06-14 18:21:51,-0.6866125464,0.1319468915,0.01588249579,-0.5410895944,-2.30801034,9.502586365,17.285714285714285,-208.42857142857144,-136.71428571428572,-8336.57142857143,-771.2857142857143,534.8571428571429,0
2024-06-14 18:21:51,0.08063421398,-0.08674286306,-0.05131268129,-1.120486379,-3.866635799,9.531316757,593.8720930232557,-413.6395348837209,-415.8604651162791,-8471.476744186046,-1015.186046511628,801.5116279069767,0
2024-06-14 18:21:51,0.08063421398,-0.08674286306,-0.05131268129,-1.120486379,-3.866635799,9.531316757,786.0786516853933,-444.0674157303371,1.0,-8117.460674157303,-468.5056179775281,743.3932584269662,0
2024-06-14 18:21:51,-0.3848451078,0.3530801237,0.09651670605,-0.988805294,-3.667917013,9.758766174,-650.2777777777778,445.1111111111111,-415.0,-7861.333333333333,-1045.1666666666667,712.3888888888889,0
2024-06-14 18:21:51,-0.3848451078,0.3530801237,0.09651670605,-0.988805294,-3.667917013,9.758766174,-466.1666666666667,1059.0,-147.66666666666666,-8520.0,-1145.3333333333333,730.3333333333334,0
2024-06-14 18:21:51,-0.1539380401,-0.1588249654,-0.0109955743,-0.3615244627,-4.436455727,9.248801231,-164.48837209302326,-38.627906976744185,76.37209302325581,-8538.06976744186,-1083.3720930232555,314.2558139534884,0
2024-06-14 18:21:51,0.538783133,-0.2577851415,0.1001819,-1.240196466,-3.222595453,9.378087997,787.4731182795699,-841.8924731182796,352.7849462365591,-8394.010752688173,-952.1612903225806,581.989247311828,0
2024-06-14 18:21:51,0.538783133,-0.2577851415,0.1001819,-1.240196466,-3.222595453,9.378087997,1452.415730337079,-810.3595505617977,577.6067415730337,-8338.056179775282,-617.7528089887641,899.1460674157304,0
2024-06-14 18:21:51,-0.4202753007,0.531452775,0.1478293836,-0.7972691655,-2.619256735,9.96466732,446.88235294117646,-506.4411764705882,-37.0,-8258.095588235294,-154.3308823529412,937.1102941176472,0
2024-06-14 18:21:51,-0.1710422635,-0.007330383174,0.01466076635,-1.546654344,-2.48996973,9.416395187,-224.625,-330.5625,-512.75,-8229.0625,-779.8125,1064.625,0
2024-06-14 18:21:52,-0.1710422635,-0.007330383174,0.01466076635,-1.546654344,-2.48996973,9.416395187,92.47058823529412,-416.56470588235294,-203.3058823529412,-8472.717647058824,-1084.835294117647,1189.035294117647,0
2024-06-14 18:21:52,-0.1710422635,-0.02076941915,0.01343903504,-1.541865945,-2.810792685,9.375694275,-57.51685393258427,-629.7303370786517,50.55056179775284,-8252.14606741573,-694.2359550561798,1255.0786516853932,0
2024-06-14 18:21:52,-0.1710422635,-0.02076941915,0.01343903504,-1.541865945,-2.810792685,9.375694275,-460.95454545454544,-243.0909090909091,-582.5795454545455,-8123.409090909091,-771.2954545454545,1455.0227272727273,0
2024-06-14 18:21:52,-0.01954768784,0.02809980139,0.00122173049,-1.651999116,-2.724601507,9.325415611,-1382.3480662983425,195.8950276243094,-875.707182320442,-8090.624309392265,-1005.364640883978,1504.5580110497235,0
2024-06-14 18:21:52,-0.007330383174,0.0354301855,0.009773843922,-1.776497602,-2.894589901,9.301473618,-1660.2486187845304,553.353591160221,-914.9337016574584,-8054.160220994475,-1158.403314917127,1567.5414364640883,0
2024-06-14 18:21:52,-0.007330383174,0.0354301855,0.009773843922,-1.776497602,-2.894589901,9.301473618,-1698.357142857143,1093.0,-604.1428571428571,-8054.071428571428,-1368.928571428571,1118.2142857142858,0
2024-06-14 18:21:52,-0.05131268129,-0.04031710699,-0.00122173049,-1.551442742,-2.741360903,9.35654068,-766.0526315789474,326.1578947368421,-289.7368421052632,-8710.157894736842,-1546.5263157894738,723.2631578947369,0
2024-06-14 18:21:52,-0.145385921,-0.2553416789,-0.1197295859,-1.199495077,-0.787692368,9.229647636,-431.1842105263158,-78.4473684210526,-176.57894736842104,-8505.552631578947,-1772.842105263158,836.421052631579,0
2024-06-14 18:21:52,-0.145385921,-0.2553416789,-0.1197295859,-1.199495077,-0.787692368,9.229647636,534.0232558139535,70.09302325581396,401.04651162790697,-8440.0,-966.953488372093,808.0,0
2024-06-14 18:21:52,0.1637118906,-0.07330382615,-0.02199114859,-1.563413739,-2.185906172,9.54807663,23.30337078651685,295.75280898876406,210.0337078651685,-8405.516853932584,-1130.0898876404494,498.438202247191,0
2024-06-14 18:21:53,0.1637118906,-0.07330382615,-0.02199114859,-1.563413739,-2.185906172,9.54807663,186.3932584269663,54.71910112359549,766.9775280898876,-7852.561797752809,-1203.8314606741574,693.8426966292135,0
2024-06-14 18:21:53,1.775174379,-0.1539380401,0.02199114859,-1.357512355,-1.086967587,8.755595207,101.42541436464089,363.0055248618785,941.1988950276244,-8232.563535911602,-598.9337016574585,606.1767955801105,0
2024-06-14 18:21:53,-1.088561893,0.5619960427,-0.393397212,-2.667140722,-3.062183857,9.770736694,2.6266666666666665,-110.41333333333333,29.84,-8723.346666666666,-1093.72,778.6266666666667,0
2024-06-14 18:21:53,-1.088561893,0.5619960427,-0.393397212,-2.667140722,-3.062183857,9.770736694,109.06741573033707,43.80898876404494,419.2808988764045,-7987.0,-633.7640449438202,718.0786516853932,0
2024-06-14 18:21:53,0.3909537494,0.287106663,0.161268428,-1.59693253,-2.039859772,9.378087997,351.27272727272725,-14.424242424242422,475.6666666666667,-8740.363636363636,-606.3333333333334,542.1212121212121,0
2024-06-14 18:21:53,0.48014009,-0.5656611919,-0.2528982162,-1.352723956,-1.848323703,9.816226959,374.9090909090909,-235.63636363636363,349.0,-8758.545454545454,-613.0,728.1818181818182,0
2024-06-14 18:21:53,0.48014009,-0.5656611919,-0.2528982162,-1.352723956,-1.848323703,9.816226959,300.8942307692308,-132.35576923076923,190.31730769230768,-8587.692307692309,-610.7788461538462,766.8653846153846,0
2024-06-14 18:21:53,-0.1661553532,-0.7990117669,-0.6670648456,-1.355118155,-6.253654957,9.476250648,360.5384615384616,753.2307692307693,1189.6153846153843,-8297.923076923076,-219.69230769230768,684.6153846153846,0
2024-06-14 18:21:53,-0.1661553532,-0.7990117669,-0.6670648456,-1.355118155,-6.253654957,9.476250648,358.978021978022,49.84615384615381,534.6373626373627,-8511.12087912088,178.1868131868132,607.3076923076923,0
2024-06-14 18:21:53,-0.2736676335,0.05864306539,0.04764748737,-2.08295536,-2.698265314,8.978256226,53.68965517241378,334.48275862068965,636.8275862068965,-8454.758620689656,175.0689655172414,598.448275862069,0
2024-06-14 18:21:54,-0.02809980139,-0.05375614017,0.06719517708,-1.680729628,-3.27287364,9.196128845,-564.6704545454545,-59.54545454545455,297.4318181818182,-8504.625,450.27272727272725,533.0795454545455,0
2024-06-14 18:21:54,-0.02809980139,-0.05375614017,0.06719517708,-1.680729628,-3.27287364,9.196128845,-184.16666666666663,145.33333333333334,-318.1666666666667,-8511.666666666666,568.6666666666666,207.5,0
2024-06-14 18:21:54,0.08429940045,0.01832595654,0.006108652335,-1.393425345,-3.23456645,9.39484787,-575.9662921348314,252.08988764044943,-299.48314606741576,-8542.561797752809,263.3370786516854,362.2696629213483,0
2024-06-14 18:21:54,-0.616973877,-0.3408628106,-0.07086037099,-1.687912226,-3.239354849,9.165003777,-223.62222222222223,-90.64444444444445,-416.8,-8473.155555555555,314.6222222222222,343.7555555555556,0
2024-06-14 18:21:54,-0.616973877,-0.3408628106,-0.07086037099,-1.687912226,-3.239354849,9.165003777,-212.3181818181818,-83.39772727272727,-103.23863636363636,-8483.65909090909,115.04545454545456,161.4659090909091,0
2024-06-14 18:21:54,-0.09773843735,-0.007330383174,0.05497787148,-1.946485996,-3.12203908,9.258378029,-726.7411764705882,178.14117647058825,-139.8470588235294,-8177.117647058823,301.8,78.3294117647059,0
2024-06-14 18:21:54,-0.09773843735,-0.007330383174,0.05497787148,-1.946485996,-3.12203908,9.258378029,-317.0919540229885,4.816091954022966,-191.8850574712644,-8375.597701149425,-59.298850574712645,-15.022988505747126,0
2024-06-14 18:21:54,-0.290771842,0.4056145251,0.2467895597,-1.146822572,-4.019864559,9.294290543,9.923076923076934,-125.15384615384616,-183.0,-8383.846153846154,-59.61538461538461,260.7692307692308,0
2024-06-14 18:21:54,0.1209513173,-0.37751472,-0.1502728462,-1.101332784,-3.260902643,9.54807663,305.1609195402299,-628.0114942528736,57.41379310344828,-8193.965517241379,348.0344827586207,587.264367816092,0
2024-06-14 18:21:54,0.1209513173,-0.37751472,-0.1502728462,-1.101332784,-3.260902643,9.54807663,-274.7931034482759,76.37931034482759,-357.7586206896552,-8525.034482758621,-88.93103448275862,387.8965517241379,0
2024-06-14 18:21:55,-0.1087340117,0.228463605,0.1857030392,-1.443703651,-3.869029999,9.940725327,-68.31736526946108,-23.01197604790419,-329.79041916167665,-8537.706586826347,-83.59880239520957,613.8802395209581,0
2024-06-14 18:21:55,-0.1710422635,-0.09773843735,-0.00244346098,-1.592144132,-3.541024208,9.153033257,-43.76646706586826,-216.4251497005988,-295.05988023952096,-8549.08383233533,-54.25748502994012,479.748502994012,0
2024-06-14 18:21:55,-0.1710422635,-0.09773843735,-0.00244346098,-1.592144132,-3.541024208,9.153033257,-292.8695652173913,30.543478260869563,-324.9130434782609,-8304.315217391304,-123.1413043478261,463.8478260869565,0
2024-06-14 18:21:55,-0.006108652335,-0.109955743,-0.03665191308,-1.764526606,-3.052607059,9.311050415,77.90697674418604,-79.93023255813954,-120.8372093023256,-8533.767441860466,-70.88372093023256,428.7906976744186,0
2024-06-14 18:21:55,-0.006108652335,-0.109955743,-0.03665191308,-1.764526606,-3.052607059,9.311050415,-164.33333333333331,-84.33333333333333,-188.25,-8490.916666666666,-58.83333333333333,413.6666666666667,0
2024-06-14 18:21:55,-0.1820378453,0.05375614017,0.06352998316,-0.1675941199,-5.178658485,9.047688484,-483.8571428571429,-33.14285714285714,-166.28571428571428,-8460.857142857143,1.2857142857142918,524.8571428571429,0
2024-06-14 18:21:55,-0.0109955743,0.1783726513,0.06963863969,-0.806845963,-3.409343243,8.978256226,-24.34831460674156,84.51685393258427,-274.4943820224719,-8544.269662921348,9.089887640449437,432.5168539325842,0
2024-06-14 18:21:55,-0.0109955743,0.1783726513,0.06963863969,-0.806845963,-3.409343243,8.978256226,-352.5056179775281,-19.34831460674156,67.78651685393258,-8492.23595505618,-71.5505617977528,456.876404494382,0
2024-06-14 18:21:55,-0.02443460934,-0.6194173694,-0.1759291887,-0.8044517636,-2.063801765,9.33020401,-512.3516483516484,293.4835164835165,-250.978021978022,-8503.0,-314.0659340659341,545.7912087912088,0
2024-06-14 18:21:55,0.003665191587,0.05619960278,0.0,-1.740584612,-1.769315004,9.562441826,-63.83908045977012,79.9080459770115,-186.6551724137931,-8187.850574712644,-247.17241379310343,432.82758620689657,0
2024-06-14 18:21:56,0.003665191587,0.05619960278,0.0,-1.740584612,-1.769315004,9.562441826,-525.8636363636364,152.1931818181818,-266.625,-8249.397727272728,-67.19318181818181,221.02272727272728,0
2024-06-14 18:21:56,-0.07819075137,0.3701843321,0.0171042271,-1.692700624,-2.583343744,9.461885452,-708.1724137931035,214.6551724137931,-236.20689655172413,-8466.172413793103,-574.1724137931035,143.06896551724137,0
2024-06-14 18:21:56,-0.07819075137,0.3701843321,0.0171042271,-1.692700624,-2.583343744,9.461885452,36.34090909090909,46.63636363636364,33.98863636363636,-8567.46590909091,-246.39772727272728,149.47727272727272,0
2024-06-14 18:21:56,0.2797762752,0.3164281845,0.06719517708,-1.474828243,-3.095702887,9.323021889,-207.55172413793105,-348.91954022988506,-148.6206896551724,-8307.103448275862,-290.35632183908046,551.6781609195402,0
2024-06-14 18:21:56,-0.1026253626,-0.2773328125,-0.04398229718,-1.817199111,-3.428496838,9.196128845,-182.46067415730337,66.57303370786516,-307.1460674157304,-8388.943820224718,-433.7640449438202,549.3483146067416,0
2024-06-14 18:21:56,-0.1026253626,-0.2773328125,-0.04398229718,-1.817199111,-3.428496838,9.196128845,363.3820224719101,-323.5730337078652,-97.38202247191012,-8525.719101123595,-281.5730337078652,604.1797752808989,0
2024-06-14 18:21:56,0.7489207983,-0.2345722616,0.3005456924,-2.260126352,-3.529053211,10.0460701,220.4651162790697,-144.6279069767442,-90.11627906976744,-8502.32558139535,-166.11627906976744,527.046511627907,0
2024-06-14 18:21:56,-0.1685988009,-0.1221730486,-0.05619960278,-0.383072257,2.444479942,8.607154846,-85.74418604651163,31.511627906976745,124.86046511627907,-8490.860465116279,-321.2325581395349,507.5348837209302,0
2024-06-14 18:21:56,-0.1685988009,-0.1221730486,-0.05619960278,-0.383072257,2.444479942,8.607154846,-321.35555555555555,252.5555555555556,23.53333333333333,-8522.68888888889,-204.48888888888888,409.2888888888889,0
2024-06-14 18:21:56,-1.27793014,1.351233959,0.1673770845,-1.663970232,-2.260126352,9.469067574,-84.72093023255815,35.372093023255815,99.2093023255814,-8538.418604651162,-292.5581395348837,395.3720930232558,0
2024-06-14 18:21:57,-1.27793014,1.351233959,0.1673770845,-1.663970232,-2.260126352,9.469067574,-154.72222222222223,13.77777777777778,-112.55555555555554,-8354.055555555555,-271.22222222222223,405.6666666666667,0
2024-06-14 18:21:57,-0.3543018401,0.2761110961,-0.2675589919,-2.894589901,-4.493916512,8.269572258,-83.35106382978724,-77.30851063829788,-333.56382978723406,-8362.170212765957,-173.88297872340425,396.2659574468085,0
2024-06-14 18:21:57,0.1637118906,0.145385921,-0.08429940045,-2.597708941,-4.855441093,8.283937454,-349.85057471264366,99.9655172413793,-244.70114942528733,-8311.16091954023,-193.6206896551724,515.7701149425287,0
2024-06-14 18:21:57,0.1637118906,0.145385921,-0.08429940045,-2.597708941,-4.855441093,8.283937454,-333.0,331.0,-326.2857142857143,-8546.857142857143,-459.0,527.2857142857143,0
2024-06-14 18:21:57,0.7330383062,-0.581543684,-0.08307767659,-2.873042107,-5.090072632,8.116343498,-81.73863636363636,-120.32954545454548,-65.0,-8503.0,-209.8409090909091,620.875,0
2024-06-14 18:21:57,0.08185594529,-0.7159340382,0.1795943826,-2.238578558,-5.38934803,8.973467827,-525.3956043956043,8.406593406593402,-2.3736263736263794,-8121.791208791209,-166.12087912087912,402.2307692307692,0
2024-06-14 18:21:57,0.08185594529,-0.7159340382,0.1795943826,-2.238578558,-5.38934803,8.973467827,-232.6,-23.4,-546.4,-8560.466666666667,-582.8666666666667,575.6666666666666,0
2024-06-14 18:21:57,0.3677408695,0.00244346098,0.1539380401,-1.491587639,-2.913743496,9.655815125,89.76744186046511,42.94186046511628,-170.4418604651163,-8499.790697674418,-434.2441860465116,403.5116279069768,0
2024-06-14 18:21:57,0.3677408695,0.00244346098,0.1539380401,-1.491587639,-2.913743496,9.655815125,-295.5604395604396,-9.868131868131869,-298.86813186813185,-8162.032967032967,-436.7692307692308,455.05494505494505,0
2024-06-14 18:21:57,0.2822197378,-0.3103195429,0.2199114859,-0.8786720037,-1.683123827,9.514557838,-211.16470588235293,285.56470588235294,-120.4470588235294,-8457.517647058823,-811.4117647058823,523.8705882352941,0
2024-06-14 18:21:58,-0.1319468915,-0.06841690838,-0.05986479297,-0.7038952708,-0.1221042871,9.679757118,-150.6306818181818,77.9034090909091,-70.375,-8431.329545454546,-473.0909090909091,601.9204545454545,0
2024-06-14 18:21:58,-0.1319468915,-0.06841690838,-0.05986479297,-0.7038952708,-0.1221042871,9.679757118,-333.7333333333333,108.96666666666668,55.16666666666666,-8178.1,-586.3,545.6333333333333,0
2024-06-14 18:21:58,0.1514945775,-0.2370157093,-0.0232128799,-0.08858546615,0.6368576288,8.927978516,-219.32653061224488,40.83673469387755,-278.9931972789116,-8383.102040816326,-439.83673469387753,603.7074829931972,0
2024-06-14 18:21:58,-0.9773843884,0.4214970171,-0.1123992056,-0.9097966552,-4.218583584,9.789890289,-191.44444444444449,70.0,40.888888888888886,-8274.888888888889,-582.7222222222222,598.3333333333334,0
2024-06-14 18:21:58,-0.9773843884,0.4214970171,-0.1123992056,-0.9097966552,-4.218583584,9.789890289,103.97701149425288,62.37931034482759,80.73563218390805,-8521.965517241379,-421.32183908045977,606.6321839080459,0
2024-06-14 18:21:58,0.1661553532,0.4276056588,0.02687807009,-1.740584612,-0.9050082564,9.421183586,15.976744186046512,79.45348837209302,-268.06976744186045,-8461.348837209302,-770.5930232558139,599.9883720930233,0
2024-06-14 18:21:58,0.1661553532,0.4276056588,0.02687807009,-1.740584612,-0.9050082564,9.421183586,-1.574712643678161,-95.40229885057472,79.9655172413793,-8516.137931034482,-787.9655172413793,596.7471264367816,0
2024-06-14 18:21:58,-1.467298269,0.1014036313,-1.296256065,-2.547430515,-1.810016513,9.409213066,123.8913043478261,54.02173913043478,-48.891304347826086,-8417.565217391304,-598.3478260869565,497.3695652173913,0
2024-06-14 18:21:58,0.9321803451,0.06719517708,0.3286454976,-0.9265560508,-3.691859007,9.153033257,-406.45238095238096,-9.321428571428571,-271.8452380952381,-8495.880952380952,-829.25,551.1071428571429,0
2024-06-14 18:21:58,0.9321803451,0.06719517708,0.3286454976,-0.9265560508,-3.691859007,9.153033257,309.9378881987578,-307.7391304347826,53.90683229813665,-8546.062111801242,-488.7950310559006,550.5776397515529,0
2024-06-14 18:21:59,2.311514139,-0.006108652335,0.9517280459,-1.465251446,-0.05267243832,9.476250648,316.7701863354037,-316.4347826086956,-85.84472049689441,-8539.229813664597,-481.3416149068323,417.0372670807453,0
2024-06-14 18:21:59,-0.7318165898,0.4508185387,0.2626720667,-0.4333505034,-2.291250944,9.512163162,-192.22727272727272,82.95454545454545,-271.27272727272725,-8249.863636363636,-727.3181818181818,580.5,0
2024-06-14 18:21:59,-0.7318165898,0.4508185387,0.2626720667,-0.4333505034,-2.291250944,9.512163162,191.3855421686747,-257.18072289156623,-75.67469879518072,-8369.650602409638,-787.4698795180723,462.0,0
2024-06-14 18:21:59,-0.6047565937,0.04520402849,0.106290549,-0.7230489254,-4.932055473,9.052476883,-286.69565217391306,-164.2173913043478,-240.3043478260869,-8283.391304347826,-608.5217391304348,779.4347826086956,0
2024-06-14 18:21:59,-0.6047565937,0.04520402849,0.106290549,-0.7230489254,-4.932055473,9.052476883,-326.09090909090907,272.35227272727275,82.73863636363636,-8383.15909090909,-827.7386363636364,772.0681818181819,0
2024-06-14 18:21:59,0.232128799,-0.2541199327,-0.02809980139,-1.438915253,-3.739742994,9.392453194,-281.9767441860465,-0.7325581395348806,44.13953488372093,-8190.116279069767,-470.953488372093,421.2441860465116,0
2024-06-14 18:21:59,0.0354301855,-0.1881465018,-0.08307767659,-8.025363922,-0.1244984865,-0.3663128614,30.51685393258427,114.73033707865169,-285.40449438202245,-8352.269662921348,-792.5730337078652,438.0112359550562,0
2024-06-14 18:21:59,0.0354301855,-0.1881465018,-0.08307767659,-8.025363922,-0.1244984865,-0.3663128614,-26.25,-217.07142857142856,-246.8928571428572,-8451.464285714286,-461.1428571428572,460.9642857142857,0
2024-06-14 18:21:59,0.334754169,0.2712241709,0.1930334121,-0.7278373241,-0.8810662031,9.852140427,52.91666666666667,-170.64285714285714,-499.8690476190476,-8449.67857142857,-468.2857142857143,467.5119047619048,0
2024-06-14 18:21:59,0.1600466967,0.5253441334,0.1429424733,-1.63523972,0.1532289088,8.552088737,167.8,-326.2,-616.8,-8283.8,-709.0,864.0,0
2024-06-14 18:22:00,0.1600466967,0.5253441334,0.1429424733,-1.63523972,0.1532289088,8.552088737,-403.0444444444444,-52.24444444444444,-348.26666666666665,-8173.977777777778,-860.3555555555556,866.0,0
2024-06-14 18:22:00,-0.9529497623,0.2431243658,-0.1087340117,-1.8602947,-1.82198751,9.718064308,-40.13953488372096,-26.25581395348837,79.0,-8172.744186046511,-939.8372093023256,683.1279069767442,0
2024-06-14 18:22:00,-0.9529497623,0.2431243658,-0.1087340117,-1.8602947,-1.82198751,9.718064308,-308.5,375.2272727272728,-256.09090909090907,-8443.09090909091,-922.0,521.7272727272727,0
2024-06-14 18:22:00,-0.1918116808,0.02809980139,-0.0232128799,-1.89620769,-3.184288263,9.275136948,72.46236559139786,26.8494623655914,-270.494623655914,-8099.05376344086,-902.3118279569892,847.1720430107526,0
2024-06-14 18:22:00,0.2455678284,-0.003665191587,0.07696902007,-1.757344007,-2.264914751,9.390059471,59.5,270.16279069767444,34.43023255813954,-8177.662790697675,-1306.860465116279,857.6279069767442,0
2024-06-14 18:22:00,0.2455678284,-0.003665191587,0.07696902007,-1.757344007,-2.264914751,9.390059471,263.6666666666667,-74.88888888888889,166.0,-8481.5,-993.6111111111112,732.1111111111111,0
2024-06-14 18:22:00,-0.2272418737,0.02809980139,-0.04764748737,-1.982398987,-2.516305923,9.31823349,23.65882352941176,75.4470588235294,40.41176470588236,-8453.988235294117,-1043.3647058823528,791.564705882353,0
2024-06-14 18:22:00,-0.04520402849,0.008552113548,-0.00244346098,-1.788468719,-2.166752577,9.354146004,63.54347826086956,41.891304347826086,-10.543478260869565,-8296.760869565218,-930.9565217391304,816.9565217391304,0
2024-06-14 18:22:00,-0.04520402849,0.008552113548,-0.00244346098,-1.788468719,-2.166752577,9.354146004,-534.8372093023256,190.5116279069768,60.53488372093023,-8133.883720930233,-946.7209302325582,603.7325581395348,0
2024-06-14 18:22:00,-0.2272418737,-0.01588249579,-0.01221730467,-1.987187386,-2.743755102,9.196128845,-798.4285714285714,444.7142857142857,-289.85714285714283,-8098.142857142857,-988.2857142857142,550.2857142857143,0
2024-06-14 18:22:01,-0.2272418737,-0.01588249579,-0.01221730467,-1.987187386,-2.743755102,9.196128845,-361.6590909090909,362.2159090909091,-14.693181818181811,-8357.46590909091,-1245.4204545454545,527.8295454545455,0
2024-06-14 18:22:01,0.06841690838,-0.1563815027,-0.008552113548,-1.793257117,-2.8993783,9.255983353,64.82758620689656,-357.4482758620689,9.689655172413794,-8194.379310344828,-918.0344827586208,549.8965517241379,0
2024-06-14 18:22:01,0.6756169796,-0.6108652353,0.3274237812,-1.45088625,-1.980004787,9.550470352,-68.40449438202248,-185.08988764044943,-73.7752808988764,-8170.752808988764,-1119.5393258426966,780.8426966292135,0
2024-06-14 18:22:01,0.6756169796,-0.6108652353,0.3274237812,-1.45088625,-1.980004787,9.550470352,232.0681818181818,87.38636363636363,-66.3409090909091,-8198.068181818182,-1004.0909090909092,833.2727272727273,0
2024-06-14 18:22:01,0.008552113548,0.03787364438,0.0354301855,0.1029506698,1.18752408,9.028534889,-250.10055865921788,77.62011173184356,88.73743016759776,-8491.111731843575,-752.0,747.9608938547486,0
2024-06-14 18:22:01,-0.5338962078,-0.2797762752,-0.5986479521,-2.341529369,-2.195482969,9.485827446,-182.5027932960893,-55.89944134078212,59.68715083798882,-8471.558659217877,-952.0,579.804469273743,0
2024-06-14 18:22:01,-0.5338962078,-0.2797762752,-0.5986479521,-2.341529369,-2.195482969,9.485827446,-52.68888888888889,-196.51111111111112,-234.11111111111111,-8342.377777777778,-1032.7777777777778,485.0888888888889,0
2024-06-14 18:22:01,0.0415388383,0.1685988009,-0.03054326214,-1.48679924,-2.873042107,9.643844604,-201.3953488372093,-14.488372093023258,-27.093023255813947,-8225.651162790698,-954.3488372093024,481.7325581395349,0
2024-06-14 18:22:01,0.0415388383,0.1685988009,-0.03054326214,-1.036689281,-2.621650934,8.901641846,-164.4090909090909,72.06818181818181,-309.10227272727275,-8509.022727272728,-937.3522727272727,391.8181818181818,0
2024-06-14 18:22:01,0.1490511149,0.3335324228,0.1698205322,-1.036689281,-2.621650934,8.901641846,-23.4597701149425,75.89655172413794,38.20689655172414,-8502.747126436781,-986.83908045977,626.0344827586207,0
2024-06-14 18:22:02,-0.2675589919,0.05864306539,0.1172861308,-0.5075707436,-4.668693542,9.026140213,-26.079545454545453,-321.92045454545456,-103.98863636363636,-8192.318181818182,-975.0340909090908,760.9545454545455,0
2024-06-14 18:22:02,-0.2675589919,0.05864306539,0.1172861308,-0.5075707436,-4.668693542,9.026140213,217.75,-108.48809523809524,326.42857142857144,-8538.72619047619,-1132.9880952380952,781.1904761904761,0
2024-06-14 18:22:02,-0.1392772794,0.08307767659,0.02809980139,-1.091755986,-3.447650433,9.165003777,519.3636363636364,-244.5909090909091,308.95454545454544,-8685.90909090909,-1111.75,847.5681818181819,0
2024-06-14 18:22:02,0.04276056588,-0.04642575979,-0.03420845419,-1.625662923,-3.327940464,9.239224434,817.8888888888889,-488.22222222222223,61.66666666666667,-8409.0,-1122.0555555555557,690.6111111111111,0
2024-06-14 18:22:02,0.04276056588,-0.04642575979,-0.03420845419,-1.625662923,-3.327940464,9.239224434,934.8666666666668,-242.9111111111111,318.64444444444445,-8008.977777777778,-654.7555555555556,927.3777777777776,0
2024-06-14 18:22:02,-0.1343903542,0.1221730486,0.07086037099,-1.489193439,-3.292027235,9.107542992,523.2235294117647,-217.2705882352941,96.78823529411764,-8564.411764705883,-422.22352941176473,1050.2470588235294,0
2024-06-14 18:22:02,-0.1343903542,0.1221730486,0.07086037099,-1.489193439,-3.292027235,9.107542992,272.27777777777777,-404.94444444444446,-592.6777777777778,-8394.855555555556,-949.7888888888888,1023.3,0
2024-06-14 18:22:02,-0.05131268129,0.06597344577,0.04031710699,-1.616086125,-3.229778051,9.114726067,190.3488372093024,-255.88372093023256,-302.93023255813955,-7969.511627906977,-1132.2790697674418,996.2558139534884,0
2024-06-14 18:22:02,-0.03909537569,0.0109955743,0.02199114859,-1.673547029,-3.232172251,9.155426979,487.6292134831461,-14.662921348314626,-166.58426966292134,-8252.752808988764,-771.6404494382023,983.9213483146068,0
2024-06-14 18:22:02,-0.03909537569,0.0109955743,0.02199114859,-1.673547029,-3.232172251,9.155426979,89.23076923076923,-260.16483516483515,-657.1098901098901,-8820.791208791208,-1036.7142857142858,1264.5164835164835,0
2024-06-14 18:22:03,-0.03420845419,-0.1502728462,-0.08796459436,-1.606509328,-3.481169224,9.275136948,121.94117647058825,49.54117647058823,-119.07058823529412,-7830.423529411764,-1268.3529411764705,1379.3176470588237,0
2024-06-14 18:22:03,0.06230825558,0.3958406746,0.1539380401,-2.063801765,-3.658340216,9.342175484,314.2739726027397,-95.9041095890411,212.44520547945208,-8207.171232876712,-698.8356164383562,1284.876712328767,0
2024-06-14 18:22:03,0.06230825558,0.3958406746,0.1539380401,-2.063801765,-3.658340216,9.342175484,82.76712328767121,-21.93150684931507,48.74657534246575,-8374.979452054795,-657.7397260273973,1304.054794520548,0
2024-06-14 18:22:03,0.1209513173,0.009773843922,-0.04764748737,-1.544260144,-2.959233284,9.263166428,57.375,112.875,-153.5,-7827.0,-1194.5,1173.25,0
2024-06-14 18:22:03,-0.2663372457,-0.04031710699,0.04398229718,-2.078166962,-3.493140221,8.939949036,-335.5,537.5,139.0,-8368.0,-929.0,1302.5,0
2024-06-14 18:22:03,-0.2663372457,-0.04031710699,0.04398229718,-2.078166962,-3.493140221,8.939949036,-636.4945054945055,167.27472527472526,98.26373626373626,-8419.395604395604,-1075.241758241758,1004.0,0
2024-06-14 18:22:03,0.1624901593,0.2712241709,0.1270599663,-1.110909581,-3.684676409,9.378087997,-808.123595505618,-25.528089887640448,-243.4494382022472,-8240.943820224718,-1201.4494382022472,1363.415730337079,0
2024-06-14 18:22:03,0.1624901593,0.2712241709,0.1270599663,-1.110909581,-3.684676409,9.378087997,-559.0588235294117,507.52941176470586,-86.52941176470588,-8279.0,-1328.2941176470588,1032.3529411764707,0
2024-06-14 18:22:03,-0.1588249654,-0.216246292,-0.05986479297,-1.659181833,-3.751713991,8.975862503,-227.17241379310343,174.4942528735632,-122.65517241379312,-8536.32183908046,-916.9425287356322,1131.103448275862,0
2024-06-14 18:22:03,-0.06352998316,0.08918632567,0.05986479297,-1.620874524,-3.478775024,9.114726067,-778.3181818181819,114.5909090909091,94.04545454545456,-8096.363636363636,-994.9090909090908,1077.5,0
2024-06-14 18:22:04,-0.06352998316,0.08918632567,0.05986479297,-1.620874524,-3.478775024,9.114726067,-416.86516853932585,7.157303370786515,52.943820224719104,-8188.898876404494,-1392.7865168539329,1059.0112359550562,0
2024-06-14 18:22:04,-0.01588249579,0.3995058835,0.04642575979,-2.020706177,-3.852270603,9.028534889,188.91011235955057,203.1123595505618,557.5280898876405,-8514.393258426966,-961.0898876404494,675.4831460674158,0
2024-06-14 18:22:04,0.5131267905,-0.6536257863,-0.4532620013,-0.605733037,-2.080561161,8.978256226,-292.75,319.47727272727275,432.70454545454544,-8455.25,-869.8181818181819,815.6590909090909,0
2024-06-14 18:22:04,0.5131267905,-0.6536257863,-0.4532620013,-0.605733037,-2.080561161,8.978256226,74.01136363636364,-57.38636363636364,-296.3636363636364,-8327.727272727272,-653.3977272727273,854.9204545454545,0
2024-06-14 18:22:04,0.1050688252,0.02687807009,-0.04276056588,-3.038241863,-2.93529129,8.865729332,-46.65517241379311,-86.65517241379311,79.13793103448276,-8228.896551724138,-818.1379310344828,805.8965517241379,0
2024-06-14 18:22:04,0.1050688252,0.02687807009,-0.04276056588,-3.038241863,-2.93529129,8.865729332,-9.528735632183896,65.68965517241378,98.4367816091954,-8561.505747126437,-755.9655172413793,847.551724137931,0
