Timestamp,Gyro_x_x,Gyro_y_x,Gyro_z_x,Acc_x_x,Acc_y_x,Acc_z_x,Gyro_x_y,Gyro_y_y,Gyro_z_y,Acc_x_y,Acc_y_y,Acc_z_y,combined_action_num
2024-06-15 13:32:21,0.1795943826,0.004886921961,0.07941248268,-8.183381081,-2.796427488,4.505887508,-62.15384615384615,-7.230769230769231,-39.76923076923077,-6294.538461538462,-3992.6153846153848,4079.230769230769,8
2024-06-15 13:32:21,-0.09651670605,0.04764748737,-0.00244346098,-8.152256966,-2.506729126,4.333505154,-46.40909090909091,-96.07954545454544,-87.85227272727272,-6288.784090909091,-4195.318181818182,4044.738636363637,8
2024-06-15 13:32:21,0.1319468915,0.008552113548,0.06108652428,-8.125920296,-2.372653961,4.505887508,24.75555555555556,298.5777777777778,37.55555555555556,-6316.4,-4109.433333333333,4029.5666666666666,8
2024-06-15 13:32:22,0.1319468915,0.008552113548,0.06108652428,-8.125920296,-2.372653961,4.505887508,-89.26436781609195,-66.66666666666667,17.448275862068964,-6375.379310344828,-3788.896551724138,4004.735632183908,8
2024-06-15 13:32:22,0.2125810981,0.01954768784,0.06475171447,-8.178592682,-2.226607561,4.376600742,68.99324324324324,-90.63513513513512,-27.72297297297297,-6382.418918918919,-3858.0,4018.087837837838,8
2024-06-15 13:32:22,0.1661553532,0.02076941915,0.05864306539,-8.315062523,-2.051830769,4.359841347,61.56081081081081,-89.28378378378379,-222.99324324324328,-6343.22972972973,-4058.0,4014.70945945946,8
2024-06-15 13:32:22,0.1661553532,0.02076941915,0.05864306539,-8.315062523,-2.051830769,4.359841347,27.93103448275862,-7.390804597701148,-285.5977011494253,-6526.068965517241,-3956.574712643678,3998.609195402299,8
2024-06-15 13:32:22,0.1038470939,0.01954768784,0.04398229718,-8.360552788,-2.00873518,4.46279192,-265.1123595505618,104.41573033707866,2.9101123595505616,-6548.741573033708,-4118.988764044944,4002.786516853933,8
2024-06-15 13:32:22,0.1038470939,0.01954768784,0.04398229718,-8.360552788,-2.00873518,4.46279192,-163.64285714285714,71.57142857142857,52.57142857142857,-6344.571428571428,-4120.357142857143,3974.785714285714,8
2024-06-15 13:32:22,0.01588249579,0.0232128799,0.008552113548,-8.341399193,-1.833958507,4.328716755,8.0,46.95833333333333,76.29166666666667,-6345.1875,-4120.822916666667,3979.4166666666665,8
2024-06-15 13:32:22,0.1246165112,0.0232128799,0.04031710699,-8.422801971,-1.731007814,4.412513733,-162.325,-348.475,-1.6499999999999773,-6388.25,-3816.95,4027.95,8
2024-06-15 13:32:22,0.1246165112,0.0232128799,0.04031710699,-8.422801971,-1.731007814,4.412513733,-537.8837209302326,-361.72093023255815,-67.90697674418605,-6285.604651162791,-4170.6511627906975,4057.697674418605,8
2024-06-15 13:32:22,0.1637118906,0.02443460934,0.04398229718,-8.444349289,-1.467645645,4.434061527,-209.0561797752809,-339.5730337078652,-317.03370786516854,-6490.157303370786,-4133.359550561798,4035.988764044944,8
2024-06-15 13:32:23,0.1637118906,0.02443460934,0.04398229718,-8.444349289,-1.467645645,4.434061527,-547.8181818181819,-71.32954545454545,-178.48863636363637,-6435.909090909091,-4173.011363636364,4007.931818181818,8
2024-06-15 13:32:23,0.08552113175,0.01588249579,0.0415388383,-8.499416351,-1.379060149,4.453215122,-642.2134831460675,-40.38202247191011,376.85393258426967,-6694.651685393258,-3818.3595505617977,4196.314606741573,8
2024-06-15 13:32:23,0.09407325089,0.04520402849,0.0354301855,-8.46589756,-1.458068848,4.177882195,-674.5172413793103,100.27586206896552,800.1379310344828,-6341.390804597701,-4169.16091954023,4163.712643678161,8
2024-06-15 13:32:23,0.09407325089,0.04520402849,0.0354301855,-8.46589756,-1.458068848,4.177882195,-720.3333333333334,275.3550724637681,426.2173913043478,-6513.45652173913,-4183.615942028986,4106.210144927536,8
2024-06-15 13:32:23,0.1331686229,0.04764748737,0.05986479297,-8.611943245,-1.158793569,4.316745758,-631.175,220.225,348.925,-6702.45,-4006.15,4039.1,8
2024-06-15 13:32:23,-0.1282816976,-0.01588249579,-0.03787364438,-8.61912632,-1.15400517,4.098873138,-839.6153846153846,356.0,486.9230769230769,-6919.538461538462,-4054.230769230769,3818.6153846153848,8
2024-06-15 13:32:23,-0.1282816976,-0.01588249579,-0.03787364438,-8.61912632,-1.15400517,4.098873138,-775.9285714285714,-341.5,12.64285714285714,-6400.809523809524,-3720.8333333333335,3470.5238095238096,8
2024-06-15 13:32:23,-0.4361577928,-0.08429940045,-0.1734857261,-8.408436775,-1.256955862,3.955221176,-664.4044943820224,83.98876404494382,-245.95505617977528,-6689.595505617977,-4004.932584269663,3271.1011235955057,8
2024-06-15 13:32:23,-0.9260717034,-0.1466076523,-0.3885102868,-8.293514252,-1.996764183,3.964797974,-58.96774193548387,-301.1290322580645,596.5806451612904,-7017.677419354839,-4152.774193548387,3519.870967741936,8
2024-06-15 13:32:23,-0.9260717034,-0.1466076523,-0.3885102868,-8.293514252,-1.996764183,3.964797974,-59.25,-569.75,606.0,-6624.5,-3554.75,3553.25,8
2024-06-15 13:32:24,-1.038470864,-0.1197295859,-0.4813618064,-7.991845131,-3.11964488,3.818751812,-182.5056179775281,-185.8202247191012,463.82022471910113,-6582.528089887641,-3903.41573033708,3629.404494382023,8
2024-06-15 13:32:24,-1.038470864,-0.1197295859,-0.4813618064,-7.991845131,-3.11964488,3.818751812,68.93258426966293,-259.9887640449438,226.07865168539325,-6796.573033707865,-3729.741573033708,3883.191011235955,8
2024-06-15 13:32:24,-0.8772025108,0.1368338168,-0.9969320893,-6.947973251,-5.133168221,2.832340717,-58.64044943820225,-572.8089887640449,457.6629213483146,-7023.853932584269,-3530.7191011235955,3865.752808988764,8
2024-06-15 13:32:24,-1.005484223,0.3567453027,-1.660331726,-5.305551052,-6.212953568,2.523488522,354.6292134831461,-582.1910112359551,225.28089887640448,-6945.449438202248,-3626.5842696629215,4159.606741573034,8
2024-06-15 13:32:24,-1.005484223,0.3567453027,-1.660331726,-5.305551052,-6.212953568,2.523488522,225.77272727272728,-389.5454545454545,27.136363636363622,-6684.590909090909,-3297.272727272727,4204.727272727273,8
2024-06-15 13:32:24,-0.09773843735,0.4092797041,-1.54304564,-4.405331135,-9.54807663,1.247379065,13.454545454545451,-204.3636363636364,196.3636363636364,-6971.0,-3352.818181818182,4049.363636363637,8
2024-06-15 13:32:24,-0.09773843735,0.4092797041,-1.54304564,-4.405331135,-9.54807663,1.247379065,-217.74117647058824,-216.7176470588236,192.3764705882353,-6650.752941176471,-3434.423529411765,4403.105882352941,8
2024-06-15 13:32:24,-0.1710422635,0.08185594529,-0.9981538057,-3.172317266,-11.32457447,0.8379706144,-195.6590909090909,-82.56818181818181,-98.3409090909091,-6682.943181818182,-3435.2954545454545,4066.193181818182,8
2024-06-15 13:32:24,-0.7024950385,0.1148426682,-0.4178318381,-1.546654344,-10.80503273,0.2298433632,-173.88888888888889,-12.22222222222222,34.599999999999994,-6993.0,-3388.711111111111,4041.088888888889,8
2024-06-15 13:32:24,-0.7024950385,0.1148426682,-0.4178318381,-1.546654344,-10.80503273,0.2298433632,-204.74157303370785,32.04494382022472,-79.7752808988764,-6975.797752808989,-3434.078651685393,3993.61797752809,8
2024-06-15 13:32:25,-0.07819075137,0.06841690838,-0.1429424733,-1.546654344,-10.3453455,-0.2082955539,-239.73563218390805,126.33333333333334,-212.4022988505747,-7010.80459770115,-3427.9655172413795,4098.379310344828,8
2024-06-15 13:32:25,-0.2003637999,0.02809980139,-0.08429940045,-1.103726983,-10.00776291,-0.5458779931,-272.7303370786517,-51.651685393258425,67.57303370786516,-6870.573033707865,-3360.7865168539324,4201.303370786517,8
2024-06-15 13:32:25,-0.2003637999,0.02809980139,-0.08429940045,-1.103726983,-10.00776291,-0.5458779931,-201.8571428571429,95.42857142857144,73.57142857142857,-7013.0,-3212.0,4167.0,8
2024-06-15 13:32:25,-0.2138028294,0.0109955743,-0.05131268129,-0.9840168953,-9.907206535,-0.55784899,-146.1145038167939,-86.52671755725191,92.65648854961832,-7011.67175572519,-3447.885496183206,4149.427480916031,8
2024-06-15 13:32:25,-0.2138028294,0.0109955743,-0.05131268129,-0.9840168953,-9.907206535,-0.55784899,-272.55102040816325,-102.83673469387756,14.959183673469385,-6811.61224489796,-3441.8571428571427,4167.040816326531,8
2024-06-15 13:32:25,-0.01343903504,-0.04031710699,-0.05864306539,-0.8690952063,-9.900024414,-0.9385270476,-295.264367816092,112.59770114942528,106.32183908045975,-6812.620689655172,-3421.4712643678163,4147.540229885058,8
2024-06-15 13:32:25,0.3139847219,-0.06963863969,0.03420845419,-0.9313444495,-10.23521233,-0.6823474765,15.09090909090909,-99.36363636363636,21.27272727272728,-6833.090909090909,-3407.181818181818,4133.0,8
2024-06-15 13:32:25,0.3139847219,-0.06963863969,0.03420845419,-0.9313444495,-10.23521233,-0.6823474765,-179.52808988764045,-88.20224719101124,81.71910112359551,-6794.5842696629215,-3441.921348314607,4131.078651685393,8
2024-06-15 13:32:25,1.137431145,-0.2076941878,-0.09162978828,-0.8523358107,-9.469067574,0.390254885,63.06382978723404,-57.35106382978724,80.2872340425532,-6805.053191489362,-3436.0106382978724,4115.340425531915,8
2024-06-15 13:32:25,0.8894197941,0.004886921961,-0.06475171447,-0.7086837292,-8.714894295,2.609679937,79.10588235294118,-37.49411764705882,-128.41176470588235,-6801.588235294118,-3430.294117647059,3821.470588235294,8
2024-06-15 13:32:26,0.8894197941,0.004886921961,-0.06475171447,-0.7086837292,-8.714894295,2.609679937,-23.125,-43.5,-321.5,-6810.5,-3346.75,3827.5,8
2024-06-15 13:32:26,1.525941372,0.2431243658,0.2125810981,-0.9696516991,-9.181763649,5.68383503,42.93406593406593,-89.23076923076923,-89.45054945054943,-6841.956043956044,-3419.428571428572,4047.7582417582416,8
2024-06-15 13:32:26,1.525941372,0.2431243658,0.2125810981,-0.7086837292,-7.735665798,5.667075634,33.18604651162791,-123.74418604651164,-218.13953488372096,-6803.930232558139,-3421.3255813953488,4112.558139534884,8
2024-06-15 13:32:26,0.9285151958,0.08918632567,-0.3042109013,-0.7086837292,-7.735665798,5.667075634,9.233333333333334,-126.7,-263.46666666666664,-6792.6,-3451.5,3837.933333333333,8
2024-06-15 13:32:26,-1.25838244,-0.2736676335,-0.4019493461,-1.733402014,-9.260771751,4.520252705,13.123595505617978,88.32584269662921,60.50561797752809,-6833.76404494382,-3202.011235955056,4103.471910112359,8
2024-06-15 13:32:26,-1.25838244,-0.2736676335,-0.4019493461,-1.733402014,-9.260771751,4.520252705,67.43262411347517,125.77304964539007,-119.22695035460993,-6805.475177304965,-3437.978723404255,3867.1843971631206,8
2024-06-15 13:32:26,-0.8234463334,-0.196698606,0.1600466967,-0.3711012602,-8.901641846,5.358223438,63.88652482269504,124.354609929078,-120.645390070922,-6814.695035460993,-3431.595744680851,4055.836879432624,8
2024-06-15 13:32:26,-0.1307251602,0.1979203373,0.06475171447,-0.8619126081,-9.346963882,3.591302633,-226.08379888268155,-117.5195530726257,121.4804469273743,-6822.597765363129,-3441.0335195530724,4122.307262569832,8
2024-06-15 13:32:26,-0.1307251602,0.1979203373,0.06475171447,-0.8619126081,-9.346963882,3.591302633,14.030303030303031,-114.989898989899,116.05050505050504,-6840.989898989899,-3405.3939393939395,4111.474747474747,8
2024-06-15 13:32:26,-1.045801282,0.1588249654,-0.06841690838,-1.218648672,-8.719682693,4.108449936,-400.3333333333333,-39.0,-122.66666666666669,-6811.0,-3371.333333333333,4151.666666666667,8
2024-06-15 13:32:27,-0.924849987,0.4911356568,-0.1209513173,-1.082179189,-10.36928749,1.194706678,-592.4736842105264,25.84210526315789,-181.68421052631567,-6814.210526315789,-3332.2105263157896,4174.210526315789,8
2024-06-15 13:32:27,-0.924849987,0.4911356568,-0.1209513173,-1.082179189,-10.36928749,1.194706678,-614.0,496.2258064516129,-604.1612903225806,-6872.698924731183,-3207.1075268817203,3889.559139784946,8
2024-06-15 13:32:27,0.668286562,-0.1857030392,0.00244346098,-0.7637503147,-10.84333992,0.9289502501,-1088.0,189.6341463414634,-1125.0,-6835.463414634146,-3528.682926829268,3497.756097560976,8
2024-06-15 13:32:27,0.668286562,-0.1857030392,0.00244346098,-0.7637503147,-10.84333992,0.9289502501,-252.46153846153845,-594.6923076923077,-464.46153846153845,-6896.384615384615,-4107.846153846154,3276.538461538461,8
2024-06-15 13:32:27,0.3824016452,-0.3750712574,0.08918632567,-0.921767652,-9.095572472,2.856282711,-532.2608695652174,-882.445652173913,-162.83695652173913,-6761.304347826087,-4109.804347826087,3674.934782608696,8
2024-06-15 13:32:27,0.1551597714,-0.6719517708,-0.05864306539,-0.5123591423,-9.179368973,3.107673883,-182.3571428571429,-223.6190476190476,-621.2380952380952,-6345.761904761905,-4054.809523809524,3676.571428571429,8
2024-06-15 13:32:27,0.1551597714,-0.6719517708,-0.05864306539,-0.5123591423,-9.179368973,3.107673883,-228.91011235955057,-196.2584269662921,-218.59550561797755,-6475.29213483146,-4389.348314606742,3693.505617977528,8
2024-06-15 13:32:27,0.8332201838,-0.3078760803,0.07330382615,-0.5315127969,-9.105149269,4.292803764,99.82758620689656,-322.3103448275862,224.3793103448276,-6650.793103448276,-4032.5172413793102,3701.5172413793102,8
2024-06-15 13:32:27,0.8332201838,-0.3078760803,0.07330382615,-0.5315127969,-9.105149269,4.292803764,247.0681818181818,-14.45454545454544,51.45454545454547,-6724.681818181818,-4062.318181818182,3918.022727272728,8
2024-06-15 13:32:27,-0.5192354321,-0.09773843735,0.07330382615,0.4453215301,-7.584830761,6.701370716,589.7865168539325,164.82022471910113,-266.0674157303371,-6551.146067415731,-3716.921348314607,3783.977528089888,8
2024-06-15 13:32:28,-0.4508185387,0.1600466967,0.05864306539,-0.8882488012,-9.02374649,2.980781078,523.3255813953489,-26.03488372093023,-633.1046511627907,-6745.604651162791,-3821.441860465117,3830.6744186046512,8
2024-06-15 13:32:28,-0.4508185387,0.1600466967,0.05864306539,-0.8882488012,-9.02374649,2.980781078,423.4351145038168,-90.64885496183206,-927.3969465648856,-6481.893129770992,-4186.458015267175,4136.206106870229,8
2024-06-15 13:32:28,0.1661553532,0.003665191587,0.01466076635,0.1867477298,-8.851364136,5.204994678,552.6976744186046,-266.6744186046512,-763.4418604651163,-6454.046511627907,-4044.418604651162,4193.441860465116,8
2024-06-15 13:32:28,-0.4166100919,-0.1319468915,-0.09407325089,-0.85473001,-9.619902611,3.490746021,799.5172413793103,46.96551724137931,-627.3103448275862,-6451.931034482759,-4084.586206896552,4218.827586206897,8
2024-06-15 13:32:28,-0.4166100919,-0.1319468915,-0.09407325089,-0.85473001,-9.619902611,3.490746021,475.8965517241379,357.41379310344826,-565.5172413793103,-6488.96551724138,-4057.931034482759,4208.448275862069,8
2024-06-15 13:32:28,0.3298672438,-0.08429940045,-0.03420845419,-0.5027823448,-9.0740242,4.12999773,202.32,191.72,-241.64,-6331.336,-4161.872,3984.864,8
2024-06-15 13:32:28,-0.02443460934,-0.1331686229,0.1087340117,-0.6871358752,-9.155426979,3.859453201,301.1698113207547,-112.18867924528304,-324.3962264150944,-6362.11320754717,-4395.226415094339,3994.679245283018,8
2024-06-15 13:32:28,-0.02443460934,-0.1331686229,0.1087340117,-0.6871358752,-9.155426979,3.859453201,95.53932584269664,-64.67415730337079,-574.5730337078652,-6101.853932584269,-4395.23595505618,4065.494382022472,8
2024-06-15 13:32:28,0.7819074988,-0.161268428,0.07452555746,-0.7015010715,-9.033323288,4.311957359,62.28571428571428,197.28571428571428,-323.8571428571429,-6101.857142857143,-4389.142857142857,4354.571428571428,8
2024-06-15 13:32:28,0.7819074988,-0.161268428,0.07452555746,-0.7015010715,-9.033323288,4.311957359,94.26966292134831,267.91011235955057,-17.213483146067404,-6060.23595505618,-4473.3258426966295,4065.3932584269664,8
2024-06-15 13:32:29,-0.5681046844,0.2932153046,0.6572909951,-0.7517793179,-9.308655739,6.500257492,-100.84146341463416,285.0853658536585,-263.7317073170732,-6095.731707317073,-4245.963414634146,4014.4756097560976,8
2024-06-15 13:32:29,-0.1307251602,0.6133087277,1.174082994,-2.786850691,-9.126696587,4.455609322,-42.31111111111111,346.1555555555556,-161.34444444444443,-6100.488888888889,-4242.333333333333,3986.711111111111,8
2024-06-15 13:32:29,-0.1307251602,0.6133087277,1.174082994,-2.786850691,-9.126696587,4.455609322,299.08988764044943,290.1685393258427,9.269662921348312,-6089.752808988764,-4475.460674157303,3973.719101123596,8
2024-06-15 13:32:29,0.5057964325,0.5375614166,1.295034289,-5.626373768,-7.778761387,4.364629745,359.75,344.02272727272725,-66.93181818181819,-6436.636363636364,-4388.931818181818,3989.727272727273,8
2024-06-15 13:32:29,0.109955743,0.6267477274,1.016479731,-6.502651691,-5.303156853,4.177882195,-73.18604651162791,162.69767441860466,47.04651162790698,-6446.186046511628,-4361.325581395349,4002.720930232558,8
2024-06-15 13:32:29,0.109955743,0.6267477274,1.016479731,-6.502651691,-5.303156853,4.177882195,-127.47727272727272,278.09090909090907,52.79545454545455,-6416.75,-4379.568181818182,4215.613636363636,8
2024-06-15 13:32:29,0.1991420686,0.1050688252,0.6548475623,-6.368576527,-4.314351559,4.158728123,-88.0,280.72727272727275,23.181818181818187,-6432.090909090909,-4411.181818181818,4211.272727272727,8
2024-06-15 13:32:29,0.1991420686,0.1050688252,0.6548475623,-6.368576527,-4.314351559,4.158728123,-114.61797752808988,-29.730337078651687,45.96629213483146,-6477.348314606742,-4385.348314606742,4030.179775280899,8
2024-06-15 13:32:29,0.1710422635,-0.09773843735,0.4593706727,-7.69257021,-4.592078686,3.787626982,131.5581395348837,-93.86046511627907,43.325581395348834,-6460.627906976744,-4378.395348837209,4009.7906976744175,8
2024-06-15 13:32:29,0.2345722616,-0.06352998316,0.2638937831,-7.908048153,-3.260902643,4.125209332,13.285714285714278,-57.18367346938776,10.42857142857143,-6435.979591836735,-4062.877551020408,3976.755102040816,8
2024-06-15 13:32:30,0.2345722616,-0.06352998316,0.2638937831,-7.908048153,-3.260902643,4.125209332,-266.6551724137931,-50.44827586206897,-152.3793103448276,-6487.862068965517,-4380.6551724137935,4203.793103448276,8
2024-06-15 13:32:30,0.1942551434,-0.05864306539,0.1221730486,-7.951143742,-3.289633036,4.307168961,105.36551724137932,-52.00689655172414,-291.8965517241379,-6168.124137931034,-4449.91724137931,4213.344827586207,8
2024-06-15 13:32:30,0.07330382615,0.003665191587,0.1111774743,-7.867346764,-2.901772499,4.599261284,-23.599999999999994,-45.8,-285.0,-6356.4,-4424.4,4203.0,8
2024-06-15 13:32:30,0.07330382615,0.003665191587,0.1111774743,-7.867346764,-2.901772499,4.599261284,62.576470588235296,-0.6117647058823508,-277.2470588235294,-6473.976470588235,-4367.211764705882,4200.823529411765,8
2024-06-15 13:32:30,0.1502728462,0.03176499158,0.04398229718,-8.037335396,-2.79163909,4.417302132,31.704545454545453,14.840909090909092,-294.9318181818182,-6457.909090909091,-4407.477272727273,4199.295454545455,8
2024-06-15 13:32:30,0.1502728462,0.03176499158,0.04398229718,-8.037335396,-2.79163909,4.417302132,35.369565217391305,-86.78260869565217,-350.2173913043478,-6447.804347826087,-4424.847826086957,4182.391304347826,8
2024-06-15 13:32:30,0.1722639948,0.01832595654,0.0293215327,-8.128314972,-2.779668093,4.493916512,81.88095238095238,-76.5,-336.2738095238095,-6427.238095238095,-4443.297619047619,4184.166666666667,8
2024-06-15 13:32:30,0.07086037099,0.007330383174,0.04886921868,-8.157045364,-2.868253708,4.407725334,45.05747126436782,-76.25287356321839,-344.3448275862069,-6184.045977011494,-4239.505747126437,4199.551724137931,8
2024-06-15 13:32:30,0.07086037099,0.007330383174,0.04886921868,-8.157045364,-2.868253708,4.407725334,53.30769230769231,-102.96703296703296,12.802197802197782,-6426.714285714285,-4465.395604395604,4191.32967032967,8
2024-06-15 13:32:30,-0.02076941915,-0.00244346098,0.02687807009,-8.164227486,-2.801215887,4.589684486,-299.2022471910112,-293.7191011235955,-82.07865168539325,-6463.988764044944,-4458.134831460674,3992.2022471910113,8
2024-06-15 13:32:31,0.1942551434,0.02076941915,0.05619960278,-8.214506149,-2.403778553,4.410119534,-297.7977528089888,-147.85393258426967,62.831460674157306,-6353.393258426966,-4444.078651685393,4028.213483146068,8
2024-06-15 13:32:31,0.1942551434,0.02076941915,0.05619960278,-8.214506149,-2.403778553,4.410119534,-349.5056179775281,-248.91011235955057,85.56179775280899,-6117.70786516854,-4427.348314606742,3993.460674157304,8
2024-06-15 13:32:31,0.1087340117,0.0293215327,0.05009094998,-8.128314972,-2.23139596,4.61362648,-284.08791208791206,96.57142857142856,-353.8131868131868,-6123.351648351649,-4250.021978021978,3996.142857142857,8
2024-06-15 13:32:31,0.1087340117,0.0293215327,0.05009094998,-8.128314972,-2.23139596,4.61362648,-53.8476821192053,73.5364238410596,-302.43046357615896,-6121.715231788079,-4448.688741721854,4029.993377483444,8
2024-06-15 13:32:31,0.17715092,0.02199114859,0.05009094998,-8.341399193,-2.123656988,4.419696331,-260.4701986754967,98.03973509933776,-301.10596026490066,-6121.05298013245,-4466.569536423841,4034.629139072848,8
2024-06-15 13:32:31,0.1441642046,0.03420845419,0.06108652428,-8.372523308,-2.066195965,4.431667328,-250.1136363636364,-95.82954545454544,-10.886363636363626,-6486.943181818182,-4670.625,4271.625,8
2024-06-15 13:32:31,0.1441642046,0.03420845419,0.06108652428,-8.372523308,-2.066195965,4.431667328,54.0,291.0,16.384615384615387,-6288.384615384615,-4454.0,4173.076923076923,8
2024-06-15 13:32:31,0.1331686229,0.03787364438,0.06841690838,-8.370129585,-1.874659896,4.472368717,-610.2988505747126,290.1379310344828,-298.14942528735634,-5839.298850574713,-4287.597701149425,3900.103448275862,8
2024-06-15 13:32:31,0.04276056588,0.0232128799,0.03420845419,-8.372523308,-1.532289028,4.477157116,-626.8040540540541,-97.3783783783784,54.68918918918919,-6051.195945945946,-4589.263513513513,3921.0472972972975,8
2024-06-15 13:32:31,0.04276056588,0.0232128799,0.03420845419,-8.372523308,-1.532289028,4.477157116,-227.83516483516485,201.7362637362637,-258.8021978021978,-6073.56043956044,-4646.043956043956,3555.5824175824177,8
2024-06-15 13:32:32,0.07941248268,0.006108652335,0.01954768784,-8.470685959,-1.496376038,4.484339714,-351.0674157303371,-217.8876404494382,-214.7977528089888,-6049.573033707865,-4682.5842696629215,3840.404494382023,8
2024-06-15 13:32:32,0.07941248268,0.006108652335,0.01954768784,-8.470685959,-1.496376038,4.484339714,341.4047619047619,-163.52380952380952,427.0119047619048,-6220.071428571428,-4557.464285714285,3806.5476190476193,8
2024-06-15 13:32:32,0.1441642046,0.0232128799,0.02443460934,-8.413225174,-1.381454349,4.46279192,195.48888888888888,-48.477777777777774,171.3777777777778,-6445.777777777777,-4361.333333333333,3793.533333333333,8
2024-06-15 13:32:32,0.04276056588,0.00244346098,0.0171042271,-8.51617527,-1.036689281,4.350264549,33.25,50.0,-300.25,-6087.375,-4343.875,3774.0,8
2024-06-15 13:32:32,0.04276056588,0.00244346098,0.0171042271,-8.51617527,-1.036689281,4.350264549,-219.8111111111112,-267.3333333333333,-30.76666666666665,-6092.977777777778,-4601.788888888889,3789.6111111111113,8
2024-06-15 13:32:32,0.1172861308,0.007330383174,0.0293215327,-8.449137688,-1.168370485,4.446032524,70.48837209302326,-275.8139534883721,236.1627906976744,-6118.162790697675,-4525.930232558139,3807.5348837209294,8
2024-06-15 13:32:32,0.06841690838,0.02076941915,0.008552113548,-8.54251194,-1.084573388,4.364629745,291.86206896551727,99.95402298850574,-43.2528735632184,-6078.632183908046,-4641.505747126437,3811.770114942529,8
2024-06-15 13:32:32,0.06841690838,0.02076941915,0.008552113548,-8.54251194,-1.084573388,4.364629745,-20.25,-244.20652173913044,304.2717391304348,-6138.358695652174,-4285.804347826087,4132.717391304348,8
2024-06-15 13:32:32,0.1478293836,0.0415388383,-0.009773843922,-8.544905663,-0.8978256583,4.446032524,312.95348837209303,117.72093023255816,178.97674418604652,-6128.302325581395,-4295.906976744186,4010.720930232558,8
2024-06-15 13:32:32,0.1478293836,0.0415388383,-0.009773843922,-8.544905663,-0.8978256583,4.446032524,-69.14285714285714,47.57142857142857,79.14285714285714,-6441.0,-4288.0,4004.571428571429,8
2024-06-15 13:32:33,0.1197295859,0.04398229718,0.00122173049,-8.635885239,-0.9864110947,4.01747036,111.19463087248322,22.5503355704698,-87.6241610738255,-6349.261744966443,-4381.315436241611,4006.6308724832215,8
2024-06-15 13:32:33,0.0354301855,-0.03787364438,-0.003665191587,-8.544905663,-0.8355764151,4.355052948,120.59060402684564,59.46308724832215,-345.3422818791946,-6141.208053691275,-4379.302013422819,4002.6040268456377,8
2024-06-15 13:32:33,0.0354301855,-0.03787364438,-0.003665191587,-8.544905663,-0.8355764151,4.355052948,76.85393258426966,-82.61797752808988,-356.85393258426967,-6117.011235955056,-4458.29213483146,3988.14606741573,8
2024-06-15 13:32:33,-0.003665191587,-0.0232128799,-0.007330383174,-8.59278965,-0.9169792533,4.156333923,38.66279069767442,-85.26744186046511,-275.13953488372096,-6140.732558139535,-4234.802325581395,4003.3953488372094,8
2024-06-15 13:32:33,-0.1905899495,-0.06352998316,-0.06230825558,-8.513781548,-0.9959878922,4.175487995,22.75,29.47222222222222,49.66666666666666,-6099.944444444444,-4373.277777777777,3990.8333333333335,8
2024-06-15 13:32:33,-0.1905899495,-0.06352998316,-0.06230825558,-8.513781548,-0.9959878922,4.175487995,40.975,44.85,-61.575,-6105.725,-4388.425,3980.575,8
2024-06-15 13:32:33,-0.5766568184,-0.1209513173,-0.2809980214,-8.413225174,-1.082179189,4.189853191,61.40449438202247,-85.24719101123596,88.86516853932584,-6399.550561797752,-4450.460674157303,4020.14606741573,8
2024-06-15 13:32:33,-0.5766568184,-0.1209513173,-0.2809980214,-8.413225174,-1.082179189,4.189853191,51.694117647058825,-114.17647058823528,-6.882352941176471,-6121.094117647059,-4406.270588235294,3979.670588235294,8
2024-06-15 13:32:33,-1.182635069,-0.1844813079,-0.4031710625,-8.24802494,-3.009511471,4.012681961,67.65217391304347,-90.8695652173913,-180.04347826086956,-6195.695652173913,-4294.391304347826,3999.086956521739,8
2024-06-15 13:32:33,-0.8637634516,-0.05619960278,-0.7379252315,-7.611167431,-4.09169054,4.163516521,98.55813953488372,35.96511627906976,52.19767441860465,-6112.279069767442,-4448.639534883721,3983.720930232558,8
2024-06-15 13:32:34,-0.8637634516,-0.05619960278,-0.7379252315,-7.611167431,-4.09169054,4.163516521,68.9090909090909,-94.0909090909091,27.454545454545453,-6402.454545454545,-4430.636363636364,3997.363636363637,8
2024-06-15 13:32:34,-0.5241223574,-0.2260201424,-1.621236324,-5.063736439,-5.698200226,3.38061285,-153.14457831325302,107.79518072289156,63.93975903614458,-6249.277108433735,-4432.409638554217,3981.421686746988,8
2024-06-15 13:32:34,-0.08796459436,-0.6279694438,-2.007303238,-4.23294878,-7.55131197,3.883395195,37.6551724137931,48.9655172413793,36.51724137931035,-6212.482758620689,-4449.827586206897,3997.931034482759,8
2024-06-15 13:32:34,-0.08796459436,-0.6279694438,-2.007303238,-4.23294878,-7.55131197,3.883395195,54.51724137931034,114.32183908045975,68.94252873563218,-6122.80459770115,-4447.482758620689,4010.5172413793102,8
2024-06-15 13:32:34,0.1649336219,-0.4129449129,-1.115439892,-3.057395458,-10.98459721,4.09169054,25.186046511627907,115.18604651162792,48.93023255813954,-6125.139534883721,-4430.906976744186,4012.906976744186,8
2024-06-15 13:32:34,0.1649336219,-0.4129449129,-1.115439892,-3.057395458,-10.98459721,4.09169054,37.45454545454545,94.13636363636364,76.81818181818181,-6127.681818181818,-4415.090909090909,3982.045454545456,8
2024-06-15 13:32:34,0.5632177591,-0.3872885704,-0.4214970171,-1.18991828,-10.05804157,4.932055473,12.35135135135135,116.8108108108108,73.21621621621621,-6171.621621621622,-4437.783783783784,4006.5945945945946,8
2024-06-15 13:32:34,0.3726277947,-0.2858849466,-0.02199114859,-1.053448796,-8.149862289,4.666299343,58.2972972972973,109.3783783783784,74.56756756756756,-6356.756756756757,-4436.4324324324325,4022.810810810811,8
2024-06-15 13:32:34,0.3726277947,-0.2858849466,-0.02199114859,-1.053448796,-8.149862289,4.666299343,6.9010989010989015,-124.36263736263736,27.43956043956044,-6104.274725274725,-4461.549450549451,3998.186813186813,8
2024-06-15 13:32:34,0.2797762752,-0.1624901593,-0.03420845419,-0.6991068721,-8.303091049,5.487510204,15.061728395061728,118.4074074074074,82.44444444444444,-6265.259259259259,-4448.444444444444,3986.6296296296296,8
2024-06-15 13:32:35,-0.009773843922,-0.0232128799,-0.06475171447,-0.6200982332,-8.377311707,5.262455463,95.85333333333334,-113.76,50.53333333333333,-6126.64,-4463.133333333333,3975.52,8
2024-06-15 13:32:35,-0.009773843922,-0.0232128799,-0.06475171447,-0.6200982332,-8.377311707,5.262455463,-89.34482758620689,-46.48275862068966,25.13793103448276,-6367.379310344828,-4419.793103448276,3998.2758620689656,8
2024-06-15 13:32:35,0.1820378453,-0.06230825558,-0.1368338168,-0.2202665508,-8.425195694,5.971138954,68.46067415730337,124.0,44.146067415730336,-6139.977528089888,-4450.719101123596,4021.595505617977,8
2024-06-15 13:32:35,0.1820378453,-0.06230825558,-0.1368338168,-0.2202665508,-8.425195694,5.971138954,92.83695652173913,-111.45652173913044,51.391304347826086,-6382.684782608696,-4431.695652173913,3999.304347826087,8
2024-06-15 13:32:35,-0.1221730486,-0.008552113548,0.01466076635,-0.3136404157,-8.444349289,5.592854977,72.20224719101124,108.14606741573031,64.53932584269663,-6131.595505617977,-4430.067415730337,4018.674157303371,8
2024-06-15 13:32:35,-0.1588249654,0.008552113548,-0.02076941915,-0.3423708379,-8.343792915,5.559336185,76.66666666666667,-109.75555555555556,70.8,-6405.622222222222,-4388.644444444444,4011.0222222222224,8
2024-06-15 13:32:35,-0.1588249654,0.008552113548,-0.02076941915,-0.3423708379,-8.343792915,5.559336185,57.38636363636364,-108.125,77.43181818181819,-6436.454545454545,-4414.181818181818,4015.306818181818,8
2024-06-15 13:32:35,-0.1563815027,0.05009094998,0.07941248268,-0.4046200812,-8.55448246,5.030217648,8.60919540229885,117.60919540229884,11.264367816091957,-6415.172413793103,-4422.344827586207,4010.4367816091954,8
2024-06-15 13:32:35,-0.1698205322,0.0,-0.02199114859,-0.4764461517,-8.839392662,4.740519524,23.584415584415584,106.76623376623375,29.20779220779221,-6403.649350649351,-4417.181818181818,4013.7662337662337,8
2024-06-15 13:32:35,-0.1698205322,0.0,-0.02199114859,-0.4764461517,-8.839392662,4.740519524,46.24444444444445,105.13333333333334,17.91111111111111,-6414.866666666667,-4406.533333333334,4037.133333333333,8
2024-06-15 13:32:36,0.4630358517,-0.09407325089,-0.06719517708,-0.282515794,-8.609549522,5.118803024,-299.86206896551727,-6.0,-320.62068965517244,-6092.724137931034,-4372.068965517241,4035.96551724138,8
2024-06-15 13:32:36,0.4630358517,-0.09407325089,-0.06719517708,-0.282515794,-8.609549522,5.118803024,-311.1363636363636,113.54545454545452,-334.3181818181818,-6126.681818181818,-4396.454545454545,4061.4545454545455,8
2024-06-15 13:32:36,0.06475171447,-0.04031710699,-0.03054326214,-0.2130839527,-8.690952301,5.128379822,-377.7697841726618,284.53956834532374,-188.63309352517985,-6430.3165467625895,-4088.395683453237,4037.8057553956833,8
2024-06-15 13:32:36,0.3127630055,-0.03420845419,-0.0232128799,-0.2178723514,-8.731653214,5.19781208,-1089.7906976744189,584.4186046511628,-173.2093023255814,-6055.53488372093,-4682.395348837209,3868.093023255814,8
2024-06-15 13:32:36,0.3127630055,-0.03420845419,-0.0232128799,-0.2178723514,-8.731653214,5.19781208,-645.9890109890109,407.7802197802198,-374.94505494505495,-6176.087912087912,-4769.307692307692,3692.395604395605,8
2024-06-15 13:32:36,-0.07574728876,0.0,-0.008552113548,-0.2633621991,-8.315062523,5.298368454,-309.6642857142857,32.42142857142857,44.8,-6359.907142857143,-4923.057142857143,3653.285714285714,8
2024-06-15 13:32:36,0.07086037099,-0.003665191587,0.00244346098,-0.3687070608,-8.686163902,5.281609058,-260.37857142857143,55.99285714285715,104.8,-6137.7642857142855,-4805.914285714286,3667.571428571429,8
2024-06-15 13:32:36,0.07086037099,-0.003665191587,0.00244346098,-0.3687070608,-8.686163902,5.281609058,47.58536585365853,-55.70731707317073,-148.21951219512195,-6079.90243902439,-4643.5609756097565,3666.6341463414633,8
2024-06-15 13:32:36,0.004886921961,-0.007330383174,0.006108652335,-0.2968810201,-8.487444878,5.355829239,-158.48275862068965,-593.0344827586207,-107.65517241379312,-5811.724137931034,-4697.241379310345,3955.103448275862,8
2024-06-15 13:32:36,0.004886921961,-0.007330383174,0.006108652335,-0.2968810201,-8.487444878,5.355829239,-202.26666666666665,-255.16666666666669,470.1111111111111,-5996.388888888889,-4541.666666666667,3922.755555555556,8
2024-06-15 13:32:37,0.02565634064,-0.003665191587,-0.01466076635,-0.4189853072,-8.358158112,5.365406036,-333.55172413793105,-328.48275862068965,410.0919540229885,-6338.0114942528735,-4708.793103448276,3933.4827586206898,8
2024-06-15 13:32:37,-0.05864306539,-0.00244346098,-0.003665191587,-0.3280056417,-8.571242332,5.252878666,-269.4888888888889,-354.06666666666666,-33.644444444444446,-6515.422222222222,-4328.466666666666,3910.1111111111113,8
2024-06-15 13:32:37,-0.05864306539,-0.00244346098,-0.003665191587,-0.3280056417,-8.571242332,5.252878666,-310.74444444444447,-339.56666666666666,-289.4222222222222,-6402.355555555556,-4650.644444444444,3906.1111111111113,8
2024-06-15 13:32:37,-0.003665191587,-0.01343903504,-0.007330383174,-0.2585737705,-8.552088737,5.228936672,279.48192771084337,42.30120481927711,-38.506024096385545,-6171.469879518072,-4606.506024096386,3756.734939759036,8
2024-06-15 13:32:37,0.02687807009,-0.007330383174,-0.007330383174,-0.2633621991,-8.561665535,5.305551052,-98.4186046511628,-589.7209302325581,-33.418604651162795,-6470.53488372093,-4277.697674418605,4163.348837209303,8
2024-06-15 13:32:37,0.02687807009,-0.007330383174,-0.007330383174,-0.2633621991,-8.561665535,5.305551052,-63.1,-613.7555555555556,-284.2,-6338.466666666666,-4260.033333333334,4198.233333333334,8
2024-06-15 13:32:37,-0.0109955743,-0.003665191587,-0.01343903504,-0.2753331959,-8.549694061,5.284003258,-202.88636363636363,-710.375,-259.3068181818182,-6023.329545454545,-4654.170454545455,4036.511363636364,8
2024-06-15 13:32:37,-0.0109955743,-0.003665191587,-0.01343903504,-0.2753331959,-8.549694061,5.284003258,-175.04347826086956,-305.8695652173913,-104.2173913043478,-5829.913043478261,-4674.217391304348,4055.2608695652175,8
2024-06-15 13:32:37,-0.007330383174,-0.004886921961,-0.00122173049,-0.3016694188,-8.564059258,5.20020628,-289.11347517730496,-159.80851063829786,55.219858156028366,-5820.148936170212,-4708.156028368794,4045.851063829787,8
2024-06-15 13:32:37,0.009773843922,-0.00244346098,0.007330383174,-0.2849099934,-8.652645111,5.252878666,-288.5,-80.625,-83.96875,-6214.75,-4490.71875,4005.59375,8
2024-06-15 13:32:38,0.009773843922,-0.00244346098,0.007330383174,-0.2849099934,-8.652645111,5.252878666,-75.37777777777777,-84.75555555555556,116.64444444444445,-6191.844444444445,-4718.133333333333,3986.866666666667,8
2024-06-15 13:32:38,-0.009773843922,-0.01343903504,0.0109955743,-0.2130839527,-8.556877136,5.219359875,-56.340425531914896,346.95744680851067,-361.7234042553192,-6175.659574468085,-4662.68085106383,3979.170212765957,8
2024-06-15 13:32:38,0.02809980139,0.0,-0.03420845419,-0.1388636976,-8.470685959,5.439626217,-62.01418439716312,212.91489361702128,-240.4468085106383,-6169.985815602837,-4674.028368794327,4148.673758865249,8
2024-06-15 13:32:38,0.02809980139,0.0,-0.03420845419,-0.1388636976,-8.470685959,5.439626217,261.3820224719101,342.4719101123595,-772.1460674157304,-6265.067415730337,-4664.449438202248,4141.752808988764,8
2024-06-15 13:32:38,-0.5290092826,0.2700024247,0.6805039048,-0.8236053586,-9.06205368,5.530605793,386.1927710843373,307.710843373494,-587.7710843373494,-6070.0,-4500.44578313253,3986.6746987951806,8
2024-06-15 13:32:38,-0.5290092826,0.2700024247,0.6805039048,-0.8236053586,-9.06205368,5.530605793,156.7,262.2888888888889,-232.24444444444444,-5910.544444444445,-4552.111111111111,3992.2,8
2024-06-15 13:32:38,0.0720821023,0.6279694438,1.038470864,-2.396595955,-9.478644371,6.011840343,450.77272727272725,759.8863636363636,-525.6363636363636,-5829.340909090909,-4872.340909090909,4215.022727272727,8
2024-06-15 13:32:38,0.3445279896,0.7684684992,1.365894675,-3.859453201,-7.457938194,4.57531929,438.4942528735632,551.5402298850574,-592.4597701149426,-6083.057471264367,-4498.793103448276,4175.793103448276,8
2024-06-15 13:32:38,0.3445279896,0.7684684992,1.365894675,-3.859453201,-7.457938194,4.57531929,430.8666666666667,620.1333333333333,-593.4,-6142.333333333333,-4521.0,4139.933333333333,8
2024-06-15 13:32:38,-0.428827405,0.9004153609,1.345125318,-4.639962673,-5.317522049,3.928884983,572.3218390804598,611.9425287356322,-188.5747126436781,-6204.712643678161,-4728.735632183908,4174.241379310345,8
2024-06-15 13:32:39,0.2052507252,0.04276056588,0.5949827433,-6.974309444,-5.470750809,3.323152065,-11.724137931034482,-2.7241379310344827,-112.17241379310344,-6180.551724137931,-4510.068965517241,4179.862068965517,8
2024-06-15 13:32:39,0.2052507252,0.04276056588,0.5949827433,-6.974309444,-5.470750809,3.323152065,-73.75555555555556,-17.933333333333334,-84.53333333333333,-6214.977777777778,-4721.688888888889,4167.422222222222,8
2024-06-15 13:32:39,0.4508185387,0.0720821023,0.5180137157,-7.759607792,-3.857059002,3.502717018,78.5,-95.25,93.25,-6237.25,-4710.75,4145.5,8
2024-06-15 13:32:39,0.4508185387,0.0720821023,0.5180137157,-7.759607792,-3.857059002,3.502717018,6.032967032967036,-82.15384615384616,107.1098901098901,-6161.021978021978,-4684.582417582417,4154.879120879121,8
2024-06-15 13:32:39,0.2125810981,0.0171042271,0.4630358517,-8.051700592,-3.830722809,3.799597979,75.85148514851485,-58.772277227722775,-87.35643564356435,-6064.3861386138615,-4648.544554455446,4172.435643564357,8
2024-06-15 13:32:39,0.1795943826,-0.006108652335,0.3665191531,-8.219294548,-3.330334663,3.763684988,-146.45,60.55,75.15,-6224.15,-4701.75,4183.7,8
2024-06-15 13:32:39,0.1795943826,-0.006108652335,0.3665191531,-8.219294548,-3.330334663,3.763684988,-245.3409090909091,-180.3181818181818,41.80681818181818,-6207.284090909091,-4629.988636363636,4126.704545454545,8
2024-06-15 13:32:39,0.2345722616,0.0,0.2528982162,-8.370129585,-2.207453966,3.950432777,-143.92,54.38,84.38,-6032.22,-4728.213333333333,4211.486666666667,8
2024-06-15 13:32:39,0.2345722616,0.02443460934,0.007330383174,-8.530540466,-1.8579005,4.13239193,1.25,50.375,87.08333333333333,-6033.416666666667,-4634.708333333333,4212.0,8
2024-06-15 13:32:39,0.2345722616,0.02443460934,0.007330383174,-8.530540466,-1.8579005,4.13239193,5.697674418604652,68.6046511627907,-276.2325581395349,-6215.790697674419,-4700.930232558139,4193.441860465116,8
2024-06-15 13:32:40,0.2174680233,-0.00244346098,0.01588249579,-8.50420475,-2.303221941,4.041412354,63.75824175824176,117.86813186813188,34.505494505494504,-6237.010989010989,-4709.7032967032965,4207.373626373626,8
2024-06-15 13:32:40,0.2174680233,-0.00244346098,0.01588249579,-8.50420475,-2.303221941,4.041412354,34.19767441860465,70.87209302325581,52.895348837209305,-6243.604651162791,-4680.662790697675,4206.139534883721,8
2024-06-15 13:32:40,0.1502728462,-0.04520402849,0.05497787148,-8.544905663,-1.948880196,4.268861771,-86.6413043478261,82.43478260869566,46.35869565217392,-6244.380434782609,-4677.0,4119.097826086957,8
2024-06-15 13:32:40,0.006108652335,-0.00244346098,0.07819075137,-8.453926086,-1.877054095,4.331110954,-231.8505747126437,95.03448275862068,-157.44827586206895,-6125.770114942528,-4689.609195402299,3974.034482758621,8
2024-06-15 13:32:40,0.006108652335,-0.00244346098,0.07819075137,-8.453926086,-1.877054095,4.331110954,-403.9111111111111,-236.86666666666667,-291.64444444444445,-6141.711111111111,-4714.066666666667,4117.733333333334,8
2024-06-15 13:32:40,0.1148426682,0.006108652335,0.07696902007,-8.413225174,-1.22822547,4.326322556,-426.0449438202247,-481.3483146067416,-84.04494382022472,-5971.76404494382,-4601.921348314607,4039.629213483146,8
2024-06-15 13:32:40,0.06841690838,0.02199114859,0.05009094998,-8.623914719,-1.630451322,4.177882195,-541.8314606741573,-524.6629213483146,81.74157303370787,-5828.550561797752,-4567.977528089888,4022.325842696629,8
2024-06-15 13:32:40,0.06841690838,0.02199114859,0.05009094998,-8.623914719,-1.630451322,4.177882195,-170.1818181818182,-329.8181818181818,70.8409090909091,-5825.681818181818,-4591.477272727273,3988.977272727273,8
2024-06-15 13:32:40,0.2663372457,0.01466076635,0.03909537569,-8.511386871,-0.9911994934,4.283226967,-608.1505376344086,-179.50537634408602,50.87096774193549,-6123.666666666667,-4867.05376344086,4020.4086021505377,8
2024-06-15 13:32:40,0.2663372457,0.01466076635,0.03909537569,-8.511386871,-0.9911994934,4.283226967,-587.7565789473684,-565.9802631578947,-115.86842105263158,-5811.506578947368,-4903.993421052632,3982.743421052632,8
2024-06-15 13:32:41,0.1551597714,0.05619960278,0.04276056588,-8.681375504,-1.096544385,4.072536945,-339.73026315789474,-535.0592105263158,-76.39473684210526,-5938.480263157895,-4927.019736842105,3980.7697368421054,8
2024-06-15 13:32:41,0.106290549,0.03054326214,0.01954768784,-8.731653214,-0.6607996821,4.12999773,-172.15217391304347,8.630434782608695,-88.1086956521739,-5772.108695652174,-4727.652173913043,4127.260869565217,8
2024-06-15 13:32:41,0.106290549,0.03054326214,0.01954768784,-8.731653214,-0.6607996821,4.12999773,191.4065934065934,5.439560439560438,-68.71428571428571,-5990.7032967032965,-4774.241758241758,4070.21978021978,8
2024-06-15 13:32:41,0.003665191587,0.02809980139,0.0232128799,-8.738836288,-0.9193734527,3.995922565,142.78620689655173,-81.32413793103449,186.296551724138,-5807.165517241379,-4890.834482758621,4166.296551724138,8
2024-06-15 13:32:41,0.08063421398,0.0293215327,0.03054326214,-8.73404789,-0.8307880163,3.912125587,173.0,308.0,-257.4166666666667,-5888.416666666667,-4573.75,4168.291666666667,8
2024-06-15 13:32:41,0.08063421398,0.0293215327,0.03054326214,-8.73404789,-0.8307880163,3.912125587,311.0481927710844,73.89156626506025,-67.42168674698794,-5851.253012048192,-4706.361445783133,4086.469879518073,8
2024-06-15 13:32:41,-0.01466076635,0.01466076635,0.006108652335,-8.74601841,-0.8044517636,3.79480958,-118.25581395348836,-88.0,55.18604651162789,-5852.139534883721,-4693.418604651163,4359.674418604651,8
2024-06-15 13:32:41,-0.0354301855,-0.02199114859,-0.008552113548,-8.710105896,-0.8882488012,3.993528366,-215.11827956989248,-366.752688172043,50.60215053763441,-5783.645161290323,-4646.666666666667,4234.83870967742,8
2024-06-15 13:32:41,-0.2150245607,-0.06475171447,-0.1404990107,-8.719682693,-0.383072257,3.895366192,-596.0,27.25,67.5,-5819.0,-4504.75,4453.25,8
2024-06-15 13:32:42,-0.2150245607,-0.06475171447,-0.1404990107,-8.719682693,-0.383072257,3.895366192,-228.73809523809524,-62.55952380952381,341.73809523809524,-6179.309523809524,-4730.940476190476,4092.785714285714,8
2024-06-15 13:32:42,-0.3286454976,-0.1246165112,-0.2064724565,-8.578424454,-1.505952835,4.106055737,-285.2926829268293,252.2073170731707,-289.0731707317073,-5886.036585365854,-4538.146341463415,4164.512195121952,8
2024-06-15 13:32:42,-1.051909924,-0.1295034289,-0.3103195429,-8.348581314,-2.463633537,4.13239193,-303.25,387.375,-64.5,-6008.125,-4769.625,4151.875,8
2024-06-15 13:32:42,-1.051909924,-0.1295034289,-0.3103195429,-8.348581314,-2.463633537,4.13239193,86.64044943820224,314.87640449438203,7.539325842696627,-6245.898876404494,-4930.505617977528,3906.910112359551,8
2024-06-15 13:32:42,-0.7586946487,-0.1710422635,-0.770911932,-7.637503624,-3.49553442,4.113238335,-10.584269662921349,-68.49438202247188,269.85393258426967,-6244.70786516854,-4600.865168539326,3876.314606741573,8
2024-06-15 13:32:42,-0.7586946487,-0.1710422635,-0.770911932,-6.414066315,-3.79241538,3.615244627,-39.46308724832215,-102.41610738255034,-189.20805369127515,-6180.187919463087,-4628.986577181208,3987.221476510067,8
2024-06-15 13:32:42,0.2553416789,-0.334754169,-1.296256065,-6.414066315,-3.79241538,3.615244627,-58.68131868131868,82.71428571428571,53.35164835164835,-6269.813186813187,-4650.021978021978,3970.857142857143,8
2024-06-15 13:32:42,-0.6047565937,-0.7672467232,-1.986533761,-3.919308186,-6.339846134,4.209006786,108.71428571428572,94.66666666666669,56.26190476190476,-6210.214285714285,-4693.547619047619,3998.880952380952,8
2024-06-15 13:32:42,-0.6047565937,-0.7672467232,-1.986533761,-3.919308186,-6.339846134,4.209006786,10.375,-114.09722222222224,14.694444444444445,-6198.805555555556,-4700.305555555556,3992.5833333333335,8
2024-06-15 13:32:42,-0.07330382615,-0.381179899,-1.178969979,-3.931279182,-10.723629,5.920860767,-245.875,-110.625,-67.25,-6205.75,-4682.25,3971.75,8
2024-06-15 13:32:43,0.2797762752,-0.2211332172,-0.5754350424,-1.889025092,-9.339780807,4.632780075,100.0681818181818,-88.22727272727272,-125.97727272727272,-6214.977272727273,-4703.215909090909,4138.397727272727,8
2024-06-15 13:32:43,0.2797762752,-0.2211332172,-0.5754350424,-1.889025092,-9.339780807,4.632780075,-102.13953488372093,-82.06976744186046,24.83720930232559,-6122.104651162791,-4661.360465116279,4162.1511627906975,8
2024-06-15 13:32:43,0.04642575979,-0.2748893499,-0.2968805134,-1.103726983,-8.966285706,5.281609058,49.8,-95.0,-102.46666666666668,-6209.133333333333,-4647.0,4186.2,8
2024-06-15 13:32:43,0.04642575979,-0.2748893499,-0.2968805134,-0.5506663918,-8.690952301,5.262455463,42.28888888888889,-112.95555555555556,85.53333333333333,-6265.311111111111,-4657.755555555556,4166.111111111111,8
2024-06-15 13:32:43,0.1111774743,-0.109955743,-0.009773843922,-0.5506663918,-8.690952301,5.262455463,45.91111111111111,-84.51111111111112,61.75555555555555,-6266.911111111112,-4658.044444444445,4143.888888888889,8
2024-06-15 13:32:43,0.3225368559,-0.141720742,-0.05497787148,-0.5937620401,-8.432378769,5.521028996,-107.64044943820224,96.42696629213484,-49.98876404494382,-6073.887640449439,-4287.213483146067,4179.29213483146,8
2024-06-15 13:32:43,0.3225368559,-0.141720742,-0.05497787148,-0.5937620401,-8.432378769,5.521028996,85.03296703296704,88.48351648351648,-82.01098901098901,-6088.164835164836,-4284.450549450549,4220.527472527472,8
2024-06-15 13:32:43,0.01221730467,-0.008552113548,0.006108652335,-0.6584054828,-8.027758598,5.71974802,85.72413793103448,34.206896551724135,-74.51724137931035,-6097.551724137931,-4296.793103448276,4211.586206896552,8
2024-06-15 13:32:43,0.05986479297,-0.01588249579,-0.06475171447,-0.517147541,-8.240841866,5.870582581,-92.15384615384616,75.50549450549451,143.9230769230769,-6239.417582417583,-4456.505494505494,3978.912087912088,8
2024-06-15 13:32:43,0.05986479297,-0.01588249579,-0.06475171447,-0.517147541,-8.240841866,5.870582581,-125.96470588235294,104.91764705882352,-12.188235294117646,-6078.035294117647,-4470.517647058824,3974.035294117647,8
2024-06-15 13:32:44,0.1661553532,-0.07452555746,-0.109955743,-0.4596867263,-8.097189903,5.892130375,111.51724137931036,18.448275862068968,108.95402298850574,-6420.080459770115,-4429.689655172414,3989.9540229885056,8
2024-06-15 13:32:44,0.1661553532,-0.07452555746,-0.109955743,-0.4596867263,-8.097189903,5.892130375,81.51020408163265,87.57142857142857,74.6734693877551,-6281.2040816326535,-4441.163265306122,4000.571428571429,8
2024-06-15 13:32:44,-0.0293215327,-0.03909537569,-0.04520402849,-0.2992752194,-8.113949776,5.865794182,42.46875,96.78125,43.90625,-6118.1875,-4447.34375,4014.21875,8
2024-06-15 13:32:44,-0.05497787148,-0.008552113548,0.01343903504,-0.2920926213,-8.264783859,5.810727596,3.216867469879517,108.49397590361446,91.90361445783132,-6129.710843373494,-4434.9277108433735,4012.734939759036,8
2024-06-15 13:32:44,-0.05497787148,-0.008552113548,0.01343903504,-0.2920926213,-8.264783859,5.810727596,-311.0689655172414,82.86206896551724,48.93103448275862,-6385.6551724137935,-4392.206896551724,3993.344827586207,8
2024-06-15 13:32:44,-0.3090978265,-0.04886921868,0.0109955743,-0.1867477298,-8.535328865,5.600037575,-332.4482758620689,80.10344827586206,47.55172413793103,-6198.758620689655,-4396.344827586207,4000.2413793103447,8
2024-06-15 13:32:44,-0.1527163088,-0.0232128799,-0.0415388383,-0.2394201756,-8.489839554,5.116408825,-299.1604938271605,-80.50617283950618,30.395061728395063,-6121.283950617284,-4466.222222222223,3983.777777777778,8
2024-06-15 13:32:44,-0.1527163088,-0.0232128799,-0.0415388383,-0.2394201756,-8.489839554,5.116408825,-313.0,-31.40000000000001,58.2,-6124.2,-4236.0,4211.0,8
2024-06-15 13:32:44,-0.1123992056,-0.006108652335,-0.009773843922,-0.215478152,-8.647856712,5.037400246,-291.77272727272725,112.5340909090909,44.70454545454545,-6131.886363636364,-4237.704545454545,4198.568181818182,8
2024-06-15 13:32:44,-0.1123992056,-0.006108652335,-0.009773843922,-0.215478152,-8.647856712,5.037400246,-104.73626373626374,91.45054945054945,24.48351648351648,-6132.010989010989,-4250.054945054945,4185.010989010989,8
2024-06-15 13:32:45,-0.06719517708,-0.01466076635,-0.01343903504,-0.1915361285,-8.813055992,4.90571928,12.261363636363637,74.26136363636364,51.03409090909091,-6130.443181818182,-4250.306818181818,4202.920454545455,8
2024-06-15 13:32:45,0.05986479297,-0.01221730467,-0.004886921961,-0.1867477298,-8.750806808,4.865017891,61.977777777777774,-69.24444444444444,-217.6222222222222,-6358.133333333333,-4264.688888888889,4008.866666666667,8
2024-06-15 13:32:45,0.05986479297,-0.01221730467,-0.004886921961,-0.1867477298,-8.750806808,4.865017891,-257.17241379310343,54.62068965517241,-329.0689655172414,-6073.517241379311,-4469.0,4194.482758620689,8
2024-06-15 13:32:45,0.106290549,0.004886921961,-0.02443460934,-0.1388636976,-8.767566681,4.963180065,75.35227272727272,83.68181818181819,42.30681818181818,-6069.863636363636,-4300.034090909091,4184.136363636364,8
2024-06-15 13:32:45,-0.01466076635,-0.02809980139,-0.007330383174,-0.107739076,-8.671798706,5.111620426,-72.98863636363637,-79.30681818181819,100.875,-6098.511363636364,-4270.613636363636,3991.875,8
2024-06-15 13:32:45,-0.01466076635,-0.02809980139,-0.007330383174,-0.107739076,-8.671798706,5.111620426,85.29347826086956,110.46739130434784,97.96739130434784,-6090.434782608696,-4415.782608695652,3998.358695652174,8
2024-06-15 13:32:45,0.009773843922,-0.009773843922,-0.01832595654,-0.1292868853,-9.069235802,4.65193367,17.908045977011493,-100.5632183908046,57.45977011494253,-6097.287356321839,-4268.0,4071.919540229885,8
2024-06-15 13:32:45,0.009773843922,-0.009773843922,-0.01832595654,-0.1292868853,-9.069235802,4.65193367,5.386503067484663,-60.5521472392638,84.61349693251533,-6118.331288343558,-4269.380368098159,4206.766871165644,8
2024-06-15 13:32:45,0.04520402849,-0.01221730467,-0.02199114859,-0.07422025502,-8.925583839,4.812345505,12.748466257668712,86.07361963190183,77.25153374233129,-6110.355828220859,-4252.815950920245,4197.564417177914,8
2024-06-15 13:32:45,0.03787364438,-0.01343903504,-0.0109955743,-0.1364694983,-8.7843256,4.764461517,-259.67469879518075,73.22891566265059,2.5783132530120483,-6315.795180722892,-4434.734939759036,4042.4337349397592,8
2024-06-15 13:32:46,0.03787364438,-0.01343903504,-0.0109955743,-0.1364694983,-8.7843256,4.764461517,-512.3181818181818,10.204545454545451,-214.6590909090909,-6114.0,-4343.363636363636,4150.931818181818,8
2024-06-15 13:32:46,0.03176499158,-0.008552113548,-0.01221730467,-0.09097966552,-8.84896946,4.836287498,-170.0,-85.37037037037038,-427.5185185185185,-6042.037037037037,-4647.888888888889,3936.6296296296296,8
2024-06-15 13:32:46,0.00244346098,-0.008552113548,-0.0109955743,-0.08140286058,-8.853757858,4.79079771,17.436781609195403,40.44827586206897,-323.9655172413793,-6247.873563218391,-4529.310344827586,4114.96551724138,8
2024-06-15 13:32:46,0.00244346098,-0.008552113548,-0.0109955743,-0.08140286058,-8.853757858,4.79079771,-20.935483870967744,-318.03225806451616,22.35483870967742,-6090.612903225807,-4534.645161290323,4107.096774193548,8
2024-06-15 13:32:46,-0.007330383174,-0.007330383174,0.006108652335,-0.06703764945,-8.77235508,4.826710701,86.56470588235294,-87.97647058823529,-163.18823529411765,-6082.729411764706,-4497.858823529412,4152.941176470588,8
2024-06-15 13:32:46,-0.007330383174,-0.007330383174,0.006108652335,-0.06703764945,-8.77235508,4.826710701,25.91860465116279,-297.72093023255815,-276.1162790697674,-5831.209302325581,-4502.453488372093,4199.383720930233,8
2024-06-15 13:32:46,0.1123992056,-0.01466076635,-0.006108652335,-0.0359130241,-8.904036522,4.838681698,-12.318181818181811,89.3409090909091,-83.70454545454545,-6185.25,-4500.068181818182,4022.159090909091,8
2024-06-15 13:32:46,0.1466076523,-0.01221730467,0.0293215327,-0.1029506698,-8.714894295,5.080495834,13.181818181818189,-271.6363636363636,-13.454545454545457,-5983.727272727273,-4667.545454545455,4046.636363636364,8
2024-06-15 13:32:46,0.1466076523,-0.01221730467,0.0293215327,-0.1029506698,-8.714894295,5.080495834,-338.0,31.2,58.5,-5859.4,-4567.3,4012.0,8
2024-06-15 13:32:46,0.0232128799,-0.008552113548,0.01343903504,-0.08858546615,-8.796297073,5.011064053,0.4285714285714448,81.0,76.14285714285714,-6158.285714285715,-4506.714285714285,3997.0,8
2024-06-15 13:32:47,0.02076941915,-0.01832595654,0.00244346098,-0.08858546615,-8.564059258,5.039794445,74.20454545454545,62.18181818181818,-88.56818181818181,-6168.522727272727,-4709.045454545455,4012.7045454545455,8
2024-06-15 13:32:47,0.02076941915,-0.01832595654,0.00244346098,-0.08858546615,-8.564059258,5.039794445,7.655172413793103,78.63218390804597,315.8045977011494,-6198.206896551724,-4656.850574712644,4024.8275862068967,8
2024-06-15 13:32:47,0.1441642046,-0.01221730467,-0.01954768784,-0.2346317619,-8.46589756,5.056553841,-341.27272727272725,26.818181818181817,185.0909090909091,-6247.272727272727,-4637.090909090909,4053.4545454545455,8
2024-06-15 13:32:47,0.1441642046,-0.01221730467,-0.01954768784,-0.2346317619,-8.46589756,5.056553841,-337.04285714285714,42.49285714285714,168.22142857142856,-6231.7357142857145,-4340.535714285715,4041.85,8
2024-06-15 13:32:47,0.0354301855,0.02076941915,0.1673770845,-0.1556231081,-8.714894295,5.111620426,-324.1857142857143,44.635714285714286,151.79285714285714,-6061.021428571428,-4329.821428571428,4036.85,8
2024-06-15 13:32:47,-0.5852088928,-0.01343903504,0.3640756905,-0.4165911078,-8.518569946,5.250484467,79.63157894736842,70.48421052631579,285.2842105263158,-6054.494736842105,-4279.357894736842,4030.947368421053,8
2024-06-15 13:32:47,-0.5852088928,-0.01343903504,0.3640756905,-0.4165911078,-8.518569946,5.250484467,51.0,115.4,178.2,-6068.4,-4386.4,4016.2,8
2024-06-15 13:32:47,0.381179899,0.1075122803,0.4923573732,-0.8523358107,-8.951920509,5.633556366,81.33103448275862,-99.61379310344827,338.85517241379307,-6085.641379310345,-4458.793103448276,4055.710344827586,8
2024-06-15 13:32:47,-0.2125810981,0.4068362415,0.6890559793,-2.094926596,-8.710105896,5.786785603,-82.17647058823529,6.117647058823536,723.4705882352941,-6303.0,-4208.64705882353,4049.470588235294,8
2024-06-15 13:32:47,-0.2125810981,0.4068362415,0.6890559793,-2.094926596,-8.710105896,5.786785603,93.53571428571428,53.57142857142857,-12.178571428571445,-6519.035714285715,-4168.214285714285,4088.0,8
2024-06-15 13:32:48,0.08429940045,0.4911356568,0.9712757468,-3.622427225,-8.530540466,5.5042696,101.5909090909091,-81.26136363636364,17.09090909090909,-6464.568181818182,-4180.261363636364,4381.238636363636,8
2024-06-15 13:32:48,0.08429940045,0.4911356568,0.9712757468,-3.622427225,-8.530540466,5.5042696,124.9090909090909,5.9090909090909065,67.0,-6427.090909090909,-4181.0,4130.272727272727,8
2024-06-15 13:32:48,0.6072000265,0.7440338731,1.131322384,-4.608838081,-6.490680695,4.759673119,124.11363636363636,179.4318181818182,-85.75,-6299.977272727273,-4170.659090909091,4074.318181818182,8
2024-06-15 13:32:48,0.2700024247,0.5998696685,0.7574729323,-6.069301128,-4.683058739,4.436455727,-79.92178770949721,-39.48603351955308,-44.960893854748605,-6328.849162011174,-4135.379888268157,4049.3128491620114,8
2024-06-15 13:32:48,0.2700024247,0.5998696685,0.7574729323,-6.069301128,-4.683058739,4.436455727,-106.73743016759776,-29.98882681564245,-58.36871508379888,-6466.2793296089385,-4133.703910614525,4042.050279329609,8
2024-06-15 13:32:48,0.4214970171,0.1209513173,0.3665191531,-6.629544735,-4.170699596,4.532223701,25.67441860465117,71.52325581395348,-13.70930232558139,-6357.662790697675,-3810.720930232558,4052.0348837209294,8
2024-06-15 13:32:48,0.04398229718,0.07819075137,0.3787364662,-7.970297337,-4.237737179,4.027047157,91.17441860465117,-116.30232558139537,32.33720930232558,-6358.406976744186,-3820.5348837209294,4055.4651162790697,8
2024-06-15 13:32:48,0.04398229718,0.07819075137,0.3787364662,-7.970297337,-4.237737179,4.027047157,60.92941176470588,-38.670588235294105,-300.08235294117645,-6317.376470588235,-3808.776470588236,4069.211764705882,8
2024-06-15 13:32:48,0.02199114859,-0.03176499158,0.3005456924,-7.953537941,-3.627215624,4.005499363,108.08888888888887,-44.8,53.48888888888889,-6340.444444444444,-3757.844444444445,4054.6222222222223,8
2024-06-15 13:32:48,0.02199114859,-0.03176499158,0.3005456924,-7.953537941,-3.627215624,4.005499363,-335.35555555555555,414.5777777777778,37.13333333333333,-6286.477777777778,-3855.488888888889,4019.711111111111,8
2024-06-15 13:32:49,0.4361577928,-0.125838235,0.2773328125,-8.063671112,-2.619256735,4.481945515,75.38297872340425,149.06382978723406,-159.1063829787234,-6540.787234042553,-4149.574468085107,4162.68085106383,8
2024-06-15 13:32:49,0.09773843735,0.03665191308,0.1869247705,-8.111555099,-2.140416384,5.02064085,84.60283687943263,256.1560283687943,-326.4822695035461,-6539.368794326241,-4146.737588652482,4160.553191489362,8
2024-06-15 13:32:49,0.09773843735,0.03665191308,0.1869247705,-8.111555099,-2.140416384,5.02064085,75.38372093023256,42.872093023255815,-195.7674418604651,-6338.069767441861,-4186.174418604651,4114.930232558139,8
2024-06-15 13:32:49,0.342084527,0.05864306539,0.1429424733,-8.190564156,-2.066195965,4.771644115,66.56818181818181,-31.63636363636364,-172.25,-6509.659090909091,-4203.113636363636,4119.386363636364,8
2024-06-15 13:32:49,-0.07819075137,0.05253441259,0.05375614017,-8.293514252,-1.685518026,4.467580318,8.441558441558442,69.92857142857143,-277.987012987013,-6367.681818181818,-3977.0,4121.954545454545,8
2024-06-15 13:32:49,-0.07819075137,0.05253441259,0.05375614017,-8.293514252,-1.685518026,4.467580318,14.935064935064934,5.642857142857139,-157.2077922077922,-6308.590909090909,-3977.0,4099.227272727273,8
2024-06-15 13:32:49,0.2052507252,0.01466076635,0.01832595654,-8.245630264,-1.546654344,4.525041103,70.45454545454545,80.45454545454545,-142.8181818181818,-6277.818181818182,-4026.818181818182,4129.681818181818,8
2024-06-15 13:32:49,0.2052507252,0.01466076635,0.01832595654,-8.245630264,-1.546654344,4.525041103,75.91954022988506,-98.33333333333334,-321.81609195402297,-6360.390804597701,-4028.356321839081,4151.850574712644,8
2024-06-15 13:32:49,0.08063421398,-0.009773843922,0.06719517708,-8.317456245,-1.541865945,4.489128113,-263.34831460674155,64.49438202247191,83.47191011235955,-6527.213483146067,-4095.561797752809,4185.887640449439,8
2024-06-15 13:32:49,0.05986479297,-0.008552113548,0.04764748737,-8.267178535,-1.161187768,4.853046894,-300.3333333333333,95.33333333333331,-39.0,-6285.166666666667,-4069.0,4162.166666666667,8
2024-06-15 13:32:50,0.05986479297,-0.008552113548,0.04764748737,-8.267178535,-1.161187768,4.853046894,-360.6896551724138,-261.55172413793105,-279.2758620689655,-6451.551724137931,-4086.8275862068967,4152.931034482759,8
2024-06-15 13:32:50,0.2858849466,0.008552113548,0.07819075137,-8.310274124,-1.122880578,4.637568474,-275.7191011235955,-284.2022471910112,-231.9438202247191,-6280.426966292135,-4083.179775280899,4173.595505617977,8
2024-06-15 13:32:50,0.3274237812,0.03909537569,0.07819075137,-8.38928318,-0.6392518282,4.599261284,-214.04651162790697,-524.2558139534884,16.69767441860465,-6429.953488372093,-4407.023255813953,4195.116279069767,8
2024-06-15 13:32:50,0.3274237812,0.03909537569,0.07819075137,-8.38928318,-0.6392518282,4.599261284,-184.5057471264368,-361.7701149425287,57.04597701149425,-6129.367816091954,-4477.896551724138,3991.206896551724,8
2024-06-15 13:32:50,0.1527163088,0.007330383174,0.04276056588,-8.379706383,-0.7805097699,4.568136692,-200.1818181818182,-356.27272727272725,-208.9090909090909,-6065.090909090909,-4300.454545454545,4210.545454545455,8
2024-06-15 13:32:50,0.1808161139,0.009773843922,0.0109955743,-8.418013573,-0.1987187415,4.75488472,-488.9550561797753,-221.1123595505618,-21.775280898876417,-6183.741573033708,-4432.303370786517,3982.314606741573,8
2024-06-15 13:32:50,0.1808161139,0.009773843922,0.0109955743,-8.418013573,-0.1987187415,4.75488472,-377.6363636363636,-333.09090909090907,309.3636363636364,-6078.212121212121,-4277.969696969697,3977.4545454545455,8
2024-06-15 13:32:50,0.09407325089,0.0109955743,0.0171042271,-8.501810074,-0.08619125932,4.589684486,-224.13333333333333,-91.66666666666669,187.26666666666668,-6125.733333333334,-4313.4,3853.933333333333,8
2024-06-15 13:32:50,0.09407325089,0.0109955743,0.0171042271,-8.501810074,-0.08619125932,4.589684486,-274.8314606741573,17.044943820224717,589.123595505618,-6465.258426966292,-4288.528089887641,3883.011235955056,8
2024-06-15 13:32:50,0.1282816976,-0.04031710699,-0.0109955743,-8.494627953,0.0359130241,4.778826714,37.27777777777778,357.8888888888889,242.44444444444449,-6502.666666666667,-4445.222222222223,4123.222222222223,8
2024-06-15 13:32:51,0.04031710699,-0.003665191587,0.01588249579,-8.379706383,-0.2346317619,4.690241337,-322.17241379310343,227.9310344827586,-299.8965517241379,-6435.758620689655,-4053.2758620689656,3940.655172413793,8
2024-06-15 13:32:51,0.04031710699,-0.003665191587,0.01588249579,-8.379706383,-0.2346317619,4.690241337,-292.9318181818182,34.69318181818182,-103.73863636363636,-6320.215909090909,-4037.159090909091,3810.090909090909,8
2024-06-15 13:32:51,0.2419026345,-0.00122173049,0.007330383174,-8.458714485,0.1244984865,4.458003521,-343.5280898876405,46.87640449438202,-46.82022471910112,-6380.23595505618,-4031.6067415730336,3754.494382022472,8
2024-06-15 13:32:51,0.2419026345,-0.00122173049,0.007330383174,-8.458714485,0.1244984865,4.458003521,-369.4418604651163,57.81395348837209,-35.325581395348834,-6347.2558139534885,-4074.372093023256,3726.9767441860463,8
2024-06-15 13:32:51,0.07574728876,-0.007330383174,0.0354301855,-8.489839554,-0.1316810995,4.527435303,-341.24418604651163,70.47674418604652,-100.69767441860463,-6336.302325581395,-4080.6627906976746,3960.848837209304,8
2024-06-15 13:32:51,0.1942551434,-0.01221730467,0.01466076635,-8.506598473,0.2513911724,4.364629745,15.0,8.853932584269664,-52.640449438202246,-6388.539325842697,-4039.325842696629,3953.752808988764,8
2024-06-15 13:32:51,0.1942551434,-0.01221730467,0.01466076635,-8.506598473,0.2513911724,4.364629745,-120.68888888888888,-287.46666666666664,182.6,-6365.111111111111,-4022.511111111111,3728.222222222222,8
2024-06-15 13:32:51,-0.02199114859,-0.01466076635,0.006108652335,-8.444349289,0.2537853718,4.493916512,-97.38095238095238,87.27380952380952,-64.83333333333333,-6393.642857142857,-4010.904761904762,3781.130952380952,8
2024-06-15 13:32:51,0.0,-0.06963863969,-0.04031710699,-8.564059258,0.3136404157,4.465186119,-79.21621621621621,-83.25675675675676,-92.8108108108108,-6447.189189189189,-4161.567567567568,3804.662162162162,8
2024-06-15 13:32:51,0.0,-0.06963863969,-0.04031710699,-8.564059258,0.3136404157,4.465186119,-95.43243243243244,-65.01351351351352,-53.62162162162162,-6636.378378378378,-4129.135135135135,3791.824324324324,8
2024-06-15 13:32:52,-0.1014036313,-0.05619960278,-0.07330382615,-8.353369713,-0.2681505978,4.481945515,98.89655172413794,59.82758620689656,-55.58620689655172,-6709.0,-3953.689655172414,4107.344827586207,8
2024-06-15 13:32:52,-0.1014036313,-0.05619960278,-0.07330382615,-8.398859978,-0.2178723514,4.86980629,14.4,-27.635294117647064,39.56470588235294,-6501.764705882353,-4113.658823529412,3946.2,8
2024-06-15 13:32:52,-0.05742133409,-0.07330382615,-0.1014036313,-8.398859978,-0.2178723514,4.86980629,-299.7303370786517,-66.24719101123596,-323.35955056179773,-6728.191011235955,-4028.0,3801.741573033708,8
2024-06-15 13:32:52,-0.3836233616,-0.08674286306,-0.1466076523,-8.382100105,-0.4740519226,4.697423935,-357.3636363636364,47.04545454545455,65.77272727272727,-6753.363636363636,-4134.272727272727,3774.090909090909,8
2024-06-15 13:32:52,-0.3836233616,-0.08674286306,-0.1466076523,-8.382100105,-0.4740519226,4.697423935,-316.35164835164835,10.087912087912088,64.0989010989011,-6722.989010989011,-4120.56043956044,3751.725274725274,8
2024-06-15 13:32:52,-0.676838696,-0.1246165112,-0.2981022298,-8.202534676,-0.7182605267,4.685452938,69.02597402597402,74.58441558441558,90.57142857142856,-6715.545454545455,-4088.350649350649,3766.6753246753246,8
2024-06-15 13:32:52,-0.9688322544,-0.2541199327,-0.8051204085,-7.668628216,-1.908178806,4.42209053,52.79220779220779,34.324675324675326,-16.57142857142857,-6724.636363636364,-3894.194805194805,3794.5974025974015,8
2024-06-15 13:32:52,-0.9688322544,-0.2541199327,-0.8051204085,-7.668628216,-1.908178806,4.42209053,42.36363636363637,62.45454545454545,-29.545454545454547,-6699.090909090909,-3813.272727272728,4111.363636363636,8
2024-06-15 13:32:52,-0.4703662395,-0.5351179838,-1.325577617,-6.186617374,-3.56736064,4.759673119,60.42696629213483,-105.14606741573034,-7.539325842696627,-6730.966292134832,-3776.41573033708,4108.595505617977,8
2024-06-15 13:32:52,-1.073901057,-0.8857545853,-1.451415777,-4.594472885,-7.65186882,4.367023945,67.42391304347827,89.07608695652173,87.80434782608695,-6726.239130434783,-3758.554347826087,4113.510869565217,8
2024-06-15 13:32:53,-1.073901057,-0.8857545853,-1.451415777,-4.594472885,-7.65186882,4.367023945,83.6,-11.400000000000006,118.0,-6730.8,-3738.6,4134.0,8
2024-06-15 13:32:53,0.1087340117,-0.634078145,-0.9859365225,-3.581725836,-8.576030731,5.614402771,47.0,-44.75,85.5,-6766.5,-3725.5,3909.25,8
2024-06-15 13:32:53,0.1087340117,-0.634078145,-0.9859365225,-3.581725836,-8.576030731,5.614402771,-280.03370786516854,-53.1123595505618,80.9438202247191,-6570.033707865168,-3744.977528089888,3806.6516853932585,8
2024-06-15 13:32:53,0.334754169,-0.5241223574,-0.3396410644,-1.812410712,-9.143456459,5.573701382,26.25,115.4090909090909,85.89772727272727,-6778.102272727273,-3778.727272727273,3787.272727272728,8
2024-06-15 13:32:53,-0.6218608022,-0.2296853364,-0.2150245607,-0.7469909191,-8.468291283,5.72214222,101.6279069767442,-128.0,118.46511627906976,-6548.441860465116,-3739.116279069768,3790.604651162791,8
2024-06-15 13:32:53,-0.6218608022,-0.2296853364,-0.2150245607,-0.7469909191,-8.468291283,5.72214222,85.16666666666667,-80.5,80.0,-6536.833333333333,-3967.1666666666665,3810.6666666666665,8
2024-06-15 13:32:53,0.1123992056,-0.006108652335,0.08307767659,-0.7158663273,-8.267178535,5.497087002,80.6896551724138,-108.03448275862068,105.96551724137932,-6543.931034482759,-3939.137931034483,3811.586206896552,8
2024-06-15 13:32:53,0.1123992056,-0.006108652335,0.08307767659,-0.7158663273,-8.267178535,5.497087002,27.727272727272727,-28.227272727272734,72.95454545454545,-6549.363636363636,-3851.272727272728,3823.818181818182,8
2024-06-15 13:32:53,-0.08429940045,-0.03909537569,-0.1441642046,-0.5889736414,-8.470685959,5.480327606,45.17857142857143,119.46428571428572,16.214285714285715,-6543.392857142857,-3948.369047619048,3812.464285714286,8
2024-06-15 13:32:53,0.3054326177,-0.1368338168,-0.02565634064,-0.6009446383,-8.101978302,5.760449409,43.392857142857146,124.82142857142856,34.07142857142857,-6559.464285714285,-3951.345238095238,3817.821428571429,8
2024-06-15 13:32:54,0.3054326177,-0.1368338168,-0.02565634064,-0.6009446383,-8.101978302,5.760449409,41.88372093023256,93.2906976744186,66.5813953488372,-6549.930232558139,-3941.616279069768,3821.5232558139537,8
2024-06-15 13:32:54,0.08674286306,-0.09040805697,-0.02199114859,-0.3423708379,-8.066065788,5.968744755,23.27586206896552,-84.37931034482759,80.96551724137932,-6741.206896551724,-3957.8275862068967,3812.0689655172414,8
2024-06-15 13:32:54,-0.01588249579,-0.0171042271,-0.01466076635,-0.4357447028,-7.903259754,5.863399982,40.35164835164835,-119.3846153846154,82.56043956043956,-6562.648351648351,-3933.175824175824,3816.78021978022,8
2024-06-15 13:32:54,-0.01588249579,-0.0171042271,-0.01466076635,-0.4357447028,-7.903259754,5.863399982,28.874213836477985,-119.57232704402516,58.84905660377358,-6550.861635220126,-3949.572327044025,3796.987421383648,8
2024-06-15 13:32:54,-0.05253441259,-0.006108652335,-0.01954768784,-0.3088520169,-7.943961143,5.975927353,32.644444444444446,58.63333333333333,101.52222222222224,-6542.377777777778,-3946.6,3816.033333333333,8
2024-06-15 13:32:54,-0.05253441259,-0.006108652335,-0.01954768784,-0.3088520169,-7.943961143,5.975927353,30.27272727272728,-49.227272727272734,64.2840909090909,-6561.613636363636,-3930.284090909091,3801.409090909091,8
2024-06-15 13:32:54,-0.08429940045,-0.006108652335,-0.04276056588,-0.282515794,-8.03494072,5.892130375,29.22222222222222,100.72222222222224,84.16666666666667,-6556.555555555556,-3925.3333333333335,3797.0,8
2024-06-15 13:32:54,-0.1942551434,-0.006108652335,0.02199114859,-0.4022258818,-8.233659744,5.777208805,32.58139534883721,-4.9302325581395365,54.093023255813954,-6571.069767441861,-3933.5348837209294,3789.604651162791,8
2024-06-15 13:32:54,-0.1942551434,-0.006108652335,0.02199114859,-0.4022258818,-8.233659744,5.777208805,40.34782608695652,94.56521739130434,53.34782608695652,-6561.0,-3935.695652173913,3796.391304347826,8
2024-06-15 13:32:54,-0.003665191587,-0.03787364438,-0.08918632567,-0.2274491638,-8.319850922,5.676652431,44.54545454545455,98.36363636363636,66.27272727272728,-6560.272727272727,-3929.818181818182,3801.363636363637,8
2024-06-15 13:32:55,-0.01343903504,-0.00122173049,0.04276056588,0.0143652102,-8.303091049,5.568912983,64.86206896551724,96.58620689655172,104.44827586206895,-6557.172413793103,-3917.96551724138,3825.620689655173,8
2024-06-15 13:32:55,-0.01343903504,-0.00122173049,0.04276056588,0.0143652102,-8.303091049,5.568912983,34.7032967032967,-87.13186813186815,98.978021978022,-6565.780219780219,-3892.164835164835,3803.5494505494494,8
2024-06-15 13:32:55,-0.02687807009,-0.01221730467,0.02565634064,-0.2178723514,-8.422801971,5.535394192,-244.0,-58.77777777777778,-316.72222222222223,-6557.777777777777,-3932.277777777778,3790.6666666666665,8
2024-06-15 13:32:55,0.01832595654,-0.01343903504,-0.01221730467,-0.1125274822,-8.224082947,5.61919117,-214.19540229885047,-45.11494252873563,-322.5632183908046,-6736.333333333333,-3919.942528735632,3768.091954022989,8
2024-06-15 13:32:55,0.01832595654,-0.01343903504,-0.01221730467,-0.1125274822,-8.224082947,5.61919117,-372.9550561797753,197.56179775280896,-61.78651685393258,-6723.303370786517,-3873.438202247191,3752.112359550562,8
2024-06-15 13:32:55,0.008552113548,-0.007330383174,-0.01954768784,-0.1867477298,-8.355764389,5.544970989,-351.3296703296703,26.01098901098901,-258.02197802197804,-6805.175824175824,-3753.186813186813,3827.329670329671,8
2024-06-15 13:32:55,0.008552113548,-0.007330383174,-0.01954768784,-0.1867477298,-8.355764389,5.544970989,-178.47058823529412,-290.4117647058824,-218.94117647058823,-6744.588235294118,-3787.764705882353,3893.5882352941176,8
2024-06-15 13:32:55,-0.03054326214,0.00122173049,-0.02687807009,-0.1723825186,-8.228871346,5.64552784,18.26143790849676,-311.3267973856209,-203.2549019607843,-6701.450980392156,-3769.4640522875816,3739.3398692810456,8
2024-06-15 13:32:55,-0.03298672289,-0.006108652335,-0.01954768784,-0.1628057212,-8.341399193,5.568912983,-291.1117318435754,104.55865921787708,-30.687150837988828,-6550.91061452514,-3777.111731843576,3755.3519553072624,8
2024-06-15 13:32:55,-0.03298672289,-0.006108652335,-0.01954768784,-0.1628057212,-8.341399193,5.568912983,-294.463687150838,121.31843575418996,-41.30167597765363,-6568.229050279329,-3780.463687150838,3755.91061452514,8
2024-06-15 13:32:56,-0.008552113548,-0.009773843922,0.007330383174,-0.1388636976,-8.418013573,5.418078423,-269.42857142857144,94.2077922077922,-379.987012987013,-6546.532467532467,-3830.6623376623374,3858.077922077922,8
2024-06-15 13:32:56,-0.008552113548,-0.009773843922,0.007330383174,-0.1388636976,-8.418013573,5.418078423,-64.9753086419753,55.01234567901234,-319.30864197530866,-6672.666666666667,-4145.691358024691,3899.962962962963,8
2024-06-15 13:32:56,0.004886921961,-0.02076941915,-0.00244346098,-0.1580173075,-8.463502884,5.497087002,-5.689655172413794,52.2528735632184,-271.85057471264366,-6753.551724137931,-3814.850574712644,3786.448275862069,8
2024-06-15 13:32:56,-0.02809980139,-0.009773843922,0.008552113548,-0.1197100878,-8.35097599,5.406107426,-10.0,57.06741573033708,-310.438202247191,-6717.067415730337,-3781.3932584269664,3809.280898876405,8
2024-06-15 13:32:56,-0.02809980139,-0.009773843922,0.008552113548,-0.1197100878,-8.35097599,5.406107426,-4.146067415730336,-88.56179775280899,-286.23595505617976,-6592.224719101124,-3748.977528089888,4118.056179775281,8
2024-06-15 13:32:56,0.01221730467,-0.007330383174,0.004886921961,-0.09816227108,-8.398859978,5.583278179,36.73033707865169,-125.12359550561796,-285.6741573033708,-6569.2808988764045,-3773.6516853932585,4175.359550561798,8
2024-06-15 13:32:56,0.02199114859,-0.0109955743,-0.009773843922,-0.1651999205,-8.403648376,5.470750809,-310.09090909090907,7.613636363636363,-227.20454545454547,-6701.295454545455,-3993.840909090909,4167.772727272727,8
2024-06-15 13:32:56,0.02199114859,-0.0109955743,-0.009773843922,-0.1651999205,-8.403648376,5.470750809,-282.1034482758621,27.620689655172413,-209.55172413793105,-6351.206896551724,-4154.413793103448,4151.344827586207,8
2024-06-15 13:32:56,0.01588249579,-0.00122173049,0.04764748737,-0.3327940404,-8.482656479,5.607220173,-299.24719101123594,41.26966292134831,-196.5056179775281,-6371.202247191011,-4194.719101123596,4146.168539325843,8
2024-06-15 13:32:56,-0.01954768784,-0.01343903504,0.05986479297,-0.174776718,-8.456320763,5.470750809,39.6,-99.4111111111111,-177.45555555555555,-6341.166666666667,-4015.5,4112.844444444445,8
2024-06-15 13:32:57,-0.01954768784,-0.01343903504,0.05986479297,-0.174776718,-8.456320763,5.470750809,-58.97752808988764,-65.91011235955057,-583.2696629213483,-6288.786516853933,-4057.7977528089887,4113.460674157303,8
2024-06-15 13:32:57,0.1038470939,-0.0415388383,-0.02687807009,-0.02633621916,-8.525752068,5.310339451,-49.74712643678161,-103.40229885057472,-222.3563218390805,-6356.390804597701,-4041.022988505747,4168.448275862069,8
2024-06-15 13:32:57,0.1038470939,-0.0415388383,-0.02687807009,-0.02633621916,-8.525752068,5.310339451,-110.69662921348316,22.50561797752809,-309.7865168539326,-6465.786516853933,-4158.775280898876,4183.887640449439,8
2024-06-15 13:32:57,-0.1600466967,-0.008552113548,0.1368338168,-0.2729389966,-8.293514252,5.497087002,-90.62962962962963,-63.68518518518518,-366.54938271604937,-6471.314814814815,-4300.246913580247,4216.716049382716,8
2024-06-15 13:32:57,-0.1026253626,-0.00122173049,0.02565634064,-0.2944868207,-8.360552788,5.379771233,-86.92592592592592,-65.53703703703704,-343.7098765432099,-6469.462962962963,-4136.049382716049,4210.543209876543,8
2024-06-15 13:32:57,-0.1026253626,-0.00122173049,0.02565634064,-0.2944868207,-8.360552788,5.379771233,101.49411764705884,54.01176470588236,-374.1294117647059,-6444.952941176471,-4372.282352941176,4130.905882352941,8
2024-06-15 13:32:57,0.03665191308,-0.01343903504,-0.006108652335,-0.2178723514,-8.513781548,5.343858242,62.66666666666666,-95.5,-319.3888888888889,-6218.166666666667,-4440.111111111111,4207.388888888889,8
2024-06-15 13:32:57,0.009773843922,-0.006108652335,-0.00244346098,-0.2035071403,-8.46589756,5.437232018,37.15384615384616,-55.57692307692308,-318.78846153846155,-6262.025641025641,-4327.01282051282,4193.852564102564,8
2024-06-15 13:32:57,0.009773843922,-0.006108652335,-0.00244346098,-0.2035071403,-8.46589756,5.437232018,-116.89473684210526,97.15789473684212,-264.7894736842105,-6437.8421052631575,-4427.789473684211,4205.894736842105,8
2024-06-15 13:32:57,0.007330383174,-0.0109955743,-0.00244346098,-0.2585737705,-8.43956089,5.437232018,73.45833333333333,60.489583333333336,-357.7604166666667,-6381.239583333333,-4421.260416666667,3984.4583333333335,8
2024-06-15 13:32:58,0.007330383174,-0.0109955743,-0.00244346098,-0.2585737705,-8.43956089,5.437232018,80.48780487804878,84.09756097560975,-341.1463414634146,-6115.0,-4472.609756097561,3997.6341463414633,8
2024-06-15 13:32:58,-0.006108652335,-0.01588249579,0.004886921961,-0.2561795712,-8.446743965,5.415684223,90.26436781609196,106.4367816091954,-298.55172413793105,-6080.862068965517,-4400.0344827586205,4010.287356321839,8
2024-06-15 13:32:58,0.004886921961,-0.01588249579,-0.00244346098,-0.2585737705,-8.473079681,5.336675644,83.57142857142857,26.85714285714286,-170.65934065934067,-6076.087912087912,-4258.263736263736,4012.538461538461,8
2024-06-15 13:32:58,0.004886921961,-0.01588249579,-0.00244346098,-0.2585737705,-8.473079681,5.336675644,-28.684782608695656,-15.967391304347828,-298.45652173913044,-6062.5,-4253.336956521739,4000.989130434784,8
2024-06-15 13:32:58,0.01221730467,-0.01588249579,0.0,-0.3064578176,-8.425195694,5.363011837,37.04761904761905,-111.23809523809524,-322.42857142857144,-6034.523809523809,-4270.666666666667,3993.238095238096,8
2024-06-15 13:32:58,0.01221730467,-0.01343903504,-0.007330383174,-0.2274491638,-8.360552788,5.406107426,69.86666666666667,-67.2,-292.33333333333337,-6048.133333333333,-4327.533333333334,4012.8,8
2024-06-15 13:32:58,0.01221730467,-0.01343903504,-0.007330383174,-0.2274491638,-8.360552788,5.406107426,104.33333333333331,-70.5,-320.5,-6032.666666666667,-4313.666666666667,4019.8333333333335,8
2024-06-15 13:32:58,0.00122173049,-0.0109955743,0.0,-0.2202665508,-8.406042099,5.410895824,9.356321839080463,115.33333333333334,16.436781609195407,-6033.954022988506,-4318.942528735633,4008.7241379310335,8
2024-06-15 13:32:58,0.00122173049,-0.0109955743,0.0,-0.2202665508,-8.406042099,5.410895824,40.42528735632184,80.91954022988506,17.517241379310345,-6045.413793103448,-4343.436781609195,4009.310344827586,8
2024-06-15 13:32:58,0.02443460934,-0.004886921961,-0.01588249579,-0.2729389966,-8.451532364,5.46596241,38.48780487804878,75.1951219512195,50.926829268292686,-6241.292682926829,-4613.609756097561,4005.4146341463415,8
2024-06-15 13:32:59,0.007330383174,-0.0171042271,0.007330383174,-0.2896983922,-8.305485725,5.461174011,41.53658536585366,76.41463414634147,44.21951219512195,-6093.121951219512,-4611.170731707317,4001.756097560976,8
2024-06-15 13:32:59,0.007330383174,-0.0171042271,0.007330383174,-0.2896983922,-8.305485725,5.461174011,-287.2857142857143,41.095238095238095,31.047619047619047,-6027.666666666667,-4325.857142857143,4024.4761904761904,8
2024-06-15 13:32:59,-0.0293215327,0.003665191587,0.03665191308,-0.1915361285,-8.413225174,5.561730385,-375.2705882352941,-280.3529411764706,39.55294117647059,-6153.341176470588,-4620.482352941176,4044.788235294118,8
2024-06-15 13:32:59,-0.1136209369,-0.02687807009,0.1295034289,-0.2753331959,-8.32463932,5.379771233,-280.27272727272725,-321.8181818181818,-63.45454545454545,-6190.636363636364,-4658.090909090909,4007.909090909091,8
2024-06-15 13:32:59,-0.1136209369,-0.02687807009,0.1295034289,-0.2753331959,-8.32463932,5.379771233,-93.1006289308176,-141.64150943396226,-69.41509433962264,-6203.176100628931,-4347.62893081761,4032.440251572327,8
2024-06-15 13:32:59,0.3054326177,0.3494149148,0.4508185387,-1.180341482,-9.689333916,5.774814606,-339.44444444444446,40.05555555555556,-34.33333333333333,-6018.611111111111,-4307.055555555556,4057.0,8
2024-06-15 13:32:59,0.3054326177,0.3494149148,0.4508185387,-1.180341482,-9.689333916,5.774814606,-534.3258426966293,98.62921348314607,-306.5842696629214,-6203.70786516854,-4615.314606741573,4023.629213483146,8
2024-06-15 13:32:59,0.0,0.7293730974,0.8894197941,-2.296039343,-8.925583839,5.413290024,-323.2528735632184,11.885057471264368,216.05747126436785,-6063.954022988506,-4317.0,4004.413793103448,8
2024-06-15 13:32:59,0.7904596329,0.3799581826,1.170417786,-3.773261786,-7.058106422,4.807557106,-203.0909090909091,392.27272727272725,212.72727272727272,-6258.0,-4352.181818181818,4011.636363636364,8
2024-06-15 13:32:59,0.7904596329,0.3799581826,1.170417786,-3.773261786,-7.058106422,4.807557106,65.86516853932585,1052.112359550562,-28.35955056179776,-6156.76404494382,-4299.786516853933,4040.85393258427,8
2024-06-15 13:33:00,-0.07574728876,0.5583308339,1.501506805,-5.037400246,-5.516240597,3.924096584,-315.40697674418607,777.9418604651163,329.72093023255815,-6359.220930232558,-4063.0232558139537,3811.081395348837,8
2024-06-15 13:33:00,-0.06841690838,0.3249803185,0.9712757468,-9.993397713,-5.458779812,4.893748283,-571.8333333333334,409.4555555555556,250.47777777777776,-6343.177777777778,-4331.9,3765.466666666666,8
2024-06-15 13:33:00,-0.06841690838,0.3249803185,0.9712757468,-9.993397713,-5.458779812,4.893748283,-606.6923076923077,647.4358974358975,183.3333333333333,-6405.358974358975,-4244.128205128205,3592.974358974359,8
2024-06-15 13:33:00,0.2260201424,-0.1075122803,0.3054326177,-7.860164165,-4.082113743,4.376600742,-525.0,342.6363636363636,-4.522727272727266,-6617.636363636364,-4268.181818181818,3353.1477272727275,8
2024-06-15 13:33:00,0.2260201424,-0.1075122803,0.3054326177,-7.860164165,-4.082113743,4.376600742,72.29411764705884,314.56470588235294,-45.12941176470588,-6566.717647058824,-4385.894117647059,3415.564705882353,8
2024-06-15 13:33:00,0.3298672438,0.0109955743,0.2565633953,-7.76679039,-3.265691042,4.544194698,-90.96703296703296,-187.9010989010989,219.5824175824176,-6713.175824175824,-4461.956043956044,3224.692307692308,8
2024-06-15 13:33:00,0.3958406746,0.01832595654,0.1282816976,-7.924807549,-2.875436306,4.400542736,335.60377358490564,-530.5283018867924,591.5283018867924,-6592.66037735849,-4354.358490566037,3496.943396226415,8
2024-06-15 13:33:00,0.3958406746,0.01832595654,0.1282816976,-7.924807549,-2.875436306,4.400542736,686.8333333333334,-222.66666666666663,848.3333333333334,-6999.5,-3482.1666666666665,3630.8333333333335,8
2024-06-15 13:33:00,0.2944370508,-0.00244346098,0.08552113175,-7.948749542,-2.657563925,4.580107689,727.1204819277109,-254.59036144578312,690.566265060241,-6836.421686746988,-3646.9036144578313,3819.3493975903616,8
2024-06-15 13:33:00,0.4068362415,-0.04398229718,0.1233947799,-7.963114738,-2.078166962,5.080495834,719.9457831325301,60.83132530120482,529.0542168674699,-6973.524096385542,-3421.367469879518,4135.21686746988,8
2024-06-15 13:33:01,0.4068362415,-0.04398229718,0.1233947799,-7.963114738,-2.078166962,5.080495834,816.933734939759,40.34939759036145,532.066265060241,-6969.307228915663,-3419.5602409638554,4147.265060240964,8
2024-06-15 13:33:01,0.09896016866,0.01588249579,0.09040805697,-7.948749542,-1.987187386,5.044582844,231.48275862068965,-59.55172413793103,240.51724137931035,-7006.379310344828,-3156.0,4202.793103448276,8
2024-06-15 13:33:01,0.09896016866,0.01588249579,0.09040805697,-7.948749542,-1.987187386,5.044582844,-192.75,-214.5,503.5,-6838.0,-3153.75,4035.0,8
2024-06-15 13:33:01,0.09162978828,0.02199114859,0.07574728876,-8.109161377,-1.946485996,4.912901878,-183.8314606741573,-195.85393258426967,413.48314606741576,-7130.876404494382,-2833.348314606741,4044.831460674157,8
2024-06-15 13:33:01,0.1295034289,0.01221730467,0.04764748737,-8.039729118,-1.719036818,5.023035049,-267.4482758620689,-340.2068965517241,559.6551724137931,-6883.6551724137935,-2800.0344827586205,4439.103448275862,8
2024-06-15 13:33:01,0.1295034289,0.01221730467,0.04764748737,-8.039729118,-1.719036818,5.023035049,139.38823529411764,273.83529411764704,-77.92941176470588,-6823.494117647058,-2920.823529411765,4352.247058823529,8
2024-06-15 13:33:01,0.03054326214,0.00244346098,0.0415388383,-8.185775757,-1.764526606,4.929661274,148.24137931034485,36.310344827586206,-7.310344827586206,-6875.206896551724,-2794.655172413793,4388.0344827586205,8
2024-06-15 13:33:01,0.3323107064,-0.009773843922,0.008552113548,-8.216899872,-1.434126854,4.951209068,300.42857142857144,315.2857142857143,-11.0,-6882.714285714285,-2833.5714285714284,4289.0,8
2024-06-15 13:33:01,0.3323107064,-0.009773843922,0.008552113548,-8.216899872,-1.434126854,4.951209068,286.54545454545456,511.77272727272725,199.3409090909091,-7203.227272727273,-2741.3636363636365,4102.5,8
2024-06-15 13:33:01,0.2199114859,0.00122173049,0.03909537569,-8.195352554,-1.18991828,4.874594688,379.2022471910112,305.8876404494382,607.3595505617977,-7368.157303370786,-2391.370786516854,4165.471910112359,8
2024-06-15 13:33:02,0.2199114859,0.00122173049,0.03909537569,-8.195352554,-1.18991828,4.874594688,192.3186813186813,244.7692307692308,664.032967032967,-7420.604395604396,-2272.8571428571427,4129.373626373626,8
2024-06-15 13:33:02,0.1954768747,0.01343903504,0.0354301855,-8.147468567,-1.07739079,5.02064085,314.2619047619048,305.07142857142856,789.8809523809524,-7325.642857142857,-1959.547619047619,4146.285714285715,8
2024-06-15 13:33:02,0.1588249654,0.01221730467,0.04520402849,-8.118738174,-0.7685387731,4.987122059,308.6060606060606,277.4121212121212,781.1333333333333,-7483.648484848485,-1954.957575757576,3986.212121212121,8
2024-06-15 13:33:02,0.1588249654,0.01221730467,0.04520402849,-8.118738174,-0.7685387731,4.987122059,176.625,302.9375,850.6875,-7274.1875,-1763.25,3769.625,8
2024-06-15 13:33:02,0.1404990107,0.02199114859,0.02809980139,-8.233659744,-0.7110779285,4.783615112,-510.5869565217391,2321.1847826086955,5750.152173913043,-6862.021739130435,-699.3152173913044,3626.608695652174,8
2024-06-15 13:33:02,0.09040805697,0.0109955743,0.04031710699,-8.183381081,-0.6440402865,4.912901878,901.7272727272727,2671.721212121212,6462.418181818181,-8221.4,642.1454545454545,3173.0060606060606,8
2024-06-15 13:33:02,0.09040805697,0.0109955743,0.04031710699,-8.183381081,-0.6440402865,4.912901878,992.6363636363636,2626.8727272727274,6429.690909090909,-8281.4,800.3272727272727,3108.7636363636366,8
2024-06-15 13:33:02,0.1441642046,0.01221730467,0.03420845419,-8.281543732,-0.7062895298,4.814739704,1435.3218390804598,1860.0,4777.528735632184,-8035.114942528736,3007.1264367816093,1890.1264367816093,8
2024-06-15 13:33:02,0.1441642046,0.01221730467,0.03420845419,-8.281543732,-0.7062895298,4.814739704,1151.7674418604652,933.0,2358.0697674418607,-7898.023255813953,3802.046511627907,1508.7209302325582,8
2024-06-15 13:33:02,0.0293215327,0.01954768784,0.0293215327,-8.221688271,-0.3399766386,4.8291049,751.6781609195402,50.65517241379311,824.5632183908046,-7742.862068965517,3810.080459770115,1216.6896551724135,8
2024-06-15 13:33:03,-0.02809980139,0.02199114859,0.007330383174,-8.274360657,-0.4764461517,4.730942726,557.1473684210526,99.10526315789474,589.7473684210527,-7469.0,3792.557894736842,1232.0315789473684,8
2024-06-15 13:33:03,-0.02809980139,0.02199114859,0.007330383174,-8.274360657,-0.4764461517,4.730942726,183.83132530120483,55.42168674698795,327.6024096385542,-7498.8674698795185,3820.8313253012047,1265.144578313253,8
2024-06-15 13:33:03,-0.3787364662,-0.1075122803,-0.1026253626,-8.288725853,-0.07422025502,4.733336926,-327.2134831460674,5.6516853932584254,281.08988764044943,-7449.033707865168,4186.528089887641,1216.629213483146,8
2024-06-15 13:33:03,-0.6279694438,-0.109955743,-0.2174680233,-7.999027729,-0.758961916,4.939238071,-726.629213483146,-113.6067415730337,-335.5168539325843,-7439.898876404494,4013.640449438202,1426.8202247191011,8
2024-06-15 13:33:03,-0.6279694438,-0.109955743,-0.2174680233,-7.999027729,-0.758961916,4.939238071,-568.3218390804598,98.42528735632185,-357.11494252873564,-7150.827586206897,3770.586206896552,1494.2758620689656,8
2024-06-15 13:33:03,-0.8124507666,-0.08307767659,-0.2675589919,-7.987056732,-1.45088625,4.704606533,79.19767441860465,-32.872093023255815,-263.19767441860466,-7438.081395348837,3805.604651162791,1626.0581395348838,8
2024-06-15 13:33:03,-0.8124507666,-0.08307767659,-0.2675589919,-7.987056732,-1.45088625,4.704606533,19.221052631578942,-34.62105263157895,-313.8,-7511.4,3925.7263157894736,1588.042105263158,8
2024-06-15 13:33:03,-0.393397212,-0.02809980139,-0.2333505303,-7.92001915,-2.980781078,4.8314991,93.02439024390245,75.07317073170732,-162.390243902439,-7477.024390243902,3806.4634146341455,1572.1463414634147,8
2024-06-15 13:33:03,0.02687807009,-0.03054326214,-0.09773843735,-7.903259754,-2.892195702,4.86980629,95.30588235294118,-339.6117647058824,-353.2705882352941,-7486.952941176471,3940.235294117647,1579.929411764706,8
2024-06-15 13:33:03,0.02687807009,-0.03054326214,-0.09773843735,-7.903259754,-2.892195702,4.86980629,49.35714285714286,-167.46428571428572,-204.32142857142856,-7493.821428571428,3924.142857142857,1586.2857142857142,8
2024-06-15 13:33:04,0.05131268129,0.006108652335,0.006108652335,-7.860164165,-2.85867691,4.690241337,269.5952380952381,-28.77380952380952,-210.8690476190476,-7525.369047619048,3928.904761904762,1595.809523809524,8
2024-06-15 13:33:04,0.05864306539,-0.008552113548,0.06963863969,-7.841010571,-2.801215887,4.900930882,580.8522727272727,355.79545454545456,-310.09090909090907,-7542.477272727273,3592.375,1216.3068181818182,8
2024-06-15 13:33:04,0.05864306539,-0.008552113548,0.06963863969,-7.841010571,-2.801215887,4.900930882,1242.816091954023,622.3908045977012,565.3103448275862,-7543.954022988506,3553.229885057471,965.0574712643678,8
2024-06-15 13:33:04,0.1869247705,-0.008552113548,0.03787364438,-7.92001915,-2.209848166,4.915296078,2294.4337349397592,815.3975903614457,1190.2530120481929,-7108.6626506024095,3611.9156626506015,845.2168674698795,8
2024-06-15 13:33:04,0.1869247705,-0.008552113548,0.03787364438,-7.92001915,-2.209848166,4.915296078,2222.144578313253,599.132530120482,1198.0843373493976,-7131.55421686747,3842.6385542168673,609.0722891566265,8
2024-06-15 13:33:04,0.1221730486,0.01588249579,0.07696902007,-7.934384346,-2.664746523,4.932055473,1553.9772727272727,315.3863636363636,686.1590909090909,-7080.704545454545,4413.795454545455,330.25,8
2024-06-15 13:33:04,0.1637118906,0.0354301855,0.09407325089,-8.030152321,-1.829170108,4.86741209,27.75862068965517,37.75862068965517,47.41379310344827,-7183.620689655172,4577.310344827586,282.0,8
2024-06-15 13:33:04,0.1637118906,0.0354301855,0.09407325089,-8.030152321,-1.829170108,4.86741209,37.6,101.33333333333331,-321.43333333333334,-7175.1,4247.833333333333,317.3666666666667,8
2024-06-15 13:33:04,0.125838235,0.03298672289,0.08307767659,-8.025363922,-1.685518026,5.111620426,-205.75,-185.0,-214.25,-7130.75,4267.0,321.75,8
2024-06-15 13:33:04,0.2174680233,-0.00122173049,0.04886921868,-8.037335396,-1.675941229,4.893748283,-422.5056179775281,-704.9775280898876,-11.38202247191009,-7439.123595505618,4286.157303370786,328.1123595505618,8
2024-06-15 13:33:05,0.2174680233,-0.00122173049,0.04886921868,-8.037335396,-1.675941229,4.893748283,-245.44827586206893,-440.735632183908,-337.4942528735632,-6840.689655172414,4064.229885057471,545.6321839080459,8
2024-06-15 13:33:05,0.1404990107,-0.004886921961,0.05131268129,-8.149862289,-1.529894829,4.936843872,-267.9230769230769,57.84615384615385,-390.9230769230769,-7438.307692307692,4387.692307692308,576.5384615384615,8
2024-06-15 13:33:05,0.1404990107,-0.004886921961,0.05131268129,-8.149862289,-1.529894829,4.936843872,-445.1666666666667,-671.6666666666666,-843.6666666666666,-7513.833333333333,4000.3333333333335,434.1666666666667,8
2024-06-15 13:33:05,0.1942551434,0.0354301855,0.06475171447,-8.106766701,-1.134851575,5.111620426,-1287.7931034482758,-1555.6206896551723,-2380.793103448276,-7851.517241379311,4171.103448275862,654.0344827586207,8
2024-06-15 13:33:05,0.1197295859,0.0,0.06597344577,-8.190564156,-1.060631394,4.86980629,-2705.4606741573034,-3104.202247191012,-3926.280898876405,-8085.370786516853,3935.6516853932585,1054.6629213483145,8
2024-06-15 13:33:05,0.1197295859,0.0,0.06597344577,-8.190564156,-1.060631394,4.86980629,-4694.2235294117645,-4420.4,-5590.941176470588,-8075.094117647059,2794.9058823529413,2389.0,8
2024-06-15 13:33:05,0.2968805134,-0.03420845419,0.02809980139,-8.259995461,-0.7493851185,4.924872875,-4677.005917159763,-4083.96449704142,-5675.585798816568,-7747.775147928994,1784.2958579881656,2916.1420118343194,8
2024-06-15 13:33:05,-0.02443460934,0.003665191587,0.04398229718,-8.171410561,-0.7350199223,4.975151062,-4227.89349112426,-3478.639053254438,-5513.455621301775,-7414.047337278106,1128.6745562130177,3237.4437869822486,8
2024-06-15 13:33:05,-0.02443460934,0.003665191587,0.04398229718,-8.171410561,-0.7350199223,4.975151062,-2230.3764705882354,-947.0117647058825,-3227.188235294117,-6990.670588235294,-1483.7764705882353,3839.423529411765,8
2024-06-15 13:33:05,0.2260201424,-0.01466076635,0.04398229718,-8.269572258,-0.5291185975,4.967968464,-1169.909090909091,49.840909090909065,-2290.909090909091,-7123.454545454545,-1875.7272727272727,4005.75,8
2024-06-15 13:33:06,0.2260201424,-0.01466076635,0.04398229718,-8.269572258,-0.5291185975,4.967968464,-1281.137254901961,-27.26797385620916,-2366.032679738562,-7326.326797385621,-1778.032679738562,4008.045751633987,8
2024-06-15 13:33:06,0.0354301855,0.02076941915,0.01221730467,-8.307879448,-0.5051765442,4.970362663,-1825.8701298701296,-319.8961038961039,-2724.116883116883,-6390.909090909091,-3315.519480519481,4150.324675324675,8
2024-06-15 13:33:06,0.08063421398,0.02199114859,0.03298672289,-8.35097599,-0.1867477298,5.02064085,-1469.5505617977528,413.6516853932585,-1915.8426966292127,-6401.853932584269,-4080.078651685393,3862.921348314607,8
2024-06-15 13:33:06,0.08063421398,0.02199114859,0.03298672289,-8.35097599,-0.1867477298,5.02064085,-350.5,1046.6666666666667,-1265.5555555555557,-6217.388888888889,-4477.555555555556,3497.722222222222,8
2024-06-15 13:33:06,0.03420845419,0.01466076635,0.01588249579,-8.293514252,-0.383072257,4.932055473,366.5060240963856,39.2168674698795,-506.93975903614455,-6675.626506024097,-4466.481927710844,3519.614457831325,8
2024-06-15 13:33:06,0.09773843735,0.0109955743,0.01832595654,-8.291120529,0.1675941199,4.826710701,-110.63636363636364,-251.0909090909091,-237.8181818181818,-6390.0,-4565.181818181818,3229.3636363636365,8
2024-06-15 13:33:06,0.09773843735,0.0109955743,0.01832595654,-8.291120529,0.1675941199,4.826710701,-155.8,71.38888888888889,-230.53333333333333,-6487.188888888889,-4791.177777777778,3271.266666666667,8
2024-06-15 13:33:06,0.1172861308,-0.009773843922,0.01343903504,-8.281543732,-0.0287304204,4.800374508,-107.60714285714286,-304.5,-42.53571428571428,-6459.285714285715,-4676.25,3642.595238095238,8
2024-06-15 13:33:06,0.1172861308,-0.009773843922,0.01343903504,-8.281543732,-0.0287304204,4.800374508,-445.0652173913044,-787.0652173913044,256.804347826087,-6113.173913043478,-4346.95652173913,3342.1521739130435,8
2024-06-15 13:33:06,0.1600466967,0.003665191587,0.02687807009,-8.374917984,0.05985504389,4.699818134,-464.86516853932585,-444.0,799.0337078651686,-6313.460674157303,-4676.438202247191,3509.14606741573,8
2024-06-15 13:33:07,0.09529497474,0.0109955743,0.02687807009,-8.279149055,0.4692635238,4.781220913,-276.52941176470586,-787.9411764705883,1126.4117647058824,-6686.14705882353,-4084.5882352941176,3730.617647058824,8
2024-06-15 13:33:07,0.09529497474,0.0109955743,0.02687807009,-8.279149055,0.4692635238,4.781220913,-440.05882352941177,-700.8823529411765,1115.8235294117646,-6673.794117647059,-4055.176470588235,3794.735294117647,8
2024-06-15 13:33:07,-0.03298672289,0.0,-0.00122173049,-8.295908928,0.4118026793,4.79319191,15.764044943820224,-296.82022471910113,229.7865168539326,-6333.23595505618,-4004.078651685393,4210.91011235955,8
2024-06-15 13:33:07,-0.1795943826,-0.05986479297,-0.08063421398,-8.293514252,0.2418143749,4.759673119,-57.09090909090909,-228.47727272727275,-142.6590909090909,-6276.181818181818,-4210.795454545455,4140.863636363636,8
2024-06-15 13:33:07,-0.1795943826,-0.05986479297,-0.08063421398,-8.293514252,0.2418143749,4.759673119,296.6111111111111,-66.16666666666666,74.72222222222223,-6098.333333333333,-3933.777777777778,4073.5,8
2024-06-15 13:33:07,-0.779464066,-0.1038470939,-0.1759291887,-8.180987358,-0.2633621991,4.802768707,-194.2823529411765,285.2705882352941,-275.4235294117647,-6417.2235294117645,-4049.305882352941,4056.7294117647057,8
2024-06-15 13:33:07,-0.779464066,-0.1038470939,-0.1759291887,-8.087613106,-1.321599364,5.262455463,-51.1098901098901,360.1978021978022,-361.9340659340659,-6304.2307692307695,-4341.153846153846,4173.978021978022,8
2024-06-15 13:33:07,-0.8026769161,-0.1722639948,-0.2455678284,-8.087613106,-1.321599364,5.262455463,252.3720930232558,312.01162790697674,-158.7325581395349,-6349.069767441861,-4020.383720930232,3838.860465116279,8
2024-06-15 13:33:07,-1.28159523,-0.09285151958,-0.4630358517,-7.742848396,-2.331952572,4.795586109,275.1348314606741,94.26966292134831,-305.07865168539325,-6328.3258426966295,-4028.011235955056,4143.6741573033705,8
2024-06-15 13:33:07,-1.28159523,-0.09285151958,-0.4630358517,-7.742848396,-2.331952572,4.795586109,-18.454545454545453,98.61363636363636,-204.54545454545453,-6341.272727272727,-4040.863636363637,4185.318181818182,8
2024-06-15 13:33:08,-0.6499606371,-0.2773328125,-0.9382890463,-6.849811077,-4.27125597,4.929661274,-62.68181818181819,-63.86363636363636,-335.0,-6356.5,-4063.386363636364,4129.681818181818,8
2024-06-15 13:33:08,-0.1172861308,-0.4263839424,-1.677435994,-4.153939724,-4.108449936,4.723760128,101.87234042553192,-363.3829787234043,-586.063829787234,-6306.297872340426,-4354.914893617021,4019.297872340425,8
2024-06-15 13:33:08,-0.1172861308,-0.4263839424,-1.677435994,-4.153939724,-4.108449936,4.723760128,13.289156626506028,-41.04819277108433,-399.5542168674699,-6123.951807228916,-4404.457831325301,4070.421686746988,8
2024-06-15 13:33:08,-0.3726277947,-0.3054326177,-1.668883801,-4.362235546,-9.119514465,5.604825974,-86.76,-117.6,-357.56,-6103.12,-4398.08,4078.6,8
2024-06-15 13:33:08,-0.3726277947,-0.3054326177,-1.668883801,-2.387019157,-9.18894577,5.456385612,-89.12121212121212,-121.21212121212122,-317.1818181818182,-6081.393939393939,-4404.727272727273,4085.121212121212,8
2024-06-15 13:33:08,-0.1734857261,-0.2700024247,-0.9321803451,-2.387019157,-9.18894577,5.456385612,65.56626506024097,-48.13253012048193,60.024096385542165,-6072.807228915663,-4448.21686746988,4074.060240963856,8
2024-06-15 13:33:08,0.08918632567,-0.1759291887,-0.4996877611,-1.920149803,-9.133879662,5.114014626,70.37078651685394,-11.337078651685394,113.59550561797752,-6126.0224719101125,-4438.573033707865,4070.629213483146,8
2024-06-15 13:33:08,0.08918632567,-0.1759291887,-0.4996877611,-1.920149803,-9.133879662,5.114014626,-114.52272727272728,275.60227272727275,-314.82954545454544,-6396.204545454545,-4475.863636363636,4012.5795454545455,8
2024-06-15 13:33:08,-0.05009094998,-0.1429424733,-0.2602286041,-1.067813993,-8.777143478,5.446808815,-55.20224719101124,202.2696629213483,-337.7303370786517,-6097.921348314607,-4443.6741573033705,4177.134831460674,8
2024-06-15 13:33:08,0.01588249579,0.05131268129,-0.17715092,-0.5363011956,-8.77235508,4.821922302,-99.17391304347828,-82.34782608695652,-281.7391304347826,-6099.04347826087,-4464.391304347826,3986.413043478261,8
2024-06-15 13:33:09,0.01588249579,0.05131268129,-0.17715092,-0.5363011956,-8.77235508,4.821922302,-98.03550295857988,-75.64497041420118,-279.0177514792899,-6181.952662721894,-4444.224852071006,3991.408284023669,8
2024-06-15 13:33:09,0.2467895597,-0.1197295859,-0.1209513173,-0.6177040339,-8.815450668,5.032611847,-115.78698224852072,-98.1301775147929,-287.8934911242604,-6358.284023668639,-4456.650887573965,3995.550295857988,8
2024-06-15 13:33:09,0.2467895597,-0.1197295859,-0.1209513173,-0.6177040339,-8.815450668,5.032611847,-21.30000000000001,-111.6,-354.76666666666665,-6047.8,-4254.133333333333,4013.133333333333,8
2024-06-15 13:33:09,-0.1685988009,-0.02076941915,-0.03054326214,-0.4932055473,-8.377311707,5.291185856,-91.48314606741572,-104.84269662921348,-490.5730337078652,-6243.3258426966295,-4233.359550561798,3982.876404494382,8
2024-06-15 13:33:09,-0.1539380401,-0.00244346098,-0.04886921868,-0.3974374831,-8.995016098,4.994304657,68.16666666666667,91.0,-868.6666666666666,-6092.833333333333,-4287.0,3997.1666666666665,8
2024-06-15 13:33:09,-0.1539380401,-0.00244346098,-0.04886921868,-0.3974374831,-8.995016098,4.994304657,-117.0344827586207,41.0,-465.7586206896552,-6210.896551724138,-4677.551724137931,4078.206896551724,8
2024-06-15 13:33:09,-0.03298672289,-0.05375614017,-0.00122173049,-0.2968810201,-8.652645111,4.90811348,-98.25581395348836,-118.02325581395348,-585.2325581395348,-5776.116279069767,-4735.023255813953,4051.7906976744175,8
2024-06-15 13:33:09,-0.1331686229,-0.02199114859,0.0232128799,-0.2753331959,-8.954314232,4.697423935,-341.55172413793105,-71.48275862068965,-737.1724137931035,-6164.770114942528,-4572.287356321839,4134.632183908046,8
2024-06-15 13:33:09,-0.1331686229,-0.02199114859,0.0232128799,-0.2753331959,-8.954314232,4.697423935,-184.51724137931035,-51.49425287356321,-470.3333333333333,-6147.942528735633,-4667.609195402299,4382.0,8
2024-06-15 13:33:09,-0.01221730467,-0.05497787148,0.03909537569,-0.2992752194,-8.817844391,4.766855717,24.6,-157.6,-233.2,-5966.8,-4883.4,4376.4,8
2024-06-15 13:33:10,-0.01221730467,-0.05497787148,0.03909537569,-0.2992752194,-8.817844391,4.766855717,19.162790697674417,60.74418604651163,-300.06976744186045,-5971.6511627906975,-4925.093023255814,4364.604651162791,8
2024-06-15 13:33:10,0.05253441259,-0.05131268129,-0.01588249579,-0.3208230138,-8.930372238,4.707000732,51.0,25.34831460674157,-88.64044943820224,-5982.573033707865,-4937.70786516854,4387.528089887641,8
2024-06-15 13:33:10,0.03665191308,0.01221730467,0.0293215327,-0.4357447028,-8.805873871,4.704606533,-207.24137931034485,-218.32183908045977,-203.66666666666663,-5965.126436781609,-4931.528735632184,4412.137931034483,8
2024-06-15 13:33:10,0.03665191308,0.01221730467,0.0293215327,-0.4357447028,-8.805873871,4.704606533,-322.87005649717514,-378.864406779661,-281.3785310734463,-5962.587570621469,-4948.717514124294,4411.158192090396,8
2024-06-15 13:33:10,0.07941248268,0.006108652335,0.0415388383,-0.3950432837,-8.851364136,4.75488472,-331.909604519774,-383.9491525423729,-146.3502824858757,-5973.887005649717,-4950.977401129943,4421.892655367232,8
2024-06-15 13:33:10,0.07941248268,-0.05009094998,-0.07330382615,-0.316034615,-8.532935143,4.94642067,-388.3736263736264,-288.9450549450549,346.032967032967,-5540.3626373626375,-4893.56043956044,4241.725274725275,8
2024-06-15 13:33:10,0.07941248268,-0.05009094998,-0.07330382615,-0.316034615,-8.532935143,4.94642067,-310.8958333333333,70.45833333333333,219.5833333333333,-5541.697916666667,-4901.583333333333,4246.333333333333,8
2024-06-15 13:33:10,0.0720821023,-0.05619960278,-0.1014036313,-0.2729389966,-8.731653214,4.967968464,-539.1176470588235,-71.49411764705883,69.34117647058824,-5829.117647058823,-4804.2,4264.941176470588,8
2024-06-15 13:33:10,-0.01221730467,-0.01954768784,-0.02076941915,-0.1795651317,-8.714894295,4.836287498,-452.7934782608696,184.0652173913044,890.0434782608695,-5711.423913043478,-4601.663043478261,4211.510869565217,8
2024-06-15 13:33:10,-0.01221730467,-0.01954768784,-0.02076941915,-0.1795651317,-8.714894295,4.836287498,-219.3975903614458,656.9759036144578,992.0602409638554,-5887.542168674699,-4503.819277108434,4048.5421686746986,8
2024-06-15 13:33:11,0.01466076635,-0.01832595654,-0.05497787148,-0.141257897,-8.777143478,4.884171486,-950.1333333333332,306.9666666666667,1042.1666666666667,-6093.1,-4304.066666666667,3871.233333333333,8
2024-06-15 13:33:11,0.01466076635,-0.01832595654,-0.05497787148,-0.141257897,-8.777143478,4.884171486,-817.5172413793103,-43.40229885057471,996.735632183908,-6357.022988505747,-4559.620689655172,3491.0344827586205,8
2024-06-15 13:33:11,0.003665191587,-0.0171042271,0.01466076635,-0.2370259613,-8.805873871,4.963180065,-236.11111111111111,28.28888888888889,1553.4666666666667,-6654.166666666667,-4286.233333333334,3374.5222222222224,8
2024-06-15 13:33:11,-0.01832595654,-0.02199114859,-0.02443460934,-0.141257897,-8.671798706,4.955997467,-418.77647058823527,-135.78823529411764,2247.329411764706,-6552.364705882353,-4155.729411764706,3608.494117647059,8
2024-06-15 13:33:11,-0.01832595654,-0.02199114859,-0.02443460934,-0.141257897,-8.671798706,4.955997467,-313.2608695652174,-202.18478260869568,1993.4782608695648,-6914.358695652174,-3580.6847826086955,3535.8152173913045,8
2024-06-15 13:33:11,0.009773843922,-0.0232128799,0.003665191587,-0.1460463107,-8.755595207,4.891354084,-181.42352941176472,-516.635294117647,716.9294117647058,-7192.576470588236,-2979.917647058824,3722.117647058824,8
2024-06-15 13:33:11,0.009773843922,-0.0232128799,0.003665191587,-0.1460463107,-8.755595207,4.891354084,-277.3058823529412,-435.45882352941175,659.2823529411764,-6996.694117647059,-2979.329411764706,3751.529411764706,8
2024-06-15 13:33:11,0.01588249579,-0.01588249579,0.01221730467,-0.09337386489,-8.815450668,4.90571928,-548.5795454545455,92.36363636363636,389.92045454545456,-6858.215909090909,-2966.159090909091,4160.943181818182,8
2024-06-15 13:33:11,-0.00122173049,-0.01466076635,-0.00244346098,-0.1699883193,-8.767566681,4.874594688,-287.3863636363636,35.63636363636364,870.7045454545455,-7043.022727272727,-3026.318181818182,4165.568181818182,8
2024-06-15 13:33:11,-0.00122173049,-0.01466076635,-0.00244346098,-0.1699883193,-8.767566681,4.874594688,-48.65957446808511,-302.06382978723406,556.1914893617021,-7133.63829787234,-2822.5106382978724,4185.510638297872,8
2024-06-15 13:33:12,0.008552113548,0.00244346098,-0.0109955743,-0.1005564705,-8.796297073,4.860229492,76.57142857142857,18.797619047619047,-197.4047619047619,-7061.940476190476,-2850.345238095238,4198.464285714285,8
2024-06-15 13:33:12,0.004886921961,-0.008552113548,-0.00244346098,-0.1029506698,-8.73404789,4.891354084,90.3076923076923,-61.46153846153847,-293.38461538461536,-7209.692307692308,-2927.769230769231,4142.692307692308,8
2024-06-15 13:33:12,0.004886921961,-0.008552113548,-0.00244346098,-0.1029506698,-8.73404789,4.891354084,-103.07865168539324,-15.50561797752809,-58.85393258426966,-7085.820224719101,-2899.7191011235955,3819.314606741573,8
2024-06-15 13:33:12,-0.02199114859,-0.01832595654,0.003665191587,-0.1604115069,-8.901641846,4.833893299,-121.86666666666666,241.6,329.5333333333333,-7093.066666666667,-2903.733333333333,3783.0666666666666,8
2024-06-15 13:33:12,-0.01832595654,-0.004886921961,0.006108652335,-0.107739076,-8.803479195,4.900930882,-116.79411764705884,-97.91176470588236,25.97058823529412,-7123.617647058823,-2557.205882352941,3781.705882352941,8
2024-06-15 13:33:12,-0.01832595654,-0.004886921961,0.006108652335,-0.107739076,-8.803479195,4.900930882,-102.08823529411764,42.6764705882353,-167.55882352941177,-7107.735294117647,-2551.9117647058824,3786.4117647058815,8
2024-06-15 13:33:12,0.04276056588,0.04886921868,0.1038470939,-0.04070143029,-8.271966934,5.078101635,98.67777777777778,-85.34444444444445,52.76666666666668,-7093.333333333333,-2521.177777777778,3811.411111111111,8
2024-06-15 13:33:12,0.04276056588,0.04886921868,0.1038470939,-0.04070143029,-8.271966934,5.078101635,285.6046511627907,332.93023255813955,134.74418604651163,-7110.2558139534885,-2467.7906976744184,3782.488372093024,8
2024-06-15 13:33:12,0.2700024247,-0.01343903504,0.2528982162,-0.4141969085,-8.331821442,5.566518784,27.555555555555543,-21.61111111111111,32.888888888888886,-7459.388888888889,-2670.055555555556,3775.0,8
2024-06-15 13:33:12,0.2981022298,0.3750712574,0.8674286604,-1.070208192,-9.277531624,6.059724331,92.8988764044944,-46.52808988764045,-207.3258426966292,-7230.404494382023,-2501.1011235955057,3761.85393258427,8
2024-06-15 13:33:13,0.2981022298,0.3750712574,0.8674286604,-1.070208192,-9.277531624,6.059724331,-212.02298850574715,-117.183908045977,55.93103448275862,-7165.103448275862,-2495.574712643678,3751.0,8
2024-06-15 13:33:13,0.1673770845,0.5057964325,1.214400053,-4.331110954,-8.058882713,6.335057735,67.76344086021506,-94.25806451612902,7.612903225806448,-7156.225806451613,-2462.8279569892475,3739.129032258064,8
2024-06-15 13:33:13,0.1673770845,0.5057964325,1.214400053,-4.331110954,-8.058882713,6.335057735,41.52808988764045,-13.03370786516854,-353.561797752809,-7140.23595505618,-2506.38202247191,3966.494382022472,8
2024-06-15 13:33:13,0.3616322279,0.6352998614,1.578475833,-3.691859007,-5.693411827,4.625597477,16.615384615384613,197.8571428571429,-330.4945054945055,-7456.549450549451,-2493.6263736263736,3747.604395604395,8
2024-06-15 13:33:13,-0.1331686229,0.3200933933,0.8600982428,-6.160281181,-3.392583847,4.656722069,25.0,-105.0,-238.375,-7403.5,-2541.625,3946.125,8
2024-06-15 13:33:13,-0.1331686229,0.3200933933,0.8600982428,-6.160281181,-3.392583847,4.656722069,64.13043478260869,-105.0,-83.4836956521739,-7249.152173913043,-2531.2989130434785,3937.972826086957,8
2024-06-15 13:33:13,0.5668829679,-0.3872885704,0.2528982162,-7.517793179,-5.133168221,6.126761913,-28.736842105263165,85.10526315789474,-88.6842105263158,-7318.842105263157,-2481.684210526316,3962.684210526316,8
2024-06-15 13:33:13,0.0415388383,0.07086037099,0.3359758854,-6.981492043,-4.110844135,6.086060524,22.25,66.875,-92.875,-7156.5,-2487.25,3728.125,8
2024-06-15 13:33:13,0.0415388383,0.07086037099,0.3359758854,-6.981492043,-4.110844135,6.086060524,42.86585365853659,121.40243902439023,122.17073170731707,-7158.012195121952,-2494.69512195122,3729.1341463414633,8
2024-06-15 13:33:13,0.1857030392,0.1795943826,0.4031710625,-7.055712223,-2.700659513,5.729324818,50.71428571428572,117.42857142857144,115.0,-7201.0,-2469.714285714286,3746.571428571429,8
2024-06-15 13:33:14,0.7098253965,0.1576032341,0.3359758854,-7.469909191,-2.066195965,5.413290024,63.82608695652174,-88.42391304347825,74.59782608695652,-7431.565217391304,-2461.7391304347825,3953.271739130435,8
2024-06-15 13:33:14,0.7098253965,0.1576032341,0.3359758854,-7.469909191,-2.066195965,5.413290024,21.217391304347828,121.55434782608695,68.70652173913044,-7421.076086956522,-2465.3804347826085,3739.0434782608695,8
2024-06-15 13:33:14,0.1551597714,0.1368338168,0.2138028294,-7.647080421,-1.570596337,5.559336185,42.74117647058824,-128.0,53.09411764705882,-7436.458823529411,-2474.3764705882354,3960.482352941177,8
2024-06-15 13:33:14,0.1551597714,0.1368338168,0.2138028294,-7.647080421,-1.570596337,5.559336185,44.21348314606742,-55.84269662921348,54.30337078651685,-7453.0,-2445.9101123595506,3957.0,8
2024-06-15 13:33:14,0.1954768747,0.04764748737,0.08552113175,-7.860164165,-0.9792284966,5.446808815,1.2134831460674158,21.49438202247191,28.741573033707866,-7434.876404494382,-2445.0,3945.23595505618,8
2024-06-15 13:33:14,0.1368338168,0.01221730467,0.07574728876,-7.833827972,-0.8786720037,5.449203014,45.32584269662921,117.38202247191012,34.449438202247194,-7293.831460674157,-2467.2808988764045,3947.011235955056,8
2024-06-15 13:33:14,0.1368338168,0.01221730467,0.07574728876,-7.833827972,-0.8786720037,5.449203014,74.17777777777778,-34.6888888888889,64.04444444444445,-7439.488888888889,-2445.777777777778,3954.866666666667,8
2024-06-15 13:33:14,0.1392772794,-0.02809980139,0.0171042271,-7.886500359,-0.7254431248,5.559336185,27.30434782608696,-44.65217391304347,48.391304347826086,-7441.478260869565,-2442.521739130435,3958.913043478261,8
2024-06-15 13:33:14,0.1392772794,-0.02809980139,0.0171042271,-7.886500359,-0.7254431248,5.559336185,18.25,71.0909090909091,30.40909090909091,-7436.454545454545,-2447.7954545454545,3951.477272727273,8
2024-06-15 13:33:14,0.09162978828,-0.06108652428,0.0415388383,-7.91762495,-0.8619126081,5.406107426,25.09876543209877,-126.9753086419753,54.62962962962963,-7442.049382716049,-2451.0493827160494,3941.0,8
2024-06-15 13:33:15,0.1783726513,-0.007330383174,0.02687807009,-7.800309181,-0.4644751251,5.691017628,25.96551724137931,-121.34482758620688,58.689655172413794,-7437.724137931034,-2456.3793103448274,3944.413793103448,8
2024-06-15 13:33:15,0.1783726513,-0.007330383174,0.02687807009,-7.800309181,-0.4644751251,5.691017628,41.72727272727273,-117.8181818181818,49.27272727272727,-7442.818181818182,-2444.0,3943.181818181818,8
2024-06-15 13:33:15,0.06475171447,0.01343903504,0.008552113548,-7.855375767,-0.316034615,5.434837818,20.8,117.8,84.6,-7457.7,-2440.6,3938.5,8
2024-06-15 13:33:15,0.2333505303,0.003665191587,0.05742133409,-7.872135162,-0.02394201607,5.674258232,12.0,-113.1264367816092,48.689655172413794,-7471.206896551724,-2442.436781609196,3930.8275862068967,8
2024-06-15 13:33:15,0.2333505303,0.003665191587,0.05742133409,-7.872135162,-0.02394201607,5.674258232,12.11111111111111,107.84444444444443,73.04444444444445,-7468.822222222222,-2448.3777777777777,3929.3333333333335,8
2024-06-15 13:33:15,0.03176499158,0.0293215327,0.02565634064,-7.910442352,-0.05985504389,5.35104084,44.41111111111111,-24.27777777777777,15.755555555555556,-7466.822222222222,-2451.5333333333333,3917.177777777778,8
2024-06-15 13:33:15,0.03176499158,0.0293215327,0.02565634064,-7.910442352,-0.05985504389,5.35104084,35.714285714285715,96.28571428571428,-275.85714285714283,-7438.0,-2477.285714285714,3929.142857142857,8
2024-06-15 13:33:15,0.04276056588,0.0,0.006108652335,-7.963114738,0.2585737705,5.360617638,39.47727272727273,82.7840909090909,-14.238636363636374,-7163.590909090909,-2459.431818181818,3933.034090909091,8
2024-06-15 13:33:15,0.06475171447,0.01221730467,0.02199114859,-7.931990147,0.06943184882,5.492298603,34.84375,-122.0,46.8125,-7446.78125,-2489.40625,3951.40625,8
2024-06-15 13:33:15,0.06475171447,0.01221730467,0.02199114859,-7.931990147,0.06943184882,5.492298603,30.03333333333333,111.03333333333332,-247.96666666666667,-7435.733333333334,-2484.1,3942.866666666667,8
2024-06-15 13:33:16,0.02076941915,0.0293215327,0.02443460934,-7.953537941,0.2681505978,5.310339451,30.58888888888889,111.58888888888887,-97.4111111111111,-7431.288888888889,-2469.1,3923.9777777777776,8
2024-06-15 13:33:16,-0.00244346098,0.02199114859,0.02687807009,-8.046912193,0.1532289088,5.221754074,33.204819277108435,-110.8313253012048,-315.3614457831325,-7448.831325301205,-2494.3132530120483,3924.6626506024095,8
2024-06-15 13:33:16,-0.00244346098,0.02199114859,0.02687807009,-8.046912193,0.1532289088,5.221754074,-281.8636363636364,-91.13636363636364,-162.36363636363637,-7313.454545454545,-2628.909090909091,3908.181818181818,8
2024-06-15 13:33:16,0.07941248268,-0.008552113548,0.009773843922,-7.984662533,0.6488286853,5.214571476,-117.87912087912088,11.450549450549444,-337.5164835164835,-7435.417582417583,-2822.648351648352,3908.197802197802,8
2024-06-15 13:33:16,0.008552113548,-0.0171042271,-0.02199114859,-7.924807549,0.55784899,5.303156853,-96.73333333333332,66.26666666666667,-317.02222222222224,-7248.822222222222,-2825.133333333333,3923.955555555556,8
2024-06-15 13:33:16,0.008552113548,-0.0171042271,-0.02199114859,-7.924807549,0.55784899,5.303156853,-332.1136363636364,63.81818181818182,-445.0,-7114.090909090909,-2867.7272727272725,3794.022727272728,8
2024-06-15 13:33:16,-0.1123992056,-0.04398229718,-0.0354301855,-7.896077156,0.2274491638,5.339069843,-354.0235294117647,51.694117647058825,-275.7529411764706,-7099.270588235294,-2929.035294117647,3924.835294117647,8
2024-06-15 13:33:16,-0.1123992056,-0.04398229718,-0.0354301855,-7.896077156,0.2274491638,5.339069843,-131.1685393258427,57.49438202247191,90.87640449438204,-7069.887640449439,-2719.224719101124,3950.786516853933,8
2024-06-15 13:33:16,-0.5949827433,-0.08429940045,-0.1331686229,-7.987056732,0.2298433632,5.327098846,-226.7826086956522,62.21739130434783,68.43478260869566,-7083.565217391304,-2689.1739130434785,3946.304347826087,8
2024-06-15 13:33:16,-0.813672483,-0.04520402849,-0.1710422635,-7.730877399,-1.101332784,5.609614372,-420.855421686747,313.1807228915663,-602.7349397590361,-7279.192771084337,-3086.638554216868,3873.3493975903616,8
2024-06-15 13:33:17,-0.813672483,-0.04520402849,-0.1710422635,-7.730877399,-1.101332784,5.609614372,-614.9386503067485,315.55214723926383,-217.76073619631904,-7124.386503067484,-3161.423312883436,3549.705521472393,8
2024-06-15 13:33:17,-0.7037167549,-0.07086037099,-0.1942551434,-7.845798969,-1.908178806,5.231330872,-594.6932515337423,297.76073619631904,-328.8036809815951,-7121.932515337423,-3011.116564417178,3532.5276073619634,8
2024-06-15 13:33:17,-0.7037167549,-0.07086037099,-0.1942551434,-7.845798969,-1.908178806,5.231330872,-309.5079365079365,184.77777777777777,-285.3968253968254,-7107.439153439153,-3020.3015873015875,3539.7195767195767,8
2024-06-15 13:33:17,-0.5949827433,0.08185594529,-0.4654793143,-7.572859764,-2.837129116,5.329493046,-301.57142857142856,307.0,-288.57142857142856,-7101.619047619048,-3018.714285714286,3386.809523809524,8
2024-06-15 13:33:17,-0.4581489265,0.08918632567,-1.045801282,-7.019799232,-2.765302896,4.939238071,-292.5769230769231,-67.37179487179486,-299.34615384615387,-7117.371794871795,-3246.294871794872,3293.5641025641025,8
2024-06-15 13:33:17,-0.4581489265,0.08918632567,-1.045801282,-7.019799232,-2.765302896,4.939238071,106.012987012987,213.6883116883117,-318.85714285714283,-7084.792207792208,-3393.168831168832,3275.103896103896,8
2024-06-15 13:33:17,-0.8442157507,0.2064724565,-1.666440368,-5.324704647,-6.078877926,3.876212597,-28.77272727272728,-95.6818181818182,-274.1818181818182,-7097.659090909091,-3332.3863636363635,3295.181818181818,8
2024-06-15 13:33:17,0.7208209634,-0.09040805697,-1.358564258,-4.50109911,-9.157821655,4.297592163,-58.62222222222222,31.64444444444445,-265.53333333333336,-7077.644444444444,-3388.911111111111,3643.777777777778,8
2024-06-15 13:33:17,0.7208209634,-0.09040805697,-1.358564258,-4.50109911,-9.157821655,4.297592163,326.0689655172414,135.58620689655172,-387.13793103448273,-7246.540229885058,-3420.344827586207,3637.390804597701,8
2024-06-15 13:33:17,-0.3310889602,-0.2602286041,-0.7415903807,-2.626439333,-9.442731857,4.307168961,491.2444444444444,-162.42222222222222,-222.4,-7126.133333333333,-3009.688888888889,3611.2,8
2024-06-15 13:33:18,0.3567453027,-0.5167919993,-0.3738495409,-1.843535304,-9.844957352,5.75805521,285.219512195122,-156.1463414634146,-544.7560975609756,-7224.8536585365855,-3345.317073170732,3511.19512195122,8
2024-06-15 13:33:18,0.3567453027,-0.5167919993,-0.3738495409,-1.843535304,-9.844957352,5.75805521,261.0,-18.0,-577.25,-7111.25,-3401.5,3517.75,8
2024-06-15 13:33:18,-0.3591887653,-0.235793978,-0.2015855312,-1.424550056,-8.446743965,5.039794445,272.1111111111111,186.44444444444449,-728.9166666666666,-6947.361111111111,-3413.722222222222,3506.083333333333,8
2024-06-15 13:33:18,-0.3591887653,-0.235793978,-0.2015855312,-1.424550056,-8.446743965,5.039794445,64.89795918367346,92.48299319727892,-524.5646258503401,-6898.816326530612,-3258.0,3571.517006802721,8
2024-06-15 13:33:18,0.2223549485,-0.2638937831,-0.1783726513,-1.048660398,-8.583212852,5.27442646,-293.1428571428572,-32.857142857142854,-434.0,-6848.0,-3367.1428571428573,3562.0,8
2024-06-15 13:33:18,0.08307767659,-0.1282816976,-0.1478293836,-0.8714894056,-8.365341187,5.528211594,-338.85227272727275,246.89772727272725,-608.1136363636364,-7168.545454545455,-3648.931818181818,3535.7954545454545,8
2024-06-15 13:33:18,0.3408628106,-0.07941248268,-0.0109955743,-0.5051765442,-7.984662533,5.731719017,18.28735632183908,-238.32183908045977,-969.6091954022988,-7021.137931034483,-3861.586206896552,3245.5172413793102,8
2024-06-15 13:33:18,0.01954768784,-0.03054326214,-0.06230825558,-0.4429273009,-8.042123795,5.990292549,108.8720930232558,-577.8023255813954,-782.5697674418604,-6589.639534883721,-4168.244186046512,3414.8837209302324,8
2024-06-15 13:33:18,0.01954768784,-0.03054326214,-0.06230825558,-0.4429273009,-8.042123795,5.990292549,48.37931034482759,-718.0229885057471,-517.2183908045977,-6557.114942528736,-4417.770114942528,3895.5172413793102,8
2024-06-15 13:33:19,-0.02443460934,-0.01221730467,-0.01466076635,-0.490811348,-8.020575523,5.980715752,-10.72527472527473,-747.7912087912088,-434.8021978021978,-6471.956043956044,-4382.494505494506,3847.736263736264,8
2024-06-15 13:33:19,-0.02443460934,-0.01221730467,-0.01466076635,-0.490811348,-8.020575523,5.980715752,-97.63636363636364,-413.2272727272728,-360.0,-6085.0,-4418.0,3870.727272727273,8
2024-06-15 13:33:19,-0.1026253626,-0.00122173049,-0.01588249579,-0.4764461517,-8.259995461,5.710171223,93.14285714285714,-77.57142857142858,-341.57142857142856,-6125.0,-4402.714285714285,3780.142857142857,8
2024-06-15 13:33:19,0.01954768784,-0.01588249579,-0.008552113548,-0.3088520169,-8.300697327,5.659893036,302.16279069767444,86.23255813953489,317.0,-6355.616279069767,-4058.0116279069766,4002.348837209304,8
2024-06-15 13:33:19,0.01954768784,-0.01588249579,-0.008552113548,-0.3088520169,-8.300697327,5.659893036,-85.86516853932584,-54.15730337078652,54.46067415730335,-6320.831460674157,-4023.741573033708,3970.5393258426966,8
2024-06-15 13:33:19,-0.04886921868,-0.03420845419,-0.0109955743,-0.4070142806,-8.209717751,5.418078423,-108.4494382022472,19.97752808988764,-207.1011235955056,-6506.179775280899,-3978.191011235955,3991.752808988764,8
