Timestamp,Gyro_x_x,Gyro_y_x,Gyro_z_x,Acc_x_x,Acc_y_x,Acc_z_x,Gyro_x_y,Gyro_y_y,Gyro_z_y,Acc_x_y,Acc_y_y,Acc_z_y,combined_action_num
2024-06-15 13:19:31,0.03054326214,0.05497787148,-0.145385921,-0.8834604025,3.821146011,8.209717751,78.84905660377359,-32.528301886792455,-51.443396226415096,-6960.084905660377,-4299.811320754717,2276.971698113208,7
2024-06-15 13:19:31,0.03054326214,0.05497787148,-0.145385921,-0.8834604025,3.821146011,8.209717751,617.6542056074767,-379.5794392523365,109.3644859813084,-7017.532710280374,-4306.22429906542,2442.785046728972,7
2024-06-15 13:19:31,2.056172371,-0.3616322279,-0.3628539443,-0.7278373241,6.50983429,7.515398979,459.0,-236.3636363636364,-72.18181818181819,-6868.727272727273,-3932.090909090909,3108.090909090909,7
2024-06-15 13:19:31,2.056172371,-0.3616322279,-0.3628539443,-0.7278373241,6.50983429,7.515398979,-343.6,-623.72,63.52,-7036.88,-3761.32,3017.36,7
2024-06-15 13:19:32,-1.739744186,0.2651155293,-2.492330313,-1.731007814,7.412448406,8.655038834,-122.9090909090909,-48.0,-23.181818181818183,-7003.363636363636,-4167.727272727273,3063.090909090909,7
2024-06-15 13:19:32,-0.9847147465,-0.141720742,-2.186897516,-3.988739967,0.3663128614,7.539340973,-192.08910891089107,-111.53465346534654,53.84158415841584,-7032.772277227723,-3987.09900990099,3171.7821782178216,7
2024-06-15 13:19:32,-0.9847147465,-0.141720742,-2.186897516,-3.988739967,0.3663128614,7.539340973,-319.9611650485437,-104.2621359223301,-132.6893203883495,-6995.135922330097,-4184.592233009709,3081.26213592233,7
2024-06-15 13:19:32,-4.156327248,-0.9004153609,-0.6108652353,-3.069366693,-5.7963624,6.174646378,-550.0693069306931,-63.07920792079208,161.53465346534654,-6855.188118811881,-4150.702970297029,3106.1881188118814,7
2024-06-15 13:19:32,-4.156327248,-0.9004153609,-0.6108652353,-3.069366693,-5.7963624,6.174646378,-328.07766990291265,86.32038834951456,-105.19417475728156,-6842.718446601942,-4195.543689320389,3126.9126213592235,7
2024-06-15 13:19:32,-2.219884396,0.02076941915,0.05619960278,-0.4165911078,-6.076483727,8.379706383,-43.28846153846153,30.346153846153847,-85.98076923076923,-6862.076923076923,-3958.9615384615386,2966.269230769231,7
2024-06-15 13:19:32,-0.1014036313,0.1551597714,0.004886921961,-2.078166962,-9.667786598,6.828263283,-319.6923076923077,541.3846153846154,305.0769230769231,-6934.538461538462,-3833.538461538461,3127.0,7
2024-06-15 13:19:32,-0.1014036313,0.1551597714,0.004886921961,-2.078166962,-9.667786598,6.828263283,-332.88235294117646,515.9411764705883,245.7058823529412,-7309.794117647059,-3769.5882352941176,2734.0882352941176,7
2024-06-15 13:19:32,-0.2419026345,-0.03420845419,-0.01466076635,-2.621650934,-8.475474358,4.050989151,-247.85148514851485,7.386138613861391,301.53465346534654,-7141.217821782178,-3815.504950495049,2626.19801980198,7
2024-06-15 13:19:32,0.1441642046,0.05131268129,0.5937610269,-1.702277422,-9.639056206,5.384559631,-25.556603773584904,-243.2075471698113,28.867924528301888,-7211.584905660377,-3772.811320754717,2847.735849056604,7
2024-06-15 13:19:33,0.1441642046,0.05131268129,0.5937610269,-1.702277422,-9.639056206,5.384559631,-239.5,-46.85,-70.06,-7246.04,-3922.95,2525.35,7
2024-06-15 13:19:33,0.08063421398,-0.1588249654,1.620014668,-2.418143749,-8.726864815,4.659116745,-225.84615384615384,103.6923076923077,287.84615384615387,-7114.923076923077,-3773.0,2466.4615384615386,7
2024-06-15 13:19:33,-0.7415903807,-0.6316346526,1.284038782,-3.909731388,-4.848258495,2.504334927,365.8715596330275,113.07339449541284,-72.3302752293578,-7069.422018348624,-3744.0,2538.990825688073,7
2024-06-15 13:19:33,-1.264491081,-0.9810495973,0.4386012554,-5.889736176,-5.066130638,4.256890774,4.801369863013699,-55.4041095890411,83.36301369863014,-7090.8493150684935,-3848.18493150685,2819.04794520548,7
2024-06-15 13:19:33,-1.264491081,-0.9810495973,0.4386012554,-5.889736176,-5.066130638,4.256890774,-233.375,45.0625,-200.875,-7071.8125,-3799.0625,2532.875,7
2024-06-15 13:19:33,-0.8967501521,-0.9553932548,-0.03054326214,-5.68383503,-7.838616371,6.121973515,-8.59375,-278.4375,-25.5,-7182.375,-3754.625,2916.3125,7
2024-06-15 13:19:33,2.196671486,-0.6914994717,-0.3139847219,-5.02064085,-8.82263279,7.182605267,53.41176470588235,256.2549019607843,-106.4313725490196,-7229.549019607844,-3614.078431372549,2896.4117647058824,7
2024-06-15 13:19:33,2.196671486,-0.6914994717,-0.3139847219,-5.02064085,-8.82263279,7.182605267,-559.7524752475248,295.15841584158414,35.069306930693074,-7089.702970297029,-3846.009900990099,2601.089108910891,7
2024-06-15 13:19:33,4.725653648,0.9834930301,0.5937610269,-6.320692539,-6.998251438,8.518569946,-312.25,-78.0,-37.25,-7089.75,-3900.75,2483.0,7
2024-06-15 13:19:34,4.725653648,0.9834930301,0.5937610269,-6.320692539,-6.998251438,8.518569946,-302.8917748917749,-31.627705627705627,-48.134199134199136,-7127.471861471861,-3768.017316017316,2551.809523809524,7
2024-06-15 13:19:34,-0.1576032341,-1.342681766,1.200961113,-4.79319191,3.428496838,4.726154327,-497.2640692640693,-24.26839826839827,-203.1125541125541,-7224.008658008658,-3600.917748917749,2589.904761904762,7
2024-06-15 13:19:34,-0.3213151097,-1.196074128,0.2174680233,-1.618480325,2.990357876,8.547300339,-1135.342105263158,4.5,-336.07894736842104,-7206.881578947368,-4044.697368421053,2330.4473684210525,7
2024-06-15 13:19:34,-0.3213151097,-1.196074128,0.2174680233,-1.618480325,2.990357876,8.547300339,11.411764705882376,30.82352941176471,-154.80392156862746,-7099.921568627451,-4044.117647058824,2344.333333333333,7
2024-06-15 13:19:34,0.3787364662,-0.09285151958,0.1478293836,-1.333570361,2.458845139,10.25197124,-141.05825242718447,-30.271844660194176,-251.47572815533985,-7247.864077669903,-3827.26213592233,2282.533980582524,7
2024-06-15 13:19:34,0.2406809032,-0.05009094998,0.2272418737,-1.594538331,3.907337189,8.276755333,-383.3738317757009,18.48598130841121,-354.4485981308411,-7245.514018691589,-3950.093457943925,2262.588785046729,7
2024-06-15 13:19:34,0.2406809032,-0.05009094998,0.2272418737,-1.594538331,3.907337189,8.276755333,-473.656862745098,-163.55882352941177,79.07843137254902,-7276.931372549019,-4363.225490196079,2254.235294117647,7
2024-06-15 13:19:34,-0.1551597714,-0.1282816976,-0.1246165112,-1.355118155,4.350264549,8.437167168,-214.66666666666669,-445.4509803921569,57.09803921568627,-7063.411764705882,-4022.56862745098,2479.313725490196,7
2024-06-15 13:19:34,-0.1551597714,-0.1282816976,-0.1246165112,-0.9026140571,-1.991975784,8.485051155,-190.5204081632653,-10.84693877551021,317.85714285714283,-6955.602040816327,-4189.908163265306,2267.1020408163267,7
2024-06-15 13:19:34,2.048841953,0.1270599663,1.803274155,-0.9026140571,-1.991975784,8.485051155,321.7307692307692,570.0576923076923,-271.4038461538462,-7278.461538461538,-4141.961538461538,2034.6538461538464,7
2024-06-15 13:19:35,-1.582141042,0.1991420686,0.01588249579,-0.3950432837,7.862558365,9.995792389,216.921568627451,566.2156862745098,-616.8627450980392,-7073.598039215686,-4108.764705882353,2004.9019607843136,7
2024-06-15 13:19:35,-1.582141042,0.1991420686,0.01588249579,-0.3950432837,7.862558365,9.995792389,343.45631067961165,-217.64077669902912,-724.9611650485436,-7250.145631067961,-4053.902912621359,2339.0485436893205,7
2024-06-15 13:19:35,1.534493446,0.0720821023,-0.7855727077,-2.97599268,1.290474772,8.171410561,193.25714285714287,-883.2380952380952,-422.87619047619046,-7293.0,-4024.809523809524,2212.704761904762,7
2024-06-15 13:19:35,-2.01341176,0.1930334121,0.1942551434,-0.04070143029,0.2537853718,10.40520096,269.2371134020619,-775.1546391752578,-166.93814432989691,-7232.618556701031,-4464.886597938144,2485.494845360825,7
2024-06-15 13:19:35,-2.01341176,0.1930334121,0.1942551434,-0.04070143029,0.2537853718,10.40520096,516.92700729927,-1278.6788321167885,-1121.2116788321168,-6729.992700729927,-4641.85401459854,2885.525547445256,7
2024-06-15 13:19:35,0.5351179838,-0.03176499158,-0.4300491214,-2.614468336,-4.86741209,9.210494041,415.4671532846716,-1012.2554744525548,-1185.4452554744526,-6389.846715328467,-4538.934306569343,2776.036496350365,7
2024-06-15 13:19:35,0.5351179838,-0.03176499158,-0.4300491214,-0.4716577232,-0.2609679997,10.85291672,241.2535211267605,-791.9577464788732,-720.4225352112676,-6147.87323943662,-4594.112676056338,2955.535211267605,7
2024-06-15 13:19:35,-1.505172014,0.02443460934,0.5155702829,-0.4716577232,-0.2609679997,10.85291672,30.961904761904748,37.60952380952381,-315.23809523809524,-6464.07619047619,-4937.580952380952,3403.5619047619048,7
2024-06-15 13:19:35,-1.44042027,0.03665191308,-0.393397212,-1.759738207,0.2729389966,9.617507935,-42.86407766990294,122.37864077669904,-256.1747572815534,-6460.21359223301,-4893.669902912621,3387.339805825243,7
2024-06-15 13:19:35,-1.44042027,0.03665191308,-0.393397212,-1.759738207,0.2729389966,9.617507935,32.0,80.73076923076923,-169.30769230769232,-6440.538461538462,-4884.461538461538,3387.8846153846152,7
2024-06-15 13:19:36,4.950451851,0.2541199327,-0.9260717034,-2.494758129,2.971204281,9.787496567,-492.1111111111111,80.33333333333333,81.0,-6451.0,-4809.333333333333,3374.4444444444443,7
2024-06-15 13:19:36,0.5192354321,0.2052507252,0.5803219676,-1.209071875,-0.3926490843,9.301473618,-535.75,-59.93269230769231,-202.05769230769232,-6193.932692307692,-4814.846153846154,3034.4326923076924,7
2024-06-15 13:19:36,0.5192354321,0.2052507252,0.5803219676,-1.209071875,-0.3926490843,9.301473618,-238.73076923076923,333.0769230769231,-87.09615384615384,-6115.961538461538,-4751.903846153846,2964.192307692308,7
2024-06-15 13:19:36,-2.240653753,0.1478293836,-0.1527163088,-2.181117773,-0.1197100878,9.251194954,-763.8349514563107,179.28155339805824,131.44660194174756,-6104.504854368932,-4756.57281553398,3140.097087378641,7
2024-06-15 13:19:36,1.618792892,0.004886921961,-0.3200933933,-2.073378563,-3.588908434,10.02931118,-1471.8130841121497,1434.96261682243,-317.4672897196262,-6256.9626168224295,-4879.102803738318,2696.373831775701,7
2024-06-15 13:19:36,1.618792892,0.004886921961,-0.3200933933,-2.073378563,-3.588908434,10.02931118,-1483.921568627451,1483.3333333333333,-190.39215686274508,-6509.882352941177,-4937.411764705882,2402.5098039215686,7
2024-06-15 13:19:36,-1.198517561,0.03787364438,0.5876523852,-0.3016694188,-0.9026140571,9.727641106,-1088.571428571429,1003.809523809524,28.80952380952381,-6637.095238095239,-5113.238095238095,2209.6666666666665,7
2024-06-15 13:19:36,-1.198517561,0.03787364438,0.5876523852,-0.3016694188,-0.9026140571,9.727641106,-467.0961538461538,316.4807692307692,235.46153846153845,-6721.461538461538,-5200.9807692307695,1695.25,7
2024-06-15 13:19:36,-0.4190535545,0.728151381,-0.2260201424,-1.355118155,-0.4860229492,7.910442352,215.23,531.11,335.76,-6576.31,-4853.45,1846.59,7
2024-06-15 13:19:36,-2.724458933,1.632231951,-0.6377432942,-2.885013103,-0.2513911724,3.280056238,81.18181818181819,187.0909090909091,222.0909090909091,-6723.0,-4590.727272727273,1756.3030303030305,7
2024-06-15 13:19:37,-2.724458933,1.632231951,-0.6377432942,-2.885013103,-0.2513911724,3.280056238,-426.9320388349514,180.37864077669903,-73.13592233009709,-6550.766990291262,-4866.864077669903,1862.3495145631068,7
2024-06-15 13:19:37,-3.94374609,1.28159523,-0.632856369,-7.323863029,-10.9151659,4.46279192,-583.2442748091603,-56.12977099236641,306.21374045801525,-6618.580152671756,-4936.358778625954,1529.328244274809,7
2024-06-15 13:19:37,-3.94374609,1.28159523,-0.632856369,-7.323863029,-10.9151659,4.46279192,-396.2213740458016,-28.648854961832058,155.06870229007637,-6636.900763358779,-4789.793893129771,1518.6412213740457,7
2024-06-15 13:19:37,3.148399591,-0.2174680233,0.3970624208,-6.598419666,-10.67813969,7.13232708,277.7826086956522,69.3304347826087,-258.45217391304345,-6604.44347826087,-4780.391304347826,1492.6347826086956,7
2024-06-15 13:19:37,0.8405506015,-0.07574728876,0.5876523852,-5.75805521,-3.749319792,5.803544998,559.9684210526316,285.0,552.3473684210526,-6854.694736842105,-4629.568421052632,1469.8315789473684,7
2024-06-15 13:19:37,0.8405506015,-0.07574728876,0.5876523852,-5.75805521,-3.749319792,5.803544998,375.375,281.3942307692308,1356.3557692307693,-7089.951923076923,-4373.615384615385,1420.7692307692307,7
2024-06-15 13:19:37,0.6609562039,0.3738495409,0.7000515461,-6.79953289,-4.75488472,7.364564419,147.66666666666669,-46.66666666666666,1018.6666666666666,-7078.0,-4376.666666666667,1452.6666666666667,7
2024-06-15 13:19:37,1.229060888,0.4239404798,0.9468411207,-6.87854147,-1.517923832,6.758831501,3.762376237623769,-622.2277227722773,331.05940594059405,-7216.059405940594,-4436.445544554455,1864.2970297029703,7
2024-06-15 13:19:37,1.229060888,0.4239404798,0.9468411207,-6.87854147,-1.517923832,6.758831501,54.46153846153846,-267.7692307692308,-37.15384615384613,-6861.384615384615,-4103.769230769231,1788.4615384615386,7
2024-06-15 13:19:37,0.3750712574,0.4166100919,0.96028018,-6.986280441,0.07900865376,5.920860767,-188.64077669902912,65.32038834951456,292.6116504854369,-7170.932038834952,-4066.2038834951454,1909.893203883495,7
2024-06-15 13:19:38,0.719599247,0.235793978,0.6829473376,-6.919242859,2.398990154,4.718971729,164.0485436893204,226.9514563106796,548.9417475728155,-7155.436893203883,-4391.728155339806,1837.6019417475727,7
2024-06-15 13:19:38,0.719599247,0.235793978,0.6829473376,-6.919242859,2.398990154,4.718971729,453.32,319.63,-193.56,-7096.23,-3999.15,1695.95,7
2024-06-15 13:19:38,0.6976081133,0.1563815027,0.5009095073,-7.252037048,3.658340216,4.604049683,521.7407407407408,76.77777777777777,-448.3703703703704,-7250.666666666667,-3997.296296296296,1738.4814814814815,7
2024-06-15 13:19:38,0.6976081133,0.1563815027,0.5009095073,-7.252037048,3.658340216,4.604049683,479.7619047619048,-123.8190476190476,-132.9142857142857,-7137.847619047619,-4037.3333333333335,2009.904761904762,7
2024-06-15 13:19:38,0.4459316432,0.08552113175,0.342084527,-6.971915245,5.070919037,3.967192173,891.959595959596,-277.7676767676768,181.8282828282828,-7053.89898989899,-4199.585858585859,1958.242424242424,7
2024-06-15 13:19:38,0.2590068579,0.0232128799,0.2174680233,-6.981492043,5.023035049,3.552995205,1407.3076923076924,232.5192307692308,-252.59615384615384,-7001.057692307692,-4168.509615384615,2320.403846153846,7
2024-06-15 13:19:38,0.2590068579,0.0232128799,0.2174680233,-6.981492043,5.023035049,3.552995205,3144.5,972.5,-1484.0,-7141.0,-4127.0,2198.0,7
2024-06-15 13:19:38,0.232128799,0.007330383174,0.1429424733,-6.821080685,5.736507416,3.665522814,2629.5154639175257,242.6907216494845,-904.4639175257732,-7270.979381443299,-3763.855670103093,2615.577319587629,7
2024-06-15 13:19:38,0.232128799,0.007330383174,0.1429424733,-6.634333134,5.688623428,3.162740469,1871.4356435643565,53.75247524752476,-169.94059405940595,-7082.39603960396,-3910.960396039604,2838.29702970297,7
2024-06-15 13:19:38,0.1991420686,0.05497787148,0.216246292,-6.634333134,5.688623428,3.162740469,2376.68,793.89,-427.85,-6808.35,-4003.61,2808.07,7
2024-06-15 13:19:39,0.3029891551,0.05131268129,0.1600466967,-6.591237068,5.923254967,3.062183857,2451.2097902097903,708.1048951048951,-800.5664335664336,-6903.916083916084,-3781.5664335664337,3133.867132867133,7
2024-06-15 13:19:39,0.3029891551,0.05131268129,0.1600466967,-6.591237068,5.923254967,3.062183857,2010.6503496503497,287.8251748251748,-611.0559440559441,-6880.1398601398605,-3892.055944055944,3312.888111888112,7
2024-06-15 13:19:39,0.2370157093,0.08552113175,0.1844813079,-6.35660553,6.54574728,2.79163909,216.7142857142857,-280.9183673469388,85.3061224489796,-6867.34693877551,-3278.816326530612,3321.4489795918366,7
2024-06-15 13:19:39,0.1233947799,0.02076941915,0.08796459436,-6.251260757,6.402095318,2.511517525,-847.9381443298969,-309.5876288659793,245.3505154639176,-6902.0,-3633.484536082474,3588.3917525773195,7
2024-06-15 13:19:39,0.1233947799,0.02076941915,0.08796459436,-6.251260757,6.402095318,2.511517525,-1876.9444444444443,-394.8333333333333,203.27777777777777,-6671.75,-3919.5833333333335,3302.361111111112,7
2024-06-15 13:19:39,0.125838235,0.05009094998,0.05009094998,-6.332663536,6.928819656,2.327163935,-1889.3,-250.74,292.35,-6849.1,-3789.62,3231.98,7
2024-06-15 13:19:39,0.125838235,0.05009094998,0.05009094998,-6.332663536,6.928819656,2.327163935,-4823.472727272727,-264.3636363636364,1045.1818181818182,-6901.309090909091,-2883.018181818182,3017.2545454545457,7
2024-06-15 13:19:39,0.09896016866,0.03176499158,0.06719517708,-6.119579315,6.983886242,1.975216389,-7398.018181818182,-637.090909090909,781.5454545454545,-6923.127272727273,-3666.654545454545,2838.163636363636,7
2024-06-15 13:19:39,0.1087340117,0.04031710699,0.06719517708,-6.282385349,6.979097843,2.00873518,-6848.208333333333,542.1666666666667,1368.1875,-6798.5,-4714.958333333333,1696.2291666666667,7
2024-06-15 13:19:39,0.1087340117,0.04031710699,0.06719517708,-6.098031521,6.79953289,1.78368032,-1765.826923076923,981.4134615384615,864.8557692307693,-7361.3942307692305,-4315.528846153846,788.8557692307693,7
2024-06-15 13:19:40,0.09407325089,0.003665191587,0.02443460934,-6.098031521,6.79953289,1.78368032,-220.2135922330097,660.5436893203884,265.71844660194176,-7422.271844660194,-4107.300970873786,706.1844660194175,7
2024-06-15 13:19:40,0.08796459436,0.04764748737,0.06230825558,-6.047753334,7.019799232,1.508347034,-585.1980198019802,545.2277227722773,-294.81188118811883,-7324.693069306931,-3884.504950495049,465.7227722772277,7
2024-06-15 13:19:40,0.08796459436,0.04764748737,0.06230825558,-6.047753334,7.019799232,1.508347034,-885.0,154.18867924528303,301.1132075471698,-7304.433962264151,-3931.5283018867926,589.9056603773585,7
2024-06-15 13:19:40,0.05497787148,0.04398229718,0.04642575979,-6.162675381,7.242460251,1.223437071,-877.6698113207547,142.8679245283019,-72.27358490566039,-7317.735849056604,-3906.622641509434,544.4056603773585,7
2024-06-15 13:19:40,0.05497787148,0.04398229718,0.04642575979,-5.930437565,7.280767441,1.312022567,-503.030303030303,341.54545454545456,-236.60606060606065,-7374.222222222223,-3906.848484848485,181.26262626262627,7
2024-06-15 13:19:40,0.0720821023,0.0109955743,0.05864306539,-5.930437565,7.280767441,1.312022567,-285.22330097087377,-60.271844660194176,-549.1456310679612,-7573.271844660194,-3780.3883495145633,283.7378640776699,7
2024-06-15 13:19:40,0.04276056588,0.06475171447,-0.00122173049,-5.983109951,7.187393665,1.034295082,140.84615384615384,-459.5576923076923,-574.1730769230769,-7456.788461538462,-4070.8846153846152,-45.34615384615385,7
2024-06-15 13:19:40,-0.08307767659,0.0,-0.0415388383,-5.894524574,7.264008045,1.063025594,651.063829787234,-719.7021276595744,-457.0851063829787,-7340.468085106383,-4404.702127659574,450.1914893617021,7
2024-06-15 13:19:40,-0.08307767659,0.0,-0.0415388383,-5.894524574,7.264008045,1.063025594,1218.8225806451612,-601.7258064516129,-619.1290322580645,-7257.032258064516,-4298.419354838709,512.6774193548387,7
2024-06-15 13:19:40,-0.1942551434,-0.0293215327,-0.06597344577,-6.050147533,7.316680431,1.288080573,1197.1346153846157,-650.2307692307693,-729.2115384615385,-7243.346153846154,-4363.673076923077,857.2692307692307,7
2024-06-15 13:19:41,-0.1942551434,-0.0293215327,-0.06597344577,-6.050147533,7.316680431,1.288080573,1575.5,-657.125,392.375,-7185.0,-4094.625,1564.5,7
2024-06-15 13:19:41,-0.2455678284,-0.008552113548,-0.2076941878,-6.045359135,7.02937603,1.668758631,1707.6346153846157,-14.346153846153848,396.9807692307692,-7204.557692307692,-3778.8846153846152,1873.692307692308,7
2024-06-15 13:19:41,-0.7134906054,-0.2040289938,-0.7098253965,-5.880159378,6.476315498,0.8403648138,1193.9117647058824,186.343137254902,820.2843137254902,-7380.411764705882,-3622.323529411765,1732.2745098039215,7
2024-06-15 13:19:41,-0.7134906054,-0.2040289938,-0.7098253965,-5.880159378,6.476315498,0.8403648138,279.21495327102804,-314.9065420560748,319.8785046728972,-7331.77570093458,-3593.8130841121497,2110.5233644859813,7
2024-06-15 13:19:41,-0.9053022861,-0.8442157507,-0.976162672,-6.409277916,4.453215122,3.035847664,-369.3333333333333,-183.54545454545456,99.63636363636364,-7413.848484848485,-3684.242424242424,2060.757575757576,7
2024-06-15 13:19:41,-0.9053022861,-0.8442157507,-0.976162672,-7.242460251,2.375048161,5.018246651,87.2871287128713,239.4158415841584,-27.08910891089109,-7343.950495049505,-3957.227722772277,1506.4554455445543,7
2024-06-15 13:19:41,-1.265712738,-1.010371089,-1.082453251,-7.242460251,2.375048161,5.018246651,1394.5533980582525,-281.6796116504854,-300.3203883495146,-7584.097087378641,-3472.2815533980583,1850.466019417476,7
2024-06-15 13:19:41,-1.425759435,-1.071457624,-1.143539786,-6.35660553,-0.8403648138,8.018181801,1460.0588235294117,-823.7647058823529,163.19607843137254,-7587.35294117647,-3252.4117647058824,2057.392156862745,7
2024-06-15 13:19:41,-1.425759435,-1.071457624,-1.143539786,-6.35660553,-0.8403648138,8.018181801,908.8252427184466,-1311.0291262135922,24.96116504854369,-7404.388349514563,-3274.970873786408,2574.766990291262,7
2024-06-15 13:19:41,-1.803274155,-0.6487388611,-0.9908234477,-5.485116005,-2.420537949,9.016563416,-29.88349514563106,-1416.4271844660193,-1087.621359223301,-7108.766990291262,-3547.6990291262136,2902.466019417476,7
2024-06-15 13:19:42,-0.8210029006,-0.2345722616,-1.091005325,-4.278438568,-5.485116005,8.070854187,-546.6800000000001,-2033.0,-1650.84,-6610.96,-4098.64,3338.32,7
2024-06-15 13:19:42,-0.8210029006,-0.2345722616,-1.091005325,-4.278438568,-5.485116005,8.070854187,-339.1388888888889,-1593.0092592592591,-2280.7685185185187,-6491.407407407408,-4433.0,3272.564814814815,7
2024-06-15 13:19:42,-0.3726277947,0.2247984111,-0.4129449129,-4.630385876,-7.58961916,6.804321289,-397.7,-846.92,-2341.8,-6285.68,-4621.44,3323.72,7
2024-06-15 13:19:42,-0.3726277947,0.2247984111,-0.4129449129,-4.630385876,-7.58961916,6.804321289,-1057.433962264151,-335.8018867924528,-2251.603773584906,-6193.971698113208,-4785.481132075472,3241.679245283018,7
2024-06-15 13:19:42,0.3213151097,0.02809980139,0.1783726513,-3.773261786,-6.447585106,6.639121532,-954.5049504950496,46.1881188118812,-1806.8118811881188,-5923.326732673268,-5321.792079207921,3354.3168316831684,7
2024-06-15 13:19:42,-0.2235766798,0.06475171447,0.06108652428,-3.715801001,-6.184223175,6.679822922,-811.709090909091,-25.181818181818187,-1878.418181818182,-5512.6,-5635.209090909091,3074.509090909091,7
2024-06-15 13:19:42,-0.2235766798,0.06475171447,0.06108652428,-3.715801001,-6.184223175,6.679822922,-338.44029850746267,-5.552238805970148,-1718.8059701492537,-5124.141791044776,-6217.119402985075,3403.731343283582,7
2024-06-15 13:19:42,-0.1514945775,0.1356120855,0.106290549,-4.005499363,-6.473921299,6.64869833,-436.02702702702703,171.72972972972974,-1424.2432432432431,-4783.945945945946,-5924.864864864865,2865.7027027027025,7
2024-06-15 13:19:42,-2.453234911,-0.1649336219,0.196698606,-4.414907932,-5.331887245,5.432443619,-42.0,101.0,-2305.0,-4618.0,-6772.5,3080.0,7
2024-06-15 13:19:42,-2.453234911,-0.1649336219,0.196698606,-4.414907932,-5.331887245,5.432443619,202.32038834951456,350.4757281553398,-2941.330097087379,-4154.834951456311,-6681.242718446602,3155.2815533980583,7
2024-06-15 13:19:43,-2.261423111,0.1148426682,0.1343903542,-4.563348293,-9.205705643,1.67115283,-387.96153846153845,239.3942307692308,-2728.701923076923,-3920.980769230769,-6782.663461538462,3134.576923076923,7
2024-06-15 13:19:43,-2.261423111,0.1148426682,0.1343903542,-4.745307922,-9.552865028,2.102109194,-1355.4117647058824,-141.54901960784315,-2516.607843137255,-3203.725490196078,-7246.843137254902,2795.058823529412,7
2024-06-15 13:19:43,2.279749155,0.05009094998,0.2015855312,-4.745307922,-9.552865028,2.102109194,-877.7961165048544,-333.24271844660194,-2664.9417475728155,-2719.456310679612,-7767.941747572816,2463.747572815534,7
2024-06-15 13:19:43,1.484402537,0.1111774743,0.4850270152,-5.386953831,-6.80192709,4.163516521,-422.77777777777777,-467.6666666666667,-2493.722222222222,-2301.277777777778,-7703.833333333333,2661.8888888888887,7
2024-06-15 13:19:43,1.484402537,0.1111774743,0.4850270152,-5.386953831,-6.80192709,4.163516521,-236.31914893617025,-177.87234042553192,-1907.1808510638296,-1483.148936170213,-7996.904255319149,2278.244680851064,7
2024-06-15 13:19:43,1.143539786,0.0293215327,0.3518583775,-5.5042696,-4.917690277,6.715735912,-248.81372549019608,24.411764705882355,-1886.264705882353,-1354.3823529411766,-7814.725490196079,2207.392156862745,7
2024-06-15 13:19:43,0.9529497623,-0.2382374406,0.3689626157,-5.7963624,-2.051830769,6.610390663,-321.392523364486,-68.5981308411215,-716.4392523364486,-945.2336448598132,-7832.280373831775,2227.2242990654204,7
2024-06-15 13:19:43,0.9529497623,-0.2382374406,0.3689626157,-5.7963624,-2.051830769,6.610390663,-281.6666666666667,83.11111111111111,-589.8888888888889,-1090.2222222222222,-7836.666666666667,2247.8888888888887,7
2024-06-15 13:19:43,0.1930334121,-0.1246165112,0.2687807083,-5.851428986,-3.507505417,7.015010834,-366.0,-16.0,-695.3333333333334,-825.0,-7900.333333333333,2399.333333333333,7
2024-06-15 13:19:44,0.3921754956,-0.0171042271,0.09285151958,-5.257667065,-1.30005157,7.000645638,-244.7407407407408,-235.3333333333333,-776.8888888888889,-522.0740740740741,-7827.222222222223,2198.962962962963,7
2024-06-15 13:19:44,-1.317025423,0.2553416789,0.03787364438,-5.913678169,-2.00873518,7.299921036,-325.38461538461536,68.38461538461539,-555.0,-618.7692307692307,-7928.7692307692305,2181.076923076923,7
2024-06-15 13:19:44,-1.317025423,0.2553416789,0.03787364438,-5.913678169,-2.00873518,7.299921036,10.055172413793102,-83.83448275862068,-208.83448275862068,-239.09655172413792,-7910.11724137931,2372.4275862068966,7
2024-06-15 13:19:44,-2.119702339,0.03420845419,-0.109955743,-5.365406036,-5.355829239,4.702212334,86.23076923076923,-95.3076923076923,-320.9230769230769,-563.3846153846154,-7869.923076923077,2408.230769230769,7
2024-06-15 13:19:44,2.236988544,0.2028072625,-0.2015855312,-6.39251852,-6.272808552,5.892130375,-274.1276595744681,109.76595744680851,-588.468085106383,-532.8510638297872,-7856.702127659574,2412.0,7
2024-06-15 13:19:44,2.236988544,0.2028072625,-0.2015855312,-6.39251852,-6.272808552,5.892130375,-261.84313725490193,55.74509803921568,-580.3333333333334,-302.16666666666663,-7912.578431372549,2423.303921568628,7
2024-06-15 13:19:44,3.85455966,-0.1014036313,0.3213151097,-5.614402771,-1.769315004,8.942343712,12.446601941747574,103.54368932038837,-247.67961165048544,-326.56310679611653,-7886.640776699029,2395.883495145631,7
2024-06-15 13:19:44,3.85455966,-0.1014036313,0.3213151097,-5.614402771,-1.769315004,8.942343712,50.30841121495328,119.6355140186916,-202.41121495327104,-89.06542056074767,-7898.0,2405.9345794392525,7
2024-06-15 13:19:44,1.329242826,-0.1123992056,0.9053022861,-6.136339188,1.8602947,8.611943245,66.84541062801932,-60.82608695652174,-335.8550724637681,102.0,-7913.531400966183,2380.5942028985505,7
2024-06-15 13:19:44,0.4092797041,-0.762359798,0.1429424733,-5.008669853,0.7685387731,7.304709435,77.47342995169082,52.21739130434781,-308.3188405797101,102.0,-7914.497584541063,2383.4927536231885,7
2024-06-15 13:19:45,0.4092797041,-0.762359798,0.1429424733,-5.008669853,0.7685387731,7.304709435,31.081632653061224,-99.8469387755102,-125.8469387755102,65.45918367346938,-7876.418367346939,2285.428571428572,7
2024-06-15 13:19:45,-0.3872885704,0.1759291887,0.2419026345,-4.786009312,-1.989581585,6.861782074,-162.36633663366337,-116.81188118811882,-303.7029702970297,107.62376237623762,-7881.742574257426,2404.2178217821784,7
2024-06-15 13:19:45,2.042733431,-0.8881980777,-0.1869247705,-3.201047659,6.191405773,6.311115742,66.08910891089108,-121.0,-92.75247524752476,55.73267326732673,-7875.386138613861,2326.5841584158416,7
2024-06-15 13:19:45,2.042733431,-0.8881980777,-0.1869247705,-3.201047659,6.191405773,6.311115742,-171.79439252336448,104.04672897196262,-46.05607476635514,50.0,-7875.757009345794,2427.3177570093458,7
2024-06-15 13:19:45,-1.631010175,0.6267477274,-0.2895501256,-4.065354347,5.525817394,9.516951561,-64.64646464646465,105.07070707070709,-200.53535353535352,79.83838383838383,-7882.252525252526,2396.686868686869,7
2024-06-15 13:19:45,-1.631010175,0.6267477274,-0.2895501256,-4.065354347,5.525817394,9.516951561,17.08653846153846,64.125,37.94230769230769,108.6346153846154,-7901.596153846154,2392.201923076923,7
2024-06-15 13:19:45,1.242499948,-0.342084527,-0.4276056588,-5.216965675,1.795651317,4.747702122,17.193236714975846,110.52173913043478,23.64251207729469,70.93236714975845,-7902.062801932367,2404.3236714975847,7
2024-06-15 13:19:45,0.6511823535,-1.108109593,0.03909537569,-1.034295082,3.098097086,12.18409252,22.16190476190476,79.19047619047619,39.54285714285714,88.51428571428572,-7911.809523809524,2395.5619047619048,7
2024-06-15 13:19:45,0.6511823535,-1.108109593,0.03909537569,-1.034295082,3.098097086,12.18409252,45.1980198019802,75.62376237623762,-270.55445544554453,105.54455445544556,-7879.316831683168,2402.683168316832,7
2024-06-15 13:19:45,-2.733011007,0.07452555746,0.6878342628,-4.223371983,-0.7781155705,8.348581314,22.88235294117647,111.62745098039215,4.882352941176471,-105.31372549019608,-7898.0,2401.43137254902,7
2024-06-15 13:19:46,2.713463306,-0.4166100919,-0.1307251602,-4.771644115,1.977610588,3.280056238,29.01948051948052,-118.47402597402598,13.928571428571429,117.56493506493509,-7889.051948051948,2422.9220779220777,7
2024-06-15 13:19:46,2.713463306,-0.4166100919,-0.1307251602,-4.771644115,1.977610588,3.280056238,30.967532467532468,34.12337662337663,-193.2142857142857,-25.94155844155844,-7894.2467532467535,2415.12987012987,7
2024-06-15 13:19:46,-2.284636021,0.5595525503,0.009773843922,-2.300827742,5.54257679,10.9008007,46.490566037735846,105.60377358490568,-315.62264150943395,-104.60377358490568,-7885.264150943396,2394.9056603773583,7
2024-06-15 13:19:46,1.882686734,-0.4691445231,0.1233947799,-1.422155857,-0.7278373241,7.345410824,60.73333333333333,33.8,18.4,-46.6,-7889.133333333333,2419.4666666666667,7
2024-06-15 13:19:46,1.882686734,-0.4691445231,0.1233947799,-1.422155857,-0.7278373241,7.345410824,23.5,-84.16666666666666,46.833333333333336,-14.0,-7864.666666666667,2406.6666666666665,7
2024-06-15 13:19:46,-1.459967971,0.5155702829,-0.1050688252,-2.099714994,3.531447411,9.351752281,45.77358490566038,-45.707547169811335,-90.89622641509432,191.46226415094333,-7903.132075471698,2366.1132075471696,7
2024-06-15 13:19:46,-1.459967971,0.5155702829,-0.1050688252,-2.099714994,3.531447411,9.351752281,82.41584158415841,229.06930693069307,193.6633663366337,-41.85148514851485,-7892.871287128712,2391.128712871287,7
2024-06-15 13:19:46,2.365270138,-0.5583308339,-0.1466076523,-3.629609823,2.073378563,11.38203526,81.13725490196079,205.54901960784315,517.5882352941177,-77.90196078431373,-7900.21568627451,2254.9803921568628,7
2024-06-15 13:19:46,0.6988298297,-0.125838235,-0.09285151958,-1.436521053,4.220977783,11.71243477,-80.49019607843137,269.21568627450984,907.5882352941176,26.294117647058822,-7888.392156862745,2189.549019607843,7
2024-06-15 13:19:46,0.6988298297,-0.125838235,-0.09285151958,-1.436521053,4.220977783,11.71243477,32.20192307692308,-226.34615384615384,1306.7884615384614,-391.75,-7939.086538461538,2499.971153846154,7
2024-06-15 13:19:47,0.8991936445,-0.5729916096,0.37751472,-2.310404539,5.760449409,6.35421133,-356.019801980198,-253.7722772277228,1275.5148514851485,-704.3069306930693,-8024.118811881188,2615.920792079208,7
2024-06-15 13:19:47,0.8991936445,-0.5729916096,0.37751472,-2.310404539,5.760449409,6.35421133,-609.3867924528302,43.5188679245283,3381.084905660377,-1486.5283018867924,-7987.603773584906,2393.188679245283,7
2024-06-15 13:19:47,-0.8429940343,0.2809980214,-0.1295034289,-1.177947283,5.640739441,7.771578789,-286.0769230769231,-124.53846153846156,4500.269230769231,-1999.076923076923,-7908.384615384615,1944.1538461538464,7
2024-06-15 13:19:47,-1.156978726,0.6609562039,0.02443460934,-1.881842494,3.82593441,9.071630478,385.4077669902912,-266.3398058252427,4575.310679611651,-2801.533980582524,-7738.805825242718,2089.0582524271845,7
2024-06-15 13:19:47,-1.156978726,0.6609562039,0.02443460934,-1.881842494,3.82593441,9.071630478,1123.223300970874,691.7572815533981,3679.145631067961,-4036.52427184466,-6805.456310679611,2341.378640776699,7
2024-06-15 13:19:47,-4.795292377,0.3237585723,-1.545489073,-1.098938584,0.9552865028,6.732495308,793.4807692307693,361.0576923076923,3954.6346153846152,-5024.961538461538,-6329.461538461538,2495.153846153846,7
2024-06-15 13:19:47,-2.406809092,-0.3335324228,-1.389107585,-4.67827034,-7.884106159,5.051765442,559.6,212.5428571428572,3422.609523809524,-5101.733333333334,-6105.0,2508.647619047619,7
2024-06-15 13:19:47,-2.406809092,-0.3335324228,-1.389107585,-4.67827034,-7.884106159,5.051765442,-8.166666666666671,-87.66666666666667,1580.5,-5680.666666666667,-5859.5,2859.6666666666665,7
2024-06-15 13:19:47,0.04520402849,0.6976081133,0.5180137157,-1.771709204,-9.919178009,10.70687008,-84.20422535211267,40.12676056338028,1006.2887323943662,-5823.140845070423,-5294.732394366197,2918.8028169014083,7
2024-06-15 13:19:47,0.9321803451,1.009149432,0.3494149148,-3.708618402,-8.494627953,6.20337677,-97.58450704225352,41.53521126760563,787.2746478873239,-5835.816901408451,-5280.647887323944,2761.056338028169,7
2024-06-15 13:19:48,0.9321803451,1.009149432,0.3494149148,-3.708618402,-8.494627953,6.20337677,-308.1764705882353,66.96078431372548,186.45098039215685,-6167.980392156863,-5312.274509803921,2912.470588235294,7
2024-06-15 13:19:48,0.8185594082,0.7049384713,-0.3579670191,-4.060565948,-5.38934803,4.333505154,626.7428571428571,-20.047619047619047,620.9714285714285,-5873.761904761905,-5453.323809523809,2816.333333333333,7
2024-06-15 13:19:48,0.8185594082,0.7049384713,-0.3579670191,-4.060565948,-5.38934803,4.333505154,601.0285714285715,175.1904761904762,18.11428571428576,-6249.952380952381,-5085.704761904762,2849.6666666666665,7
2024-06-15 13:19:48,0.3799581826,0.2272418737,-0.9700540304,-2.659958124,-5.901707172,5.863399982,130.2980769230769,33.71153846153845,-475.61538461538464,-6238.442307692308,-5104.009615384615,2922.413461538461,7
2024-06-15 13:19:48,-0.1087340117,0.1197295859,-0.6939429045,-1.170764685,-8.262390137,6.517016888,-571.4019607843137,-222.99019607843127,-591.1470588235294,-5967.313725490196,-5342.803921568628,2696.4901960784314,7
2024-06-15 13:19:48,-0.1087340117,0.1197295859,-0.6939429045,-1.170764685,-8.262390137,6.517016888,21.59615384615384,-148.1153846153846,-609.3653846153846,-5679.557692307692,-5708.173076923077,2701.769230769231,7
2024-06-15 13:19:48,-0.09285151958,0.06230825558,-0.2956587672,-2.003946781,-7.297526836,6.998251438,-190.17821782178217,-55.72277227722772,-426.4554455445544,-5885.485148514851,-5428.653465346535,2725.366336633663,7
2024-06-15 13:19:48,-0.09285151958,0.06230825558,-0.2956587672,-2.003946781,-7.297526836,6.998251438,-34.466019417475735,66.27184466019418,-73.07766990291262,-5787.902912621359,-5349.0873786407765,2873.8543689320386,7
2024-06-15 13:19:48,0.03298672289,-0.01954768784,-0.1893682331,-1.304839969,-7.900865555,6.390124321,-96.1509433962264,26.764150943396224,-54.95283018867924,-5802.801886792453,-5331.66037735849,2772.575471698113,7
2024-06-15 13:19:48,-0.3604104817,-0.1783726513,-0.5265658498,-0.2106897533,-8.276755333,6.897695065,77.80582524271844,-112.97087378640776,-95.2233009708738,-6005.165048543689,-5320.78640776699,2729.660194174757,7
2024-06-15 13:19:49,-0.3604104817,-0.1783726513,-0.5265658498,-0.2106897533,-8.276755333,6.897695065,-91.6,106.5,-122.36,-5992.4,-5302.76,2956.5,7
2024-06-15 13:19:49,0.2761110961,0.1514945775,0.7660250068,2.138022184,-6.157886982,5.688623428,95.79439252336448,32.81308411214953,283.2803738317757,-5994.5046728971965,-5281.915887850468,3128.056074766356,7
2024-06-15 13:19:49,1.953547001,0.1123992056,0.1197295859,-1.443703651,-4.022258759,7.24485445,-126.63636363636364,25.545454545454547,285.5656565656566,-5768.929292929293,-5251.858585858586,3136.282828282828,7
2024-06-15 13:19:49,1.953547001,0.1123992056,0.1197295859,-1.443703651,-4.022258759,7.24485445,-202.03317535545025,47.93838862559242,-10.654028436018958,-5779.578199052133,-5254.691943127962,3129.6018957345973,7
2024-06-15 13:19:49,-0.9456194043,-0.7904596329,-1.755626678,-0.8571242094,-6.627150536,7.635109425,-60.80094786729859,-32.6303317535545,-12.075829383886257,-5789.530805687204,-5251.848341232228,3124.388625592417,7
2024-06-15 13:19:49,-0.9456194043,-0.7904596329,-1.755626678,-0.8571242094,-6.627150536,7.635109425,-78.75,-39.44230769230769,-1.5,-5805.807692307692,-5476.615384615385,3076.346153846154,7
2024-06-15 13:19:49,1.540602207,-1.744631171,-0.6609562039,0.8786720037,-8.789113998,10.69250488,-200.6326530612245,50.16326530612245,102.44897959183672,-5864.469387755102,-5477.102040816327,2776.530612244898,7
2024-06-15 13:19:49,0.6279694438,-1.036027431,0.9724974632,1.244984865,-7.163451672,10.24718285,44.9245283018868,-64.11320754716982,64.16981132075472,-5869.245283018868,-5464.207547169812,2776.169811320755,7
2024-06-15 13:19:49,0.6279694438,-1.036027431,0.9724974632,1.244984865,-7.163451672,10.24718285,67.89473684210526,109.33834586466163,67.17293233082707,-5870.105263157895,-5471.187969924812,2837.406015037594,7
2024-06-15 13:19:49,0.668286562,-0.2822197378,-0.1001819,3.962403774,-2.619256735,11.04205799,73.15789473684211,99.5639097744361,79.95488721804512,-5864.8421052631575,-5454.646616541353,3045.6766917293235,7
2024-06-15 13:19:50,-7.750658035,1.209513187,4.599815369,5.736507416,-18.91658783,0.5674257874,-291.62135922330094,-22.271844660194176,295.3980582524272,-6225.834951456311,-5283.640776699029,2795.7281553398057,7
2024-06-15 13:19:50,-7.750658035,1.209513187,4.599815369,5.736507416,-18.91658783,0.5674257874,-105.40384615384616,69.51923076923077,-31.673076923076923,-6206.884615384615,-5393.673076923077,2764.076923076923,7
2024-06-15 13:19:50,-4.349360466,-3.508810043,3.926641703,-2.298433542,-8.422801971,-1.051054597,49.96116504854369,1.679611650485437,58.592233009708735,-6163.135922330097,-5381.407766990291,3080.980582524272,7
2024-06-15 13:19:50,-4.349360466,-3.508810043,3.926641703,-2.298433542,-8.422801971,-1.051054597,45.94117647058823,70.37254901960785,118.50980392156865,-5871.196078431372,-5117.019607843137,3079.098039215686,7
2024-06-15 13:19:50,-0.9236282706,-2.957809448,0.08307767659,-3.174711466,-4.209006786,1.642422318,97.87128712871288,245.34653465346537,-3.792079207920793,-6193.782178217822,-5100.633663366337,2826.386138613861,7
2024-06-15 13:19:50,0.1991420686,-0.2443460971,0.1722639948,-4.175487995,-6.868964672,3.627215624,17.126213592233007,7.601941747572823,-117.67961165048544,-6258.271844660194,-5085.747572815534,2777.097087378641,7
2024-06-15 13:19:50,0.1991420686,-0.2443460971,0.1722639948,-4.175487995,-6.868964672,3.627215624,-269.57142857142856,-115.33333333333331,72.0952380952381,-6241.095238095239,-5087.714285714285,2774.6666666666665,7
2024-06-15 13:19:50,0.9786061049,0.4105014503,-0.5998696685,-4.058171749,-9.962273598,-1.285686255,-314.22115384615387,354.65384615384613,-177.47115384615384,-6191.278846153846,-5061.875,2769.278846153846,7
2024-06-15 13:19:50,0.5302310586,-1.003040791,0.3970624208,-4.156333923,-2.432508945,3.143586874,-216.3846153846154,334.9423076923077,-270.25961538461536,-6232.384615384615,-5067.884615384615,2734.663461538461,7
2024-06-15 13:19:50,0.5302310586,-1.003040791,0.3970624208,-4.156333923,-2.432508945,3.143586874,-569.2429906542056,67.13084112149532,58.20560747663552,-6158.420560747663,-5100.691588785046,2818.607476635514,7
2024-06-15 13:19:51,1.953547001,0.3946189582,-0.5070181489,-4.299986362,-7.730877399,2.384624958,-665.1237113402062,55.01030927835052,-170.8556701030928,-6213.164948453608,-5418.948453608247,2647.0,7
2024-06-15 13:19:51,1.953547001,0.3946189582,-0.5070181489,-4.299986362,-7.730877399,2.384624958,-619.4807692307693,-285.5769230769231,-267.1730769230769,-6222.288461538462,-5357.269230769231,2477.153846153846,7
2024-06-15 13:19:51,2.932153225,0.6291912198,-0.0720821023,-5.018246651,-6.059724331,5.42765522,-446.21,-117.43,-294.92,-6007.77,-5506.95,2605.98,7
2024-06-15 13:19:51,5.616294861,0.0109955743,-2.971248627,-6.931213856,7.204153061,7.987056732,-199.53846153846155,104.82692307692308,-483.1923076923077,-6003.211538461538,-5632.423076923077,2621.192307692308,7
2024-06-15 13:19:51,5.616294861,0.0109955743,-2.971248627,-6.931213856,7.204153061,7.987056732,660.5094339622642,298.2641509433962,-683.8018867924528,-5809.1509433962265,-5689.018867924528,2564.754716981132,7
2024-06-15 13:19:51,0.632856369,0.4569272101,-3.673743486,-4.556165695,-3.758896589,6.933608055,825.0291262135922,239.5242718446601,-1035.116504854369,-5972.320388349514,-5625.436893203883,2596.9320388349515,7
2024-06-15 13:19:51,-3.28156805,-0.4495968223,-1.832595706,0.7469909191,-7.726089001,3.663128614,505.89473684210526,-77.90789473684211,-1298.4473684210527,-5581.263157894737,-5893.684210526316,2588.4210526315787,7
2024-06-15 13:19:51,-3.28156805,-0.4495968223,-1.832595706,0.7469909191,-7.726089001,3.663128614,508.5263157894737,-86.46052631578948,-1599.7631578947369,-5649.684210526316,-5801.578947368421,2827.894736842105,7
2024-06-15 13:19:51,-0.9480628371,0.07086037099,0.05131268129,-2.877830505,-7.795520782,4.074931145,566.1071428571429,52.08333333333334,-1784.809523809524,-5384.273809523809,-5834.785714285715,2812.9166666666665,7
2024-06-15 13:19:51,-0.4386012554,0.5717698932,-0.5094616413,0.3136404157,-10.43871975,7.003039837,23.57894736842105,47.578947368421055,-1971.0,-4953.8421052631575,-6425.263157894737,2723.736842105264,7
2024-06-15 13:19:52,-0.4386012554,0.5717698932,-0.5094616413,0.3136404157,-10.43871975,7.003039837,-587.8703703703703,-285.5740740740741,-1477.3333333333333,-4268.481481481482,-6370.759259259259,2884.259259259259,7
2024-06-15 13:19:52,1.563814998,-0.01832595654,-0.00122173049,-1.400607944,-6.361393929,6.224924564,-1117.305439330544,-299.64853556485355,-2233.5188284518827,-4104.794979079498,-6900.179916317991,2881.5983263598328,7
2024-06-15 13:19:52,1.563814998,-0.01832595654,-0.00122173049,-1.400607944,-6.361393929,6.224924564,-983.4142259414226,-212.6192468619247,-2323.89539748954,-4020.694560669456,-6963.778242677824,2853.5648535564856,7
2024-06-15 13:19:52,-0.4202753007,-0.06841690838,0.0354301855,-1.659181833,-7.668628216,5.317522049,-849.5230125523012,-125.5899581589958,-2414.2719665271966,-3936.594142259414,-7027.376569037657,2825.531380753138,7
2024-06-15 13:19:52,0.02076941915,-0.07086037099,0.2211332172,-1.642422318,-7.759607792,6.126761913,-571.9230769230769,-113.2923076923077,-2752.5846153846155,-3026.8923076923074,-7312.692307692308,2435.692307692308,7
2024-06-15 13:19:52,0.02076941915,-0.07086037099,0.2211332172,-1.642422318,-7.759607792,6.126761913,-155.72,88.08,-2034.96,-2569.44,-7781.2,2631.44,7
2024-06-15 13:19:52,0.004886921961,0.01221730467,0.7110471725,-0.6033388376,-7.702147007,5.360617638,-220.7843137254902,-185.62745098039213,-1445.372549019608,-1706.7941176470588,-7933.656862745098,2288.892156862745,7
2024-06-15 13:19:52,0.004886921961,0.01221730467,0.7110471725,-0.6033388376,-7.702147007,5.360617638,69.83495145631068,-68.28155339805826,-1549.7184466019417,-1484.0582524271845,-7987.116504854369,2248.029126213592,7
2024-06-15 13:19:52,-0.2028072625,0.3665191531,1.54304564,-1.142034173,-8.611943245,5.724536419,-173.3846153846154,-129.6153846153846,-1058.2307692307693,-1433.2307692307693,-8016.846153846154,2245.230769230769,7
2024-06-15 13:19:52,0.4166100919,0.03176499158,0.9199630618,-4.769249916,-5.475539207,4.156333923,-309.64356435643566,-82.50495049504951,-831.2178217821782,-1071.5643564356435,-7878.792079207921,2194.762376237624,7
2024-06-15 13:19:53,0.4166100919,0.03176499158,0.9199630618,-4.769249916,-5.475539207,4.156333923,-69.21153846153845,-292.5192307692308,-711.2115384615385,-848.1730769230769,-7873.692307692308,2206.8846153846152,7
2024-06-15 13:19:53,-0.712268889,-0.5009095073,-0.1282816976,-7.362170219,-5.913678169,5.109226227,-61.91176470588236,-184.54901960784315,-830.9019607843137,-802.4215686274509,-7885.078431372549,2421.6372549019607,7
2024-06-15 13:19:53,-0.8258898258,-0.7929030657,0.4960225821,-6.459556103,-6.708553314,6.282385349,25.584158415841586,-134.56435643564356,-499.53465346534654,-412.36633663366337,-7846.287128712871,2275.40594059406,7
2024-06-15 13:19:53,-0.8258898258,-0.7929030657,0.4960225821,-6.459556103,-6.708553314,6.282385349,-272.29411764705884,-143.41176470588235,-478.5882352941176,-357.3529411764706,-7887.764705882353,2228.058823529412,7
2024-06-15 13:19:53,-1.27793014,-0.5119050741,0.7244861722,-4.98233366,-6.172252178,6.466738701,96.97196261682242,69.45794392523365,-349.1214953271028,-203.46728971962617,-7895.887850467289,2258.280373831776,7
2024-06-15 13:19:53,-1.27793014,-0.5119050741,0.7244861722,-4.98233366,-6.172252178,6.466738701,-120.02,-311.72,-335.15,-245.76,-7854.42,2238.88,7
2024-06-15 13:19:53,0.6194173694,-0.4691445231,0.3628539443,-4.244919777,-7.402871609,6.291962147,80.0,46.76923076923077,-350.0,-339.38461538461536,-7854.538461538462,2282.0,7
2024-06-15 13:19:53,3.336545944,0.4557054639,0.4972442985,-6.112396717,-6.591237068,8.73404789,67.09848484848484,97.5909090909091,-323.4621212121212,-346.1666666666667,-7882.818181818182,2355.0530303030305,7
2024-06-15 13:19:53,3.336545944,0.4557054639,0.4972442985,-6.112396717,-6.591237068,8.73404789,99.67424242424242,93.04545454545456,-137.8560606060606,-362.8333333333333,-7891.909090909091,2564.901515151515,7
2024-06-15 13:19:53,2.370157242,-0.1038470939,1.215621829,-6.481103897,-0.1292868853,7.412448406,49.14285714285714,-110.82857142857142,-194.7619047619048,-286.1428571428572,-7887.542857142857,2354.0761904761903,7
2024-06-15 13:19:54,-0.3714060783,-0.9224064946,0.5436700583,-4.381389141,1.996764183,7.738059998,85.45544554455445,-49.0,87.12871287128714,-328.53465346534654,-7817.495049504951,2606.019801980198,7
2024-06-15 13:19:54,-0.3714060783,-0.9224064946,0.5436700583,-4.381389141,1.996764183,7.738059998,-288.873786407767,18.271844660194176,-292.1650485436893,-255.25242718446603,-7849.184466019417,2583.233009708738,7
2024-06-15 13:19:54,-0.09529497474,-0.5241223574,0.2858849466,-3.34469986,2.545036316,8.171410561,-247.54205607476635,81.8411214953271,-297.7102803738318,19.25233644859813,-7878.971962616823,2290.1308411214955,7
2024-06-15 13:19:54,0.3371976018,-0.2846632004,0.04276056588,-2.913743496,2.169146776,8.607154846,17.9,-42.82,-259.82,-287.72,-7868.0,2307.22,7
2024-06-15 13:19:54,0.4007275999,-0.2553416789,-0.004886921961,-2.801215887,3.505111217,8.159439087,34.504854368932044,-99.24271844660194,13.37864077669903,13.145631067961164,-7878.73786407767,2287.2912621359224,7
2024-06-15 13:19:54,0.4007275999,-0.2553416789,-0.004886921961,-2.801215887,3.505111217,8.159439087,53.66037735849056,-108.35849056603774,83.18867924528303,-13.1320754716981,-7863.490566037736,2565.0943396226417,7
2024-06-15 13:19:54,0.4337143302,-0.248011291,0.04764748737,-2.212242365,3.945644379,8.83699894,28.90384615384616,-106.7403846153846,-38.02884615384615,-221.625,-7853.125,2574.846153846154,7
2024-06-15 13:19:54,-1.0531317,0.17715092,-0.1233947799,-0.9720458984,6.030993938,10.11310768,28.15384615384616,-77.23076923076923,-30.384615384615383,-331.2692307692308,-7869.961538461538,2581.769230769231,7
2024-06-15 13:19:54,-1.0531317,0.17715092,-0.1233947799,-0.9720458984,6.030993938,10.11310768,10.882352941176473,-35.23529411764706,-63.294117647058826,-347.52941176470586,-7855.235294117647,2295.9411764705883,7
2024-06-15 13:19:55,-1.345125318,0.06719517708,-0.06963863969,-2.205059767,0.1699883193,5.71974802,91.49514563106796,-73.9126213592233,102.66019417475728,-366.0,-7857.359223300971,2492.1456310679614,7
2024-06-15 13:19:55,-1.448972344,-0.2895501256,0.1905899495,-1.273715258,9.320627213,9.490615845,-19.961538461538453,263.96153846153845,714.5961538461538,-166.15384615384616,-7876.192307692308,2641.519230769231,7
2024-06-15 13:19:55,-1.448972344,-0.2895501256,0.1905899495,-1.273715258,9.320627213,9.490615845,-85.56603773584905,213.9245283018868,1208.0283018867924,-456.6981132075472,-7827.745283018868,2479.471698113208,7
2024-06-15 13:19:55,-3.404962778,0.161268428,-0.2565633953,-3.368641853,0.3734954596,7.254431248,-183.12121212121207,480.75757575757575,2178.5151515151515,-1169.7878787878788,-7967.727272727273,2576.333333333333,7
2024-06-15 13:19:55,-3.404962778,0.161268428,-0.2565633953,-2.880224705,7.127538681,8.693346024,-246.1176470588236,382.2941176470589,3697.117647058824,-1677.9411764705883,-7971.294117647059,2261.8823529411766,7
2024-06-15 13:19:55,7.611381054,-0.1490511149,-0.4508185387,-2.880224705,7.127538681,8.693346024,-334.64150943396226,313.52830188679246,4000.924528301887,-1983.245283018868,-8008.905660377359,2216.679245283018,7
2024-06-15 13:19:55,-1.538158655,0.06108652428,0.2064724565,-2.042253971,3.696647406,8.113949776,-173.12037037037038,-130.25,2765.203703703704,-3178.546296296296,-7549.296296296296,2353.935185185185,7
2024-06-15 13:19:55,-1.538158655,0.06108652428,0.2064724565,-2.042253971,3.696647406,8.113949776,311.4117647058823,324.3137254901961,3375.0392156862745,-3970.56862745098,-7031.313725490196,2319.0,7
2024-06-15 13:19:55,-1.902234316,0.1270599663,0.2186897546,-2.33913517,-3.356670856,8.777143478,32.07766990291262,109.5728155339806,3095.3009708737864,-4575.57281553398,-6599.883495145631,2567.854368932039,7
2024-06-15 13:19:55,5.086063862,-0.1600466967,-0.4789183438,-2.391807556,8.561665535,9.387664795,-305.48571428571427,223.10476190476192,2531.3142857142857,-4884.152380952381,-6443.466666666666,2611.647619047619,7
2024-06-15 13:19:56,5.086063862,-0.1600466967,-0.4789183438,-2.391807556,8.561665535,9.387664795,-46.1,-24.739999999999995,1781.92,-5542.28,-5803.14,2813.26,7
2024-06-15 13:19:56,-0.2565633953,0.2724458873,0.3323107064,-2.274491549,2.801215887,9.06205368,-33.55339805825243,-220.242718446602,1424.6990291262136,-5712.291262135922,-5704.223300970873,2491.8252427184466,7
2024-06-15 13:19:56,-0.2565633953,0.2724458873,0.3323107064,-2.274491549,2.801215887,9.06205368,75.15384615384616,-2.230769230769233,753.8461538461538,-5839.769230769231,-5660.769230769231,2476.769230769231,7
2024-06-15 13:19:56,-1.156978726,-0.2138028294,0.04520402849,-2.571372509,-1.292868972,9.30386734,32.0,218.1165048543689,841.7961165048544,-5924.922330097087,-5455.26213592233,2591.78640776699,7
2024-06-15 13:19:56,2.395813465,-0.531452775,-0.3078760803,-2.121262789,8.027758598,9.488221169,-176.96190476190475,268.43809523809523,527.0571428571428,-6042.590476190476,-5691.323809523809,2579.228571428572,7
2024-06-15 13:19:56,2.395813465,-0.531452775,-0.3078760803,-2.121262789,8.027758598,9.488221169,-376.0095238095238,29.3904761904762,178.48571428571427,-6207.352380952381,-5749.419047619048,2584.942857142857,7
2024-06-15 13:19:56,-0.2113593817,0.05742133409,0.1490511149,-1.869871497,1.719036818,9.392453194,41.7,-269.95,189.95,-6174.8,-5494.55,2579.75,7
2024-06-15 13:19:56,-0.1490511149,0.2394591719,-0.1441642046,-0.9121908545,1.685518026,9.955090523,17.941747572815533,-92.44660194174756,299.6019417475728,-6134.495145631068,-5090.796116504855,2319.902912621359,7
2024-06-15 13:19:56,-0.1490511149,0.2394591719,-0.1441642046,-0.9121908545,1.685518026,9.955090523,-173.28155339805826,-37.17475728155341,195.6504854368932,-6043.776699029127,-5161.728155339806,2190.854368932039,7
2024-06-15 13:19:56,-1.139874578,1.026253581,-2.11603713,-3.102885485,2.248155355,7.098807812,-277.4095238095238,300.65714285714284,380.1904761904762,-6548.714285714285,-5208.685714285714,2198.647619047619,7
2024-06-15 13:19:57,-1.139874578,1.026253581,-2.11603713,-3.102885485,2.248155355,7.098807812,-30.615384615384613,-98.3076923076923,466.1538461538462,-6453.307692307692,-4924.307692307692,2206.4615384615386,7
2024-06-15 13:19:57,-2.364048481,0.432492584,-3.435506105,-4.618414879,-4.594472885,7.460332394,33.59,186.7,12.790000000000006,-6369.87,-5189.77,2274.14,7
2024-06-15 13:19:57,0.5949827433,0.2956587672,-1.952325344,1.417367458,-11.52089882,8.085219383,-347.8095238095238,-91.06666666666666,-215.7523809523809,-6340.952380952381,-5142.152380952381,2352.295238095238,7
2024-06-15 13:19:57,0.5949827433,0.2956587672,-1.952325344,1.417367458,-11.52089882,8.085219383,-169.70807453416148,-292.59627329192546,-409.14906832298135,-6331.192546583851,-5185.310559006211,2279.546583850932,7
2024-06-15 13:19:57,0.5656611919,-0.008552113548,-0.5400048494,1.089361787,-6.936002254,7.117961884,4.739130434782608,-263.7391304347826,-443.9565217391304,-6346.347826086957,-5142.913043478261,2415.0,7
2024-06-15 13:19:57,0.2822197378,0.06475171447,-0.2406809032,1.295263171,-7.005434036,7.924807549,5.922330097087375,74.35922330097088,33.165048543689295,-6482.902912621359,-4858.019417475728,2268.873786407767,7
2024-06-15 13:19:57,0.2822197378,0.06475171447,-0.2406809032,1.295263171,-7.005434036,7.924807549,-61.94594594594594,20.13513513513513,327.4594594594595,-6368.945945945946,-5014.054054054054,2287.0810810810813,7
2024-06-15 13:19:57,-0.8454375267,-0.1905899495,0.7098253965,3.167528868,-7.76679039,7.309497833,-75.07692307692307,102.15384615384616,288.3076923076923,-6396.076923076923,-5146.692307692308,2258.846153846154,7
2024-06-15 13:19:57,-0.8454375267,-0.1905899495,0.7098253965,3.167528868,-7.76679039,7.309497833,-262.2330097087379,-15.640776699029132,-109.11650485436894,-6347.436893203883,-5051.359223300971,2219.8155339805826,7
2024-06-15 13:19:57,-0.8014551997,-0.2883284092,2.79165411,0.2178723514,-7.505822182,5.114014626,-44.26923076923077,-287.27884615384613,-122.5,-6381.182692307692,-4800.942307692308,2206.692307692308,7
2024-06-15 13:19:58,-1.828930497,-1.535715222,0.9419541955,-4.728548527,-7.266402245,4.410119534,-130.4313725490196,-390.4019607843137,-672.5392156862745,-6688.205882352941,-4773.0,2250.5,7
2024-06-15 13:19:58,-1.828930497,-1.535715222,0.9419541955,-4.728548527,-7.266402245,4.410119534,-153.35922330097088,-640.4271844660194,-1098.9708737864078,-6129.388349514563,-5108.0679611650485,2630.3203883495144,7
2024-06-15 13:19:58,1.959655762,-0.4764748812,-0.1661553532,-4.216189384,-5.851428986,7.460332394,-160.5196078431373,45.18627450980392,-743.0980392156863,-5838.372549019608,-5439.480392156863,2476.5098039215686,7
2024-06-15 13:19:58,-1.452637553,0.1209513173,0.6646214128,-2.583343744,-9.248801231,3.646369219,-300.65346534653463,347.74257425742576,23.18811881188119,-5776.435643564357,-5685.782178217822,2454.732673267327,7
2024-06-15 13:19:58,-1.452637553,0.1209513173,0.6646214128,-2.583343744,-9.248801231,3.646369219,35.45631067961165,360.92233009708735,336.75728155339806,-6229.718446601942,-5369.145631067961,2630.8058252427186,7
2024-06-15 13:19:58,0.37751472,0.09162978828,0.6157521605,-4.845864296,-9.196128845,3.007117271,44.84313725490196,-47.47058823529412,-65.82352941176471,-6076.911764705882,-5456.166666666667,2579.5392156862745,7
2024-06-15 13:19:58,1.084896684,0.1930334121,1.218065262,-6.464344501,-8.365341187,4.113238335,25.81553398058253,-112.6116504854369,-40.18446601941748,-6144.825242718447,-5394.582524271845,2581.631067961165,7
2024-06-15 13:19:58,1.084896684,0.1930334121,1.218065262,-6.464344501,-8.365341187,4.113238335,66.8,109.13,-100.05,-6439.05,-5219.77,2563.08,7
2024-06-15 13:19:58,1.161865711,-0.1857030392,1.385442376,-7.098807812,-4.733336926,3.981557369,-282.9126213592233,-40.75728155339806,-86.57281553398059,-6481.378640776699,-4845.932038834952,2293.339805825243,7
2024-06-15 13:19:58,1.161865711,-0.1857030392,1.385442376,-7.098807812,-4.733336926,3.981557369,-358.57547169811323,-81.48113207547169,212.7924528301887,-6306.037735849057,-4820.622641509434,2246.707547169812,7
2024-06-15 13:19:59,1.386664152,-0.1734857261,0.96028018,-7.000645638,-1.446097851,5.204994678,90.0344827586207,-58.57241379310345,168.15172413793104,-6345.979310344827,-5193.137931034483,2446.689655172414,7
2024-06-15 13:19:59,1.192408919,-0.2443460971,0.4398229718,-6.854599476,-0.2178723514,5.999869347,64.7258064516129,142.4193548387097,279.35483870967744,-6473.419354838709,-5109.967741935484,2269.951612903226,7
2024-06-15 13:19:59,1.192408919,-0.2443460971,0.4398229718,-6.854599476,-0.2178723514,5.999869347,46.613861386138616,67.05940594059405,274.8712871287129,-6356.3861386138615,-5387.059405940594,2294.3267326732675,7
2024-06-15 13:19:59,1.28159523,-0.03665191308,0.4153883755,-7.026981831,1.326387763,5.863399982,-161.80851063829786,290.4148936170213,358.0,-6452.45744680851,-5139.510638297872,2393.425531914894,7
2024-06-15 13:19:59,1.28159523,-0.03665191308,0.4153883755,-7.026981831,1.326387763,5.863399982,65.84313725490196,356.52941176470586,-54.80392156862745,-6731.019607843137,-4770.343137254902,2397.372549019608,7
2024-06-15 13:19:59,0.9443976879,-0.006108652335,0.2247984111,-6.787561893,3.402160645,5.688623428,-105.5686274509804,-16.0,236.03921568627453,-6579.117647058823,-4622.862745098039,2375.156862745098,7
2024-06-15 13:19:59,0.7134906054,-0.05131268129,0.1356120855,-6.804321289,4.163516521,5.056553841,4.794117647058826,-27.176470588235293,224.421568627451,-6792.372549019608,-4666.882352941177,2386.029411764706,7
2024-06-15 13:19:59,0.7134906054,-0.05131268129,0.1356120855,-6.804321289,4.163516521,5.056553841,117.4351851851852,-79.76851851851852,158.28703703703704,-6944.648148148148,-4588.888888888889,2298.0,7
2024-06-15 13:19:59,0.6401867867,0.0171042271,0.09285151958,-6.689399719,4.726154327,4.896142483,-320.48809523809524,-282.04761904761904,-865.0357142857143,-6757.035714285715,-4867.523809523809,2422.785714285714,7
2024-06-15 13:19:59,0.634078145,0.0720821023,0.1172861308,-6.825869083,5.262455463,4.182670593,-362.1538461538462,-519.5384615384615,-1449.923076923077,-6405.846153846154,-5248.923076923077,2412.692307692308,7
2024-06-15 13:20:00,0.634078145,0.0720821023,0.1172861308,-6.825869083,5.262455463,4.182670593,-633.009900990099,-826.0792079207921,-2280.6237623762377,-6059.584158415842,-5405.6138613861385,2411.059405940594,7
2024-06-15 13:20:00,0.2296853364,0.1209513173,0.0415388383,-6.567295074,5.365406036,3.639186621,-224.7924528301887,-723.7547169811321,-2746.698113207547,-5729.641509433963,-5947.528301886792,2338.981132075472,7
2024-06-15 13:20:00,0.17715092,-0.004886921961,0.0232128799,-6.636727333,6.047753334,3.49553442,347.8095238095238,-509.8571428571428,-2192.04761904762,-5282.619047619048,-6145.190476190476,2551.619047619048,7
2024-06-15 13:20:00,0.17715092,-0.004886921961,0.0232128799,-6.636727333,6.047753334,3.49553442,530.5454545454545,-296.8181818181818,-1720.1818181818182,-4859.0,-6444.090909090909,2916.909090909091,7
2024-06-15 13:20:00,0.3909537494,0.03054326214,0.05986479297,-6.385335922,6.081272125,3.088520288,333.4162679425838,-280.0717703349282,-1847.4545454545453,-4680.052631578948,-6360.358851674641,2921.693779904306,7
2024-06-15 13:20:00,0.09773843735,0.03176499158,-0.01466076635,-6.397306919,6.248866558,2.734178305,228.2596153846154,470.1826923076923,-2173.9615384615386,-3564.3846153846152,-6813.961538461538,3059.7596153846152,7
2024-06-15 13:20:00,0.1954768747,0.004886921961,0.03420845419,-6.675034523,6.445190907,2.410961151,-450.47222222222223,562.1388888888889,-3053.777777777778,-3369.25,-7117.083333333333,2873.3888888888887,7
2024-06-15 13:20:00,0.1014036313,0.007330383174,0.01343903504,-6.536170483,6.375759125,2.549824715,-469.0769230769231,-262.6923076923077,-2648.076923076923,-2515.076923076923,-7758.0,2575.846153846154,7
2024-06-15 13:20:01,0.1014036313,0.007330383174,0.01343903504,-6.536170483,6.375759125,2.549824715,-776.3398058252427,-424.6019417475728,-2291.1941747572814,-2163.26213592233,-7654.796116504855,2448.6116504854367,7
2024-06-15 13:20:01,0.08429940045,0.02809980139,-0.00244346098,-6.411672115,6.217741966,2.341529369,-536.1923076923076,-526.7692307692307,-2307.5,-1604.7307692307693,-8007.384615384615,2589.269230769231,7
2024-06-15 13:20:01,0.07330382615,0.02809980139,-0.00244346098,-6.619967937,6.701370716,2.133233786,-246.51960784313724,-211.4705882352941,-1437.235294117647,-1227.6470588235293,-7868.156862745098,2356.323529411765,7
2024-06-15 13:20:01,0.07330382615,0.02809980139,-0.00244346098,-6.619967937,6.701370716,2.133233786,-214.45794392523365,-334.41121495327104,-772.6355140186915,-781.2616822429907,-7822.186915887851,2372.140186915888,7
2024-06-15 13:20:01,0.08674286306,0.0109955743,0.0,-6.562506676,6.624756336,2.384624958,-679.1346153846154,-154.35576923076923,-709.6634615384615,-462.2019230769231,-7902.913461538462,2248.1153846153848,7
2024-06-15 13:20:01,0.1991420686,0.01466076635,0.05864306539,-6.576871872,6.742072105,1.912967205,-245.45454545454547,-521.989898989899,-625.7676767676768,-382.2323232323232,-8055.69696969697,2296.7373737373737,7
2024-06-15 13:20:01,0.1991420686,0.01466076635,0.05864306539,-6.576871872,6.742072105,1.912967205,-355.6470588235294,-114.58823529411764,-812.7647058823529,-331.52941176470586,-8081.470588235294,2305.235294117647,7
2024-06-15 13:20:01,-0.07452555746,0.02443460934,-0.004886921961,-6.385335922,6.667851925,1.982398987,66.22222222222223,-82.66666666666667,-405.8518518518519,-302.8888888888889,-7899.666666666667,2045.962962962963,7
2024-06-15 13:20:01,-0.07452555746,0.02443460934,-0.004886921961,-6.385335922,6.667851925,1.982398987,-271.1111111111111,-48.11111111111112,-398.55555555555554,-140.0,-7895.777777777777,2023.7777777777776,7
2024-06-15 13:20:01,0.06352998316,-0.00122173049,0.0232128799,-6.586448669,6.713341713,2.106897593,-169.10576923076923,-5.528846153846153,-346.1730769230769,79.51923076923077,-8076.403846153846,2012.5192307692307,7
2024-06-15 13:20:02,0.09896016866,-0.003665191587,0.03298672289,-6.380547523,6.488286495,1.82198751,-166.46464646464648,-183.53535353535352,-328.5353535353535,-108.56565656565655,-8025.666666666667,2313.6161616161617,7
2024-06-15 13:20:02,0.09896016866,-0.003665191587,0.03298672289,-6.380547523,6.488286495,1.82198751,33.77777777777778,50.48148148148148,-289.0,-72.42592592592592,-7916.277777777777,2317.055555555556,7
2024-06-15 13:20:02,-0.00244346098,-0.01343903504,0.00244346098,-6.4691329,6.890512466,1.678335428,-28.16326530612245,-116.3061224489796,-314.0612244897959,-70.77551020408163,-7881.204081632653,2322.6326530612246,7
2024-06-15 13:20:02,0.007330383174,0.01343903504,0.02687807009,-6.447585106,6.777985096,1.793257117,-265.2156862745098,-85.43137254901961,-30.84313725490196,-88.80392156862744,-7911.058823529412,2021.490196078432,7
2024-06-15 13:20:02,0.007330383174,0.01343903504,0.02687807009,-6.447585106,6.777985096,1.793257117,-223.73426573426573,83.13986013986013,6.727272727272728,-85.81118881118881,-8196.867132867133,2018.7342657342656,7
2024-06-15 13:20:02,0.05253441259,-0.01221730467,0.0109955743,-6.409277916,6.809109688,1.647210717,-22.335664335664347,73.34965034965035,15.818181818181818,-69.02797202797203,-8196.167832167832,2017.3356643356644,7
2024-06-15 13:20:02,0.05253441259,-0.01221730467,0.0109955743,-6.409277916,6.809109688,1.647210717,47.76146788990826,105.3577981651376,76.80733944954129,-35.92660550458716,-7901.59633027523,2033.6788990825687,7
2024-06-15 13:20:02,-0.04642575979,-0.02076941915,-0.01221730467,-6.335057735,6.773196697,1.687912226,14.98,-87.26,-20.2,-57.78,-8204.86,2016.84,7
2024-06-15 13:20:02,-0.04642575979,-0.02076941915,-0.01221730467,-6.335057735,6.773196697,1.687912226,106.2233009708738,-86.64077669902912,242.79611650485435,-118.126213592233,-7920.097087378641,2041.6893203883487,7
2024-06-15 13:20:03,-0.06719517708,-0.0232128799,-0.03787364438,-6.31590414,6.856993675,1.642422318,29.15686274509804,-59.803921568627445,189.05882352941177,-88.72549019607843,-7916.333333333333,2030.921568627451,7
2024-06-15 13:20:03,-0.4398229718,-0.03298672289,-0.1319468915,-6.327875137,6.653486729,2.042253971,-75.63999999999999,159.12,779.88,69.12,-8207.6,2042.6,7
2024-06-15 13:20:03,-0.4398229718,-0.03298672289,-0.1319468915,-6.327875137,6.653486729,2.042253971,311.2452830188679,200.31132075471697,1778.0754716981132,-540.3207547169811,-7906.83962264151,2245.188679245283,7
2024-06-15 13:20:03,-1.117883444,-0.1722639948,-0.1295034289,-6.004657745,6.363788128,2.449268341,375.24038461538464,512.2740384615385,2877.216346153846,-1218.9182692307693,-8036.951923076923,2234.1778846153848,7
2024-06-15 13:20:03,-1.117883444,-0.1722639948,-0.1295034289,-6.004657745,6.363788128,2.449268341,374.2788461538461,577.1778846153846,3286.350961538461,-1473.2451923076924,-8057.1442307692305,2239.466346153846,7
2024-06-15 13:20:03,-2.561968803,-0.235793978,-1.020144939,-5.027823448,4.168305397,2.940079689,239.7454545454545,452.70909090909095,3614.1272727272726,-1513.4363636363637,-8032.663636363636,2235.190909090909,7
2024-06-15 13:20:03,-3.706730366,-0.3078760803,-1.997529387,-6.038176537,-0.4189853072,4.134786129,715.4842105263158,606.0842105263158,4656.473684210527,-3294.3473684210526,-7472.231578947369,2227.1052631578946,7
2024-06-15 13:20:03,-3.706730366,-0.3078760803,-1.997529387,-6.038176537,-0.4189853072,4.134786129,1110.2567567567569,1022.0945945945946,4794.716216216216,-3919.2432432432433,-7077.810810810811,2239.2297297297296,7
2024-06-15 13:20:03,-1.285260439,-0.6084218025,-1.431868076,-7.661445618,-6.7636199,6.751648903,1250.3468468468468,1066.6891891891892,4927.5990990991,-4162.486486486487,-6755.288288288289,2252.2927927927926,7
2024-06-15 13:20:03,-0.5155702829,-0.3188716471,-0.3995058835,-5.030217648,-7.252037048,6.907271862,813.6966292134832,-87.61797752808988,4693.23595505618,-5859.831460674157,-5270.494382022472,2942.8314606741574,7
2024-06-15 13:20:04,-0.5155702829,-0.3188716471,-0.3995058835,-5.030217648,-7.252037048,6.907271862,440.1619047619048,318.62857142857143,1704.8857142857144,-6855.866666666667,-3936.980952380952,2956.3142857142857,7
2024-06-15 13:20:04,0.08429940045,-0.2748893499,-0.2553416789,-4.029441357,-7.601590633,5.837063789,44.8095238095238,96.9047619047619,940.904761904762,-7063.095238095239,-3819.7619047619046,2968.095238095238,7
2024-06-15 13:20:04,0.08429940045,-0.2748893499,-0.2553416789,-4.029441357,-7.601590633,5.837063789,307.6851851851852,80.48148148148148,705.1481481481482,-6880.62962962963,-3918.5925925925926,2981.8888888888887,7
2024-06-15 13:20:04,-0.06352998316,0.03665191308,-0.1392772794,-3.881000996,-7.354987621,6.7612257,-67.17647058823529,323.0,207.8235294117647,-7223.764705882353,-3620.5882352941176,3051.235294117647,7
2024-06-15 13:20:04,-1.938886285,0.5106833577,-0.5070181489,-2.513911724,-6.586448669,6.229712963,-97.07843137254902,223.0,202.921568627451,-7256.117647058823,-3606.372549019608,3052.2156862745096,7
2024-06-15 13:20:04,-1.938886285,0.5106833577,-0.5070181489,-2.513911724,-6.586448669,6.229712963,-334.3267326732673,111.50495049504951,107.64356435643565,-7458.049504950495,-3404.3564356435645,2788.138613861386,7
2024-06-15 13:20:04,3.032335043,1.026253581,-1.970651269,-4.654327869,-8.305485725,5.7963624,-115.92857142857144,18.915584415584416,45.5,-7528.935064935065,-3332.4675324675327,2794.012987012987,7
2024-06-15 13:20:04,1.121548533,0.4508185387,-1.76173532,-0.7230489254,-8.916007042,7.335834026,-123.07142857142856,-181.73376623376623,-204.5,-7489.974025974026,-3512.987012987013,2801.805194805195,7
2024-06-15 13:20:04,1.121548533,0.4508185387,-1.76173532,-0.7230489254,-8.916007042,7.335834026,-124.0,-398.0,-827.8,-6956.8,-3835.2,3157.4,7
2024-06-15 13:20:04,1.418429136,-0.4581489265,-1.159422278,1.192312479,-4.390965939,7.671022415,-527.9795918367347,-575.7142857142857,-493.734693877551,-6889.448979591837,-3767.4897959183672,3174.408163265306,7
2024-06-15 13:20:05,1.418429136,-0.4581489265,-1.159422278,1.192312479,-4.390965939,7.671022415,-89.75,-586.55,-619.05,-7022.3,-3954.4,3035.15,7
2024-06-15 13:20:05,0.1221730486,-0.06597344577,-0.4434881806,2.027888775,-3.572149038,9.538499832,12.049504950495049,-272.6039603960396,-573.5049504950496,-6987.821782178218,-3946.80198019802,3216.712871287129,7
2024-06-15 13:20:05,-0.008552113548,-0.2015855312,0.04398229718,1.786074519,-3.239354849,9.014169693,-869.5980392156863,-261.05882352941177,-239.1078431372549,-6602.970588235294,-3722.93137254902,3146.029411764706,7
2024-06-15 13:20:05,-0.008552113548,-0.2015855312,0.04398229718,1.786074519,-3.239354849,9.014169693,-1278.908163265306,242.4183673469388,165.9591836734694,-7173.897959183673,-4045.795918367347,2610.0,7
2024-06-15 13:20:05,-0.8600982428,0.4300491214,0.9993755221,4.690241337,-5.786785603,8.995016098,-522.8490566037735,245.3207547169812,412.0943396226415,-7090.905660377359,-4158.547169811321,2529.5283018867926,7
2024-06-15 13:20:05,-3.89121151,0.9847147465,2.279749155,-1.584961534,-6.806715488,6.306327343,-107.66666666666669,-216.92156862745097,14.039215686274504,-7189.362745098039,-3771.686274509804,3044.392156862745,7
2024-06-15 13:20:05,-3.89121151,0.9847147465,2.279749155,-1.584961534,-6.806715488,6.306327343,-364.7647058823529,-414.8235294117647,-512.5294117647059,-6969.235294117647,-3995.4117647058815,3029.6470588235293,7
2024-06-15 13:20:05,-0.2761110961,0.05619960278,1.965764403,-7.678205013,-5.492298603,3.847482204,-177.36190476190475,-516.952380952381,-501.7809523809524,-6965.552380952381,-4254.666666666667,3089.657142857143,7
2024-06-15 13:20:05,-0.2761110961,0.05619960278,1.965764403,-7.678205013,-5.492298603,3.847482204,-165.0408163265306,4.438775510204081,-381.84693877551024,-6805.857142857143,-4256.11224489796,3113.744897959184,7
2024-06-15 13:20:05,-0.8637634516,-0.8319984674,1.06290555,-7.302315235,-4.687847137,2.501940727,-217.45454545454544,102.0,5.454545454545454,-6767.454545454545,-4346.272727272727,2950.818181818182,7
2024-06-15 13:20:06,-0.6023131609,-0.669508338,0.4373795092,-5.480327606,-6.143521786,3.651157618,426.6976744186047,294.2906976744186,-309.7674418604651,-6993.616279069767,-4434.813953488372,2795.779069767442,7
2024-06-15 13:20:06,-0.6023131609,-0.669508338,0.4373795092,-5.480327606,-6.143521786,3.651157618,583.952380952381,174.11428571428573,-241.7619047619048,-6973.352380952381,-4222.038095238096,2926.114285714286,7
2024-06-15 13:20:06,0.08552113175,-0.2223549485,-0.248011291,-5.576095581,-7.144298077,4.525041103,214.0097087378641,-19.893203883495147,-224.32038834951456,-6650.21359223301,-4018.95145631068,3158.8058252427186,7
2024-06-15 13:20:06,-0.232128799,-0.1588249654,-0.2443460971,-5.930437565,-7.173028469,4.441244125,-344.0851063829787,113.40425531914892,-556.7446808510638,-6590.851063829788,-4258.617021276596,2812.7659574468084,7
2024-06-15 13:20:06,-0.232128799,-0.1588249654,-0.2443460971,-5.930437565,-7.173028469,4.441244125,-329.1914893617021,117.65957446808513,-434.7588652482269,-6608.581560283688,-4308.9716312056735,2812.0567375886526,7
2024-06-15 13:20:06,-0.2138028294,-0.02443460934,-0.1026253626,-5.805939198,-6.986280441,4.560954094,233.5,-97.0,-319.0,-6599.25,-4052.25,2963.0,7
2024-06-15 13:20:06,-0.2138028294,-0.02443460934,-0.1026253626,-5.805939198,-6.986280441,4.560954094,-168.8148148148148,-321.77777777777777,-358.44444444444446,-6557.37037037037,-4283.148148148148,2968.296296296296,7
2024-06-15 13:20:06,0.6218608022,-0.232128799,0.03665191308,-5.853823185,-6.885724068,5.142745018,-154.68,-363.48,-197.08,-6585.16,-4320.2,2954.04,7
2024-06-15 13:20:06,1.882686734,-0.5045747161,0.2932153046,-7.072471619,-6.488286495,7.936778545,175.19607843137254,103.72549019607844,301.9803921568628,-6554.78431372549,-4424.745098039216,3016.9411764705883,7
2024-06-15 13:20:06,1.882686734,-0.5045747161,0.2932153046,-7.072471619,-6.488286495,7.936778545,277.3762376237624,86.98019801980197,-99.92079207920791,-6620.108910891089,-4373.188118811881,3380.19801980198,7
2024-06-15 13:20:07,1.369559884,-0.9553932548,0.8405506015,-4.395754337,-0.3878606856,6.72531271,89.2,-154.68571428571428,-155.45714285714286,-6771.028571428571,-4425.457142857143,3435.4,7
2024-06-15 13:20:07,0.04886921868,-0.8747590184,0.5803219676,-3.177105665,-0.5722141862,8.355764389,29.200000000000003,-144.2095238095238,-337.3619047619047,-6538.647619047619,-4440.695238095238,3448.733333333333,7
2024-06-15 13:20:07,0.04886921868,-0.8747590184,0.5803219676,-3.177105665,-0.5722141862,8.355764389,-107.98,-21.220000000000027,523.8,-6760.85,-4392.89,3453.09,7
2024-06-15 13:20:07,-0.2932153046,-1.131322384,0.4581489265,-1.563413739,-4.141968727,10.45308495,222.5135135135135,-77.43243243243244,366.35135135135135,-6607.918918918919,-4113.675675675676,3264.6486486486488,7
2024-06-15 13:20:07,0.3249803185,-0.6365215778,-0.003665191587,-0.8212111592,0.7685387731,7.965508938,-80.93478260869566,42.34782608695653,-69.10869565217394,-6590.586956521739,-4112.391304347826,3569.826086956522,7
2024-06-15 13:20:07,0.3249803185,-0.6365215778,-0.003665191587,-0.8212111592,0.7685387731,7.965508938,-223.35922330097088,178.84466019417476,-458.19417475728153,-6576.0485436893205,-4052.864077669903,3411.116504854369,7
2024-06-15 13:20:07,0.1197295859,-1.296256065,0.1331686229,4.644751072,1.989581585,11.35091019,-104.0,295.42857142857144,7.571428571428569,-6702.285714285715,-4464.428571428572,3346.5714285714284,7
2024-06-15 13:20:07,0.1197295859,-1.296256065,0.1331686229,4.644751072,1.989581585,11.35091019,273.05882352941177,272.97058823529414,84.79411764705883,-6597.470588235294,-4151.411764705882,3380.205882352941,7
2024-06-15 13:20:07,-5.035973072,0.5558874011,-0.161268428,-0.6943184733,3.227383852,9.129091263,-180.66666666666669,10.666666666666664,-50.85714285714286,-6813.238095238095,-4169.666666666667,3167.8571428571427,7
2024-06-15 13:20:07,2.214997292,0.06963863969,0.0293215327,0.6847416759,-7.733271599,9.47146225,-529.3333333333334,-508.22222222222223,274.44444444444446,-6959.222222222223,-4332.555555555556,3352.333333333333,7
2024-06-15 13:20:08,2.214997292,0.06963863969,0.0293215327,0.6847416759,-7.733271599,9.47146225,-162.2621359223301,-217.97087378640776,-14.029126213592235,-6567.038834951456,-4252.21359223301,3367.21359223301,7
2024-06-15 13:20:08,-1.861917257,0.7024950385,-0.1795943826,0.5602431893,4.065354347,10.10831928,-90.0,-39.0,45.5,-6785.0,-4170.5,3411.0,7
2024-06-15 13:20:08,-1.861917257,0.7024950385,-0.1795943826,0.5602431893,4.065354347,10.10831928,-242.7986577181208,77.36912751677852,36.46979865771812,-6929.187919463087,-4206.677852348993,3362.8926174496646,7
2024-06-15 13:20:08,-2.24187541,0.2492330223,0.7330383062,-1.810016513,-2.358288765,6.897695065,-254.8791946308725,55.22147651006711,8.281879194630875,-6937.912751677853,-4206.006711409396,3229.3355704697988,7
2024-06-15 13:20:08,3.865555286,-0.7684684992,-0.9211847782,0.1867477298,9.339780807,10.01255131,-2117.6019417475727,6.06796116504853,-1159.6504854368932,-6354.854368932039,-4084.097087378641,3215.436893203884,7
2024-06-15 13:20:08,3.865555286,-0.7684684992,-0.9211847782,0.1867477298,9.339780807,10.01255131,-2774.0377358490564,274.8490566037736,-784.6037735849056,-6631.245283018868,-4736.415094339623,2643.264150943396,7
2024-06-15 13:20:08,-3.580892086,0.9981538057,0.04642575979,-1.984793186,2.166752577,10.42914295,-2447.1354166666665,313.4166666666667,-272.59375,-6367.010416666667,-4832.239583333333,2222.7291666666665,7
2024-06-15 13:20:08,2.522873402,-0.6817256212,-0.2748893499,-0.6991068721,-1.661576033,7.931990147,-1990.7058823529408,232.3921568627451,519.156862745098,-6583.705882352941,-5118.901960784314,2031.3529411764705,7
2024-06-15 13:20:08,2.522873402,-0.6817256212,-0.2748893499,-0.6991068721,-1.661576033,7.931990147,-1280.3461538461538,198.07692307692307,256.03846153846155,-6746.538461538462,-5154.384615384615,1446.0384615384614,7
2024-06-15 13:20:08,-1.628566742,0.6475171447,-0.5583308339,-1.271321058,5.310339451,9.181763649,-491.56,243.02,319.12,-6919.04,-5033.04,1606.29,7
2024-06-15 13:20:09,-1.628566742,0.6475171447,-0.5583308339,-1.271321058,5.310339451,9.181763649,757.1320754716982,375.3018867924528,392.8207547169811,-6918.094339622641,-4567.141509433963,1652.7075471698113,7
2024-06-15 13:20:09,5.622403622,-1.459967971,1.040914416,-1.027112484,3.945644379,5.140350819,479.7735849056604,341.33962264150944,569.2358490566038,-6619.981132075472,-4569.971698113208,1466.8584905660375,7
2024-06-15 13:20:09,-0.9211847782,-0.3481931984,-0.1404990107,0.8283938169,5.674258232,7.908048153,567.5346534653465,248.03960396039605,212.87128712871288,-6915.504950495049,-4876.881188118812,1816.683168316832,7
2024-06-15 13:20:09,-0.9211847782,-0.3481931984,-0.1404990107,0.8283938169,5.674258232,7.908048153,462.4814814814815,462.72222222222223,741.5740740740741,-6866.740740740741,-4338.814814814815,1451.037037037037,7
2024-06-15 13:20:09,-0.4911356568,-0.02199114859,-0.2443460971,0.4022258818,7.137115479,6.452373505,-445.4545454545455,259.030303030303,-54.54545454545456,-6990.858585858586,-4312.686868686868,1615.4040404040404,7
2024-06-15 13:20:09,-0.9419541955,-0.05742133409,0.009773843922,0.3280056417,5.585672379,7.546523571,-759.009900990099,241.23762376237624,114.3861386138614,-6965.297029702971,-4676.980198019802,1257.3366336633662,7
2024-06-15 13:20:09,-0.9419541955,-0.05742133409,0.009773843922,0.3280056417,5.585672379,7.546523571,-155.1904761904762,522.0,829.152380952381,-7033.638095238095,-4142.876190476191,1357.352380952381,7
2024-06-15 13:20:09,-0.4178318381,0.02809980139,-0.1441642046,0.6607996821,5.770026207,5.803544998,-107.58,542.78,782.8199999999999,-7441.76,-3833.63,1100.1,7
2024-06-15 13:20:09,-0.4178318381,0.02809980139,-0.1441642046,0.6607996821,5.770026207,5.803544998,327.5673076923077,342.86538461538464,15.086538461538453,-7735.634615384615,-3491.538461538461,984.0673076923076,7
2024-06-15 13:20:09,-6.625444412,0.5473352671,-0.9896016717,-0.2274491638,0.2394201756,8.520963669,-550.6285714285714,-154.4,-166.82857142857142,-7575.742857142857,-3485.3142857142857,1255.0857142857144,7
2024-06-15 13:20:10,-4.94434309,1.050688267,0.2492330223,-2.705447912,-7.422025204,5.774814606,-1554.6363636363635,-418.09090909090907,115.54545454545456,-7097.909090909091,-3655.818181818182,1242.3636363636365,7
2024-06-15 13:20:10,-4.94434309,1.050688267,0.2492330223,-2.705447912,-7.422025204,5.774814606,-1747.3636363636365,-433.24242424242425,113.12121212121212,-6889.424242424242,-3832.181818181818,1149.6363636363635,7
2024-06-15 13:20:10,-2.357939959,0.6462954283,0.908967495,-2.396595955,-14.68124485,9.289502144,4695.66037735849,10.339622641509436,-185.33962264150944,-7941.811320754717,-3620.0943396226417,1165.9245283018868,7
2024-06-15 13:20:10,0.2125810981,1.20218277,-0.0109955743,-3.928884983,-7.896077156,6.660669327,2584.4848484848485,-1838.6666666666667,-1430.3030303030305,-7452.909090909091,-3328.909090909091,2410.212121212121,7
2024-06-15 13:20:10,0.2125810981,1.20218277,-0.0109955743,-3.928884983,-7.896077156,6.660669327,979.2307692307692,-1830.5384615384608,-1733.3846153846157,-7402.2307692307695,-3525.3076923076924,2820.153846153846,7
2024-06-15 13:20:10,1.339016676,0.7929030657,-0.3677408695,-4.690241337,-5.844246387,5.037400246,1143.6634615384614,-1058.451923076923,-1398.9134615384614,-6236.298076923077,-4868.509615384615,3179.153846153846,7
2024-06-15 13:20:10,0.4349360466,0.4117231667,-0.6597344875,-3.677493811,-7.026981831,4.8314991,1882.617647058824,447.7058823529412,-824.5588235294117,-7039.323529411765,-3331.8529411764707,3170.823529411765,7
2024-06-15 13:20:10,0.4349360466,0.4117231667,-0.6597344875,-3.677493811,-7.026981831,4.8314991,-6294.654205607477,-4591.663551401869,2323.766355140187,-6981.392523364486,-3517.205607476636,3358.0841121495328,7
2024-06-15 13:20:10,-0.2186897546,0.2382374406,-0.4776966274,-3.430891037,-7.117961884,4.853046894,-1560.857142857143,-836.2857142857143,299.0,-4386.285714285715,-7878.142857142857,2190.285714285714,7
2024-06-15 13:20:10,-0.2186897546,0.2382374406,-0.4776966274,-3.430891037,-7.117961884,4.853046894,8310.560439560439,5596.285714285715,-1543.2857142857142,-7056.956043956044,-4269.736263736264,2274.230769230769,7
2024-06-15 13:20:11,-0.003665191587,-0.0232128799,-0.1551597714,-3.749319792,-7.563282967,5.58088398,-6725.192307692308,-4327.269230769231,1687.8076923076924,-7384.923076923077,-2442.653846153846,3664.6153846153848,7
2024-06-15 13:20:11,-0.2003637999,-0.07574728876,-0.04398229718,-3.667917013,-7.4363904,5.415684223,-1166.6190476190477,-1918.4,555.3047619047619,-4734.952380952381,-8170.92380952381,2012.0,7
2024-06-15 13:20:11,-0.2003637999,-0.07574728876,-0.04398229718,-3.667917013,-7.4363904,5.415684223,6042.9047619047615,3221.6000000000004,-1537.0761904761905,-6058.761904761905,-6269.019047619047,2312.0,7
2024-06-15 13:20:11,0.02076941915,-0.03665191308,-0.08063421398,-3.076549292,-7.496245384,4.920084476,-5795.403846153846,-3029.230769230769,2746.769230769231,-7844.384615384615,-1467.326923076923,4209.307692307692,7
2024-06-15 13:20:11,0.02076941915,-0.03665191308,-0.08063421398,-3.076549292,-7.496245384,4.920084476,1425.2079207920788,953.3168316831684,-469.8514851485149,-5228.485148514851,-7445.633663366337,1936.3960396039604,7
2024-06-15 13:20:11,-0.3054326177,0.05619960278,-0.248011291,-3.136404276,-8.06127739,6.078877926,-638.2135922330099,-462.3592233009708,988.8155339805826,-8857.291262135923,-187.29126213592235,3700.990291262136,7
2024-06-15 13:20:11,-0.0171042271,0.5839871764,1.106887817,-1.929726601,-14.36042213,2.868253708,-6164.019417475728,-2251.990291262136,1602.776699029126,-6439.553398058252,-3690.4077669902913,3853.961165048544,7
2024-06-15 13:20:11,-0.0171042271,0.5839871764,1.106887817,-1.929726601,-14.36042213,2.868253708,2528.456310679612,3508.339805825243,-1300.6019417475727,-6547.0485436893205,-5128.631067961165,2144.1650485436894,7
2024-06-15 13:20:11,-6.565579891,-2.043955088,3.550348759,-8.116343498,-2.631227732,3.244143248,6159.33962264151,4068.396226415094,-1344.0566037735848,-7748.471698113208,-3901.22641509434,1904.1509433962265,7
2024-06-15 13:20:11,-3.156951666,-2.266309977,-0.125838235,-5.272032261,-6.385335922,4.01747036,4075.7083333333335,1746.4583333333333,372.2083333333333,-8122.791666666667,-2650.25,2567.458333333333,7
2024-06-15 13:20:12,-3.156951666,-2.266309977,-0.125838235,-5.272032261,-6.385335922,4.01747036,-1005.6701030927836,-1140.6082474226805,-319.89690721649487,-7216.216494845361,-3311.061855670103,3056.855670103093,7
2024-06-15 13:20:12,-0.762359798,-0.2700024247,-0.3506366611,-6.059724331,-7.431602001,2.671929121,-818.156862745098,-654.8235294117646,342.921568627451,-6921.764705882353,-3483.0392156862745,3303.7843137254904,7
2024-06-15 13:20:12,-0.762359798,-0.2700024247,-0.3506366611,-6.059724331,-7.431602001,2.671929121,-41.0,219.08000000000004,377.44,-7200.12,-3263.56,2914.28,7
2024-06-15 13:20:12,-0.4886921942,-0.1014036313,-1.149648428,-4.264073372,-11.70764637,0.5650315881,59.722772277227705,516.4950495049504,641.6732673267327,-7685.455445544554,-2839.3267326732675,2758.19801980198,7
2024-06-15 13:20:12,0.7012733221,-0.5485569835,0.8234463334,-8.489839554,-8.925583839,-6.682217121,-626.2307692307693,-25.980769230769223,502.88461538461536,-7481.134615384615,-2858.403846153846,2805.423076923077,7
2024-06-15 13:20:12,0.7012733221,-0.5485569835,0.8234463334,-8.489839554,-8.925583839,-6.682217121,-1276.2775119617224,-598.7416267942584,-153.78947368421052,-7336.660287081339,-3389.976076555024,2879.2535885167463,7
2024-06-15 13:20:12,1.205847979,0.08796459436,-0.2700024247,-5.461174011,-5.880159378,3.385401249,-1032.925925925926,-619.7962962962963,-223.5925925925926,-7499.462962962963,-3223.962962962963,2883.537037037037,7
2024-06-15 13:20:12,4.437325001,0.8429940343,-0.7403686643,-9.473855972,-7.364564419,6.301538944,-673.0582524271845,-148.6601941747573,47.398058252427184,-7445.038834951456,-3321.3106796116504,2899.21359223301,7
2024-06-15 13:20:12,4.437325001,0.8429940343,-0.7403686643,-9.473855972,-7.364564419,6.301538944,-432.8333333333333,-253.8020833333333,303.3125,-7452.072916666667,-3551.364583333333,2890.6354166666665,7
2024-06-15 13:20:12,2.461786985,-0.1502728462,1.365894675,-3.213018656,7.050923824,8.544905663,-531.4,-191.0,-83.0,-7579.0,-3598.4,2880.6,7
2024-06-15 13:20:13,2.461786985,-0.1502728462,1.365894675,-3.213018656,7.050923824,8.544905663,174.25,-298.7307692307692,193.22115384615384,-7682.990384615385,-3106.817307692308,2817.0,7
2024-06-15 13:20:13,1.045801282,-0.6963863969,-0.03054326214,-3.701435804,6.677428722,9.734824181,-66.76923076923077,-519.0961538461538,-523.5384615384615,-7150.461538461538,-2819.6153846153848,3102.942307692308,7
2024-06-15 13:20:13,-1.693318486,-0.7843509912,-0.5619960427,-3.325546265,6.619967937,3.651157618,-751.1923076923077,21.90384615384616,-138.84615384615384,-7141.586538461538,-3438.875,2760.625,7
2024-06-15 13:20:13,-1.457524419,-0.1404990107,-3.749490976,-4.675876141,3.12203908,11.65497398,120.41176470588236,-309.88235294117646,-538.2058823529412,-7434.558823529412,-3469.794117647059,2777.0,7
2024-06-15 13:20:13,-1.112996459,1.78494823,-2.10259819,-3.529053211,-10.18493366,4.481945515,-315.1782178217822,46.26732673267327,-612.8712871287129,-7167.415841584158,-3837.118811881188,2815.4158415841584,7
2024-06-15 13:20:13,-1.112996459,1.78494823,-2.10259819,-3.529053211,-10.18493366,4.481945515,-206.1875,-111.25,-334.625,-7196.6875,-3937.0625,2751.6875,7
2024-06-15 13:20:13,-0.00122173049,-0.1832595766,-0.9211847782,-3.416525841,-6.397306919,3.203441858,-335.7959183673469,-65.87755102040816,64.18367346938776,-7141.34693877551,-3705.5102040816328,2730.5102040816328,7
2024-06-15 13:20:13,-0.00122173049,-0.1832595766,-0.9211847782,-3.416525841,-6.397306919,3.203441858,-475.82978723404256,-41.3936170212766,-250.1170212765957,-7210.0,-3651.085106382978,2748.340425531915,7
2024-06-15 13:20:13,0.2150245607,-0.1038470939,-0.4752531648,-1.058237195,-5.202600479,3.782838583,-723.433962264151,532.0,-854.9056603773585,-6904.622641509434,-4053.981132075472,2499.3584905660377,7
2024-06-15 13:20:14,-3.767816782,0.1160643995,-0.4532620013,-2.782062292,-8.51617527,3.892971992,-101.93939393939394,435.5858585858586,-249.5151515151515,-7434.242424242424,-3895.8585858585857,2469.79797979798,7
2024-06-15 13:20:14,-3.767816782,0.1160643995,-0.4532620013,-2.782062292,-8.51617527,3.892971992,162.19417475728156,94.88349514563106,-623.2135922330096,-7216.980582524272,-3566.864077669903,2665.1941747572814,7
2024-06-15 13:20:14,-0.3714060783,-0.1295034289,-0.4581489265,-2.293645144,-9.868899345,3.026270866,-629.7864077669904,15.184466019417476,-1060.9611650485438,-6852.970873786408,-4004.7087378640776,2669.5922330097087,7
2024-06-15 13:20:14,-0.8002334833,-0.06352998316,0.2761110961,-2.363077164,-13.73314095,3.746925592,-1183.4,-172.26666666666665,-788.8666666666667,-6795.733333333334,-4177.133333333333,2451.133333333333,7
2024-06-15 13:20:14,-0.8002334833,-0.06352998316,0.2761110961,-2.363077164,-13.73314095,3.746925592,-1191.2735849056603,116.33018867924528,-815.0188679245283,-6612.066037735849,-4422.61320754717,2347.1132075471696,7
2024-06-15 13:20:14,1.048244715,-0.6524040699,1.750739813,-0.3088520169,-9.804255486,3.294421434,-1131.9411764705883,288.7647058823529,-798.8823529411765,-6768.470588235294,-4798.823529411765,2143.5882352941176,7
2024-06-15 13:20:14,1.048244715,-0.6524040699,1.750739813,-0.3088520169,-9.804255486,3.294421434,-562.22,89.09,-333.7,-6776.17,-4860.83,1762.69,7
2024-06-15 13:20:14,-0.9321803451,-0.6963863969,1.732413888,-3.816357613,-7.529764175,3.27287364,-343.6605504587156,25.137614678899084,63.23853211009175,-6599.623853211009,-4776.137614678899,1776.2477064220184,7
2024-06-15 13:20:14,-1.241278172,-0.8674286604,0.2956587672,-5.530605793,-5.736507416,4.09408474,-331.89473684210526,-347.10526315789474,233.2631578947368,-6641.578947368421,-4962.315789473684,2011.2105263157896,7
2024-06-15 13:20:14,-1.241278172,-0.8674286604,0.2956587672,-5.530605793,-5.736507416,4.09408474,-953.4117647058824,-351.4117647058824,-176.41176470588235,-6433.117647058823,-4861.764705882353,1697.6470588235295,7
2024-06-15 13:20:15,-0.2052507252,-0.4532620013,-0.3115412891,-6.179434776,-8.171410561,3.837905407,390.0388349514563,162.32038834951456,518.8543689320388,-6710.145631067961,-5098.339805825242,1845.970873786408,7
2024-06-15 13:20:15,0.3090978265,-0.4043927789,-0.0232128799,-5.671864033,-7.424419403,3.94085598,1247.9223300970873,456.2330097087379,431.126213592233,-7257.747572815534,-4285.601941747573,1722.0679611650485,7
2024-06-15 13:20:15,0.3090978265,-0.4043927789,-0.0232128799,-5.671864033,-7.424419403,3.94085598,1455.2075471698113,-12.754716981132075,65.09433962264151,-7222.603773584906,-4080.3584905660377,1815.6415094339625,7
2024-06-15 13:20:15,-0.1673770845,-0.3543018401,-0.03909537569,-4.338293552,-7.699752808,5.413290024,270.258064516129,-803.258064516129,-1333.774193548387,-6581.677419354839,-4674.967741935484,2303.451612903226,7
2024-06-15 13:20:15,-0.1673770845,-0.3543018401,-0.03909537569,-4.338293552,-7.699752808,5.413290024,35.419354838709666,-648.4193548387096,-1229.258064516129,-6675.225806451613,-4854.322580645161,2232.483870967742,7
2024-06-15 13:20:15,3.84112072,0.5143485069,0.7611380816,-4.936843872,-8.834604263,7.704541206,318.0,-168.22222222222223,-1425.1481481481485,-6169.222222222223,-5076.407407407408,2184.962962962963,7
2024-06-15 13:20:15,4.519181252,-0.3481931984,0.9822713137,-5.779603004,3.459621429,3.797203779,255.15625,-716.5416666666666,-945.0833333333331,-6224.645833333333,-5694.083333333333,2500.8229166666665,7
2024-06-15 13:20:15,4.519181252,-0.3481931984,0.9822713137,-5.779603004,3.459621429,3.797203779,167.76923076923077,-1317.5384615384614,-851.6153846153846,-6041.846153846154,-5718.307692307692,2712.230769230769,7
2024-06-15 13:20:15,1.097113967,-1.420872569,1.192408919,-2.315192938,3.60327363,7.704541206,760.4476190476191,-1150.6095238095238,-796.6476190476191,-5668.628571428571,-5436.333333333333,3314.657142857143,7
2024-06-15 13:20:15,-0.1637118906,-0.4703662395,0.02809980139,-1.699883223,0.9313444495,8.925583839,818.1485148514852,-872.0396039603961,-824.6831683168317,-5685.287128712871,-5403.811881188119,3555.524752475248,7
2024-06-15 13:20:16,-0.1637118906,-0.4703662395,0.02809980139,-1.699883223,0.9313444495,8.925583839,833.4859813084112,-641.0093457943925,-655.5794392523364,-5702.336448598131,-5448.887850467289,3569.607476635514,7
2024-06-15 13:20:16,0.6352998614,-0.3310889602,0.2125810981,-1.290474772,2.997540474,8.564059258,-68.29,607.21,589.4,-5905.99,-5361.75,3385.29,7
2024-06-15 13:20:16,0.4618141353,-0.1808161139,0.2211332172,-0.7015010715,3.026270866,9.11233139,-55.76923076923077,175.0769230769231,159.15384615384616,-5745.923076923077,-5359.0,3360.769230769231,7
2024-06-15 13:20:16,0.4618141353,-0.1808161139,0.2211332172,-0.7015010715,3.026270866,9.11233139,284.3398058252427,-61.12621359223301,-96.22330097087377,-5940.165048543689,-5385.854368932039,3332.495145631068,7
2024-06-15 13:20:16,0.3958406746,0.06963863969,0.03665191308,-0.7852981687,4.084507942,8.913613319,-96.75510204081633,111.40816326530611,359.9795918367347,-5778.0204081632655,-5419.183673469388,3294.5102040816328,7
2024-06-15 13:20:16,0.3958406746,0.06963863969,0.03665191308,-0.7852981687,4.084507942,8.913613319,-15.657142857142858,-222.94285714285715,408.9142857142857,-5997.314285714286,-4995.942857142857,3642.4,7
2024-06-15 13:20:16,1.051909924,0.1221730486,-0.2748893499,0.4261679053,5.509057999,9.763554573,-55.78640776699029,-212.80582524271844,100.75728155339806,-5978.805825242718,-5170.728155339806,3493.2718446601943,7
2024-06-15 13:20:16,-0.9065240026,0.2919935882,-0.1466076523,-1.134851575,-1.874659896,6.519411087,-59.3921568627451,292.94117647058823,213.64705882352945,-5871.823529411765,-4815.019607843137,3645.686274509804,7
2024-06-15 13:20:16,-0.9065240026,0.2919935882,-0.1466076523,-1.134851575,-1.874659896,6.519411087,-418.58878504672896,330.6261682242991,279.01869158878503,-5960.214953271028,-5124.429906542056,3274.6355140186915,7
2024-06-15 13:20:16,-2.915048838,-0.6572909951,0.03665191308,-1.987187386,9.258378029,9.097966194,-198.31632653061223,337.0612244897959,325.92857142857144,-6192.816326530612,-5046.622448979592,3411.173469387755,7
2024-06-15 13:20:17,-1.914451718,0.08307767659,0.4764748812,-0.6823474765,0.6703764796,6.969521046,47.25714285714286,324.77142857142854,304.3238095238096,-6067.380952380952,-4833.628571428571,3421.2380952380954,7
2024-06-15 13:20:17,-1.914451718,0.08307767659,0.4764748812,-0.6823474765,0.6703764796,6.969521046,97.59281437125748,-81.83233532934132,357.2934131736527,-6428.724550898203,-4771.329341317365,3424.317365269461,7
2024-06-15 13:20:17,3.839898825,0.0171042271,-0.7061602473,-2.873042107,4.747702122,8.750806808,105.97604790419162,55.89221556886227,348.311377245509,-6416.748502994012,-4920.431137724551,3420.724550898204,7
2024-06-15 13:20:17,-2.409252644,0.3237585723,0.3677408695,-1.503558636,2.659958124,8.865729332,50.70873786407767,114.62135922330096,-78.57281553398059,-6136.708737864078,-4937.660194174758,3215.990291262136,7
2024-06-15 13:20:17,-0.5473352671,0.1478293836,0.09285151958,-1.678335428,-3.229778051,8.918401718,41.71844660194175,-126.83495145631068,-24.864077669902912,-6130.378640776699,-4931.21359223301,3446.1844660194174,7
2024-06-15 13:20:17,-0.5473352671,0.1478293836,0.09285151958,-1.678335428,-3.229778051,8.918401718,-121.9,-68.31,285.16,-6098.98,-4942.19,3203.03,7
2024-06-15 13:20:17,-0.7843509912,-0.4532620013,0.08063421398,-1.086967587,7.855375767,9.323021889,-105.0952380952381,265.42857142857144,96.76190476190476,-6382.142857142857,-4984.9047619047615,3222.095238095238,7
2024-06-15 13:20:17,-0.7843509912,-0.4532620013,0.08063421398,-1.086967587,7.855375767,9.323021889,322.7,119.02,252.62,-6439.26,-4885.66,3252.28,7
2024-06-15 13:20:17,-0.5412266254,0.1918116808,0.4251621962,-2.04464817,1.029506683,8.406042099,272.48571428571427,-20.05714285714285,546.8095238095239,-6467.4857142857145,-4665.952380952381,3246.266666666667,7
2024-06-15 13:20:18,-0.8466592431,0.01343903504,-0.5290092826,-1.613691926,0.9481038451,9.299078941,-730.5339805825242,-288.7669902912621,-575.252427184466,-6490.650485436893,-4505.407766990291,3431.0679611650485,7
2024-06-15 13:20:18,-0.8466592431,0.01343903504,-0.5290092826,-2.375048161,-1.790862918,9.50976944,-1038.0582524271845,-457.11650485436894,191.8640776699029,-6570.708737864078,-4387.417475728155,3144.2718446601943,7
2024-06-15 13:20:18,2.717128515,0.003665191587,-0.4935791194,-2.375048161,-1.790862918,9.50976944,-2266.766990291262,-1369.5339805825242,792.9126213592233,-6403.058252427185,-4533.834951456311,3399.864077669903,7
2024-06-15 13:20:18,-1.749518037,0.3616322279,0.2919935882,-1.182735682,1.446097851,10.36210537,-1792.6831683168316,-829.09900990099,708.4158415841584,-6126.0,-4926.465346534654,3379.524752475248,7
2024-06-15 13:20:18,-1.749518037,0.3616322279,0.2919935882,-1.182735682,1.446097851,10.36210537,-590.2307692307693,82.15384615384616,564.0384615384615,-6331.538461538462,-4567.961538461538,3056.6153846153848,7
2024-06-15 13:20:18,-1.328021049,1.46363318,-0.5057964325,-1.515529633,-0.5985504389,5.98550415,-202.1683168316832,300.1980198019802,-11.029702970297024,-6385.079207920792,-4508.0,3122.6633663366338,7
2024-06-15 13:20:18,-4.757418633,1.187522054,-1.414763927,-4.185064793,-3.816357613,3.141192675,-420.6037735849056,255.83018867924528,-205.8490566037736,-6375.207547169812,-4953.509433962264,2865.245283018868,7
2024-06-15 13:20:18,-4.757418633,1.187522054,-1.414763927,-4.185064793,-3.816357613,3.141192675,-586.6938775510204,140.37755102040816,-183.1122448979592,-6689.357142857143,-4960.969387755102,2886.1326530612246,7
2024-06-15 13:20:18,0.618195653,0.09407325089,-0.5045747161,-6.955155849,-14.43464184,7.309497833,-232.6019417475728,-345.70873786407765,431.2718446601942,-6633.155339805825,-4587.126213592233,2725.757281553398,7
2024-06-15 13:20:18,0.618195653,0.09407325089,-0.5045747161,-6.955155849,-14.43464184,7.309497833,-242.06106870229007,-186.8702290076336,422.62595419847327,-6590.381679389313,-4509.732824427481,2757.351145038168,7
2024-06-15 13:20:19,-0.06108652428,-0.04764748737,0.3371976018,-3.790021181,-6.121973515,6.682217121,-332.4,-230.225,239.225,-6375.725,-4537.825,2757.7,7
2024-06-15 13:20:19,0.8503243923,0.1331686229,0.2467895597,-4.967968464,-4.965574265,6.720524311,11.375,267.00961538461536,133.60576923076923,-6679.019230769231,-4525.307692307692,2878.0096153846152,7
2024-06-15 13:20:19,0.8503243923,0.1331686229,0.2467895597,-4.967968464,-4.965574265,6.720524311,83.51923076923077,246.8653846153846,578.3653846153846,-6626.846153846154,-4649.942307692308,2521.7115384615386,7
2024-06-15 13:20:19,0.4605923891,0.1295034289,0.4813618064,-6.095637321,-5.31512785,7.702147007,-39.43396226415094,247.83018867924528,511.2075471698113,-6691.471698113208,-4660.566037735849,2673.7735849056603,7
2024-06-15 13:20:19,1.02991879,0.3738495409,1.200961113,-6.919242859,-4.663905144,7.323863029,770.9805825242719,299.2718446601942,112.5631067961165,-6955.354368932039,-4347.708737864078,2444.014563106796,7
2024-06-15 13:20:19,1.02991879,0.3738495409,1.200961113,-6.919242859,-4.663905144,7.323863029,1101.509090909091,268.03636363636366,27.89090909090909,-6912.109090909091,-4342.418181818181,2502.890909090909,7
2024-06-15 13:20:19,1.442863703,0.4776966274,1.164309144,-6.651092529,-1.206677675,6.282385349,1007.8727272727272,-6.509090909090901,-148.47272727272727,-6638.472727272727,-4335.145454545454,2826.5272727272727,7
2024-06-15 13:20:19,1.442863703,0.4776966274,1.164309144,-6.651092529,-1.206677675,6.282385349,1181.56,-124.96,-543.24,-6637.72,-4258.16,2940.44,7
2024-06-15 13:20:19,1.187522054,0.3396410644,0.9407324791,-6.442796707,1.218648672,5.181052685,918.3238095238096,50.36190476190476,-264.5047619047619,-6908.285714285715,-3987.0476190476193,3311.9142857142856,7
2024-06-15 13:20:19,1.061683774,0.1991420686,0.6023131609,-6.777985096,3.423708439,4.733336926,-20.84,-31.58,-436.18,-6713.18,-4328.4,2994.48,7
2024-06-15 13:20:20,1.061683774,0.1991420686,0.6023131609,-6.777985096,3.423708439,4.733336926,-92.36633663366337,241.95049504950487,-516.8118811881188,-6702.930693069307,-4575.841584158416,3186.4554455445545,7
2024-06-15 13:20:20,0.7489207983,0.1844813079,0.4691445231,-6.888118267,4.922478676,4.216189384,526.3809523809524,575.0761904761905,671.847619047619,-6926.085714285714,-4134.752380952381,3159.723809523809,7
2024-06-15 13:20:20,0.4227187634,0.1588249654,0.2406809032,-6.794744492,5.386953831,3.299209833,246.94117647058823,406.4509803921569,1117.8235294117646,-7096.450980392156,-3863.745098039216,3161.607843137255,7
2024-06-15 13:20:20,0.4227187634,0.1588249654,0.2406809032,-6.794744492,5.386953831,3.299209833,332.34,176.37,525.8199999999999,-7086.13,-3876.92,3030.64,7
2024-06-15 13:20:20,0.2919935882,0.07696902007,0.2186897546,-6.579266071,6.260837555,3.098097086,87.26415094339623,276.8490566037736,-12.58490566037736,-7227.66037735849,-3523.849056603773,3012.377358490566,7
2024-06-15 13:20:20,0.2919935882,0.07696902007,0.2186897546,-6.579266071,6.260837555,3.098097086,-27.728155339805824,189.63106796116503,-26.330097087378647,-6893.805825242718,-3806.135922330097,3071.631067961165,7
2024-06-15 13:20:20,0.3164281845,0.07696902007,0.1588249654,-6.349422932,6.148310184,2.552218914,338.68,604.12,-134.28,-7198.68,-3949.24,2723.16,7
2024-06-15 13:20:20,0.1539380401,0.05619960278,0.08307767659,-6.421248913,6.409277916,2.516305923,313.77777777777777,345.0740740740741,-393.03703703703707,-7085.444444444444,-4059.555555555556,2835.6666666666665,7
2024-06-15 13:20:20,0.1539380401,0.05619960278,0.08307767659,-6.421248913,6.409277916,2.516305923,384.14814814814815,-67.2716049382716,-736.8641975308642,-6894.703703703704,-3783.6296296296296,2991.222222222222,7
2024-06-15 13:20:20,0.1136209369,0.03420845419,0.08674286306,-6.368576527,6.555324078,2.272097349,-1073.3663366336634,194.21782178217825,355.7920792079208,-7384.970297029703,-3455.3564356435645,2748.019801980198,7
2024-06-15 13:20:21,0.1087340117,0.007330383174,0.04276056588,-6.191405773,6.773196697,2.245761156,-432.38461538461536,-71.96153846153845,-1342.8365384615386,-7356.836538461538,-4225.028846153846,2859.0096153846152,7
2024-06-15 13:20:21,0.1087340117,0.007330383174,0.04276056588,-6.191405773,6.773196697,2.245761156,-67.03030303030303,-331.6666666666667,-3203.818181818182,-6489.838383838384,-4641.121212121212,3085.686868686869,7
2024-06-15 13:20:21,0.196698606,0.04764748737,0.05131268129,-6.31590414,6.888118267,1.994369984,-313.8095238095238,-601.6761904761905,-3181.580952380953,-6395.228571428572,-4598.72380952381,3098.495238095238,7
2024-06-15 13:20:21,0.196698606,0.04764748737,0.05131268129,-6.31590414,6.888118267,1.994369984,-598.1941747572815,-628.1941747572815,-2264.3106796116504,-5835.417475728155,-5442.1067961165045,3146.5825242718447,7
2024-06-15 13:20:21,0.1392772794,0.008552113548,0.04642575979,-6.224924564,6.885724068,1.656787634,-409.6571428571429,-585.5142857142857,-2551.133333333333,-5358.952380952381,-5923.819047619048,3159.152380952381,7
2024-06-15 13:20:21,-0.02076941915,0.00244346098,0.009773843922,-6.133944988,7.019799232,1.912967205,-610.3592233009708,-554.5436893203884,-3153.106796116505,-5098.553398058252,-5886.330097087379,3169.446601941748,7
2024-06-15 13:20:21,-0.02076941915,0.00244346098,0.009773843922,-6.133944988,7.019799232,1.912967205,-462.1881188118812,-372.8118811881188,-4064.495049504951,-4840.920792079208,-6420.158415841584,3107.2772277227723,7
2024-06-15 13:20:21,0.06108652428,0.003665191587,0.03909537569,-6.16506958,7.194576263,1.584961534,-969.3333333333334,-1049.3333333333333,-4904.0,-3499.333333333333,-7197.333333333333,2740.0,7
2024-06-15 13:20:21,-0.1148426682,0.01832595654,-0.0354301855,-6.02381134,6.833051682,1.70946002,-1364.4271844660193,-1095.495145631068,-4931.0679611650485,-3170.621359223301,-7160.271844660194,2906.2912621359224,7
2024-06-15 13:20:21,-0.1148426682,0.01832595654,-0.0354301855,-6.02381134,6.833051682,1.70946002,-979.4313725490196,-751.7647058823529,-3793.647058823529,-1978.7058823529408,-7641.941176470588,2531.294117647059,7
2024-06-15 13:20:22,-0.3274237812,-0.02199114859,-0.0720821023,-6.181828976,6.87854147,1.963245392,-446.8,-813.7333333333333,-2353.4,-1381.0,-7840.8,2614.2,7
2024-06-15 13:20:22,-0.3274237812,-0.02199114859,-0.0720821023,-6.181828976,6.87854147,1.963245392,-414.6634615384616,-560.7596153846154,-1738.2403846153843,-816.4711538461538,-7890.432692307692,2563.442307692308,7
2024-06-15 13:20:22,-0.4972442985,-0.07574728876,-0.1343903542,-6.299144745,6.825869083,2.406172752,-426.6923076923077,-401.6373626373626,-1306.7802197802198,-296.65934065934067,-7915.989010989011,2234.978021978022,7
2024-06-15 13:20:22,-0.85765481,-0.0415388383,-0.3628539443,-5.997475147,6.406883717,2.607285738,-446.00961538461536,-403.38461538461536,-779.0384615384615,-364.3942307692308,-8211.067307692309,2362.173076923077,7
2024-06-15 13:20:22,-0.85765481,-0.0415388383,-0.3628539443,-5.997475147,6.406883717,2.607285738,-321.6380952380952,-352.96190476190475,-681.2476190476191,-298.0857142857143,-7984.857142857143,2326.390476190476,7
2024-06-15 13:20:22,-1.007927656,-0.3225368559,-1.161865711,-5.700594425,5.015852451,3.311181068,-357.0769230769231,-186.6013986013986,-686.3706293706293,59.84615384615385,-7892.503496503496,2345.7412587412587,7
2024-06-15 13:20:22,-1.007927656,-0.3225368559,-1.161865711,-5.841852188,2.066195965,5.607220173,-293.2631578947368,-247.4035087719298,-490.3157894736842,35.21052631578947,-8188.561403508772,2278.59649122807,7
2024-06-15 13:20:22,-1.769065738,-0.8820894361,-1.92056036,-5.841852188,2.066195965,5.607220173,30.010309278350515,-127.17525773195877,-589.4226804123712,367.8453608247423,-7904.412371134021,2041.443298969072,7
2024-06-15 13:20:22,-3.015230894,-0.4923573732,-2.378709316,-5.547365189,-3.624821424,3.691859007,-94.07692307692308,-136.76923076923077,-515.7692307692307,203.92307692307693,-7888.7692307692305,2329.692307692308,7
2024-06-15 13:20:22,-3.015230894,-0.4923573732,-2.378709316,-5.547365189,-3.624821424,3.691859007,-318.93203883495147,25.54368932038835,-399.8640776699029,562.3398058252427,-7898.961165048544,2188.106796116505,7
2024-06-15 13:20:23,-8.461705208,1.181413412,-2.731789351,-2.363077164,-14.50167942,-3.938461781,37.26732673267327,73.33663366336634,-210.1386138613861,594.2277227722773,-7903.168316831683,2035.09900990099,7
2024-06-15 13:20:23,0.6206390858,-0.2700024247,0.68539083,-4.12999773,-12.71321106,-6.16506958,43.401869158878505,63.29906542056075,-187.88785046728967,531.6542056074767,-7891.92523364486,2039.018691588785,7
2024-06-15 13:20:23,0.6206390858,-0.2700024247,0.68539083,-4.12999773,-12.71321106,-6.16506958,-278.5445544554456,-49.82178217821782,-332.13861386138615,419.74257425742576,-7894.485148514851,2319.712871287129,7
2024-06-15 13:20:23,2.900388241,-0.7562511563,1.317025423,-3.244143248,-8.6957407,-1.692700624,-235.77777777777777,112.1358024691358,-327.32716049382714,429.3395061728395,-7893.925925925926,2273.8703703703704,7
2024-06-15 13:20:23,4.015828133,-0.2577851415,1.055575132,-5.130774021,-8.123526573,3.131615877,-46.888888888888886,88.67901234567901,-352.6358024691358,470.6975308641975,-7897.62962962963,2105.351851851852,7
2024-06-15 13:20:23,4.015828133,-0.2577851415,1.055575132,-5.130774021,-8.123526573,3.131615877,-222.7142857142857,-99.42857142857144,-348.57142857142856,738.2857142857143,-7883.0,2065.8571428571427,7
2024-06-15 13:20:23,1.549154282,-0.4398229718,0.6206390858,-5.894524574,-3.859453201,7.328651428,32.49,69.7,-363.72,810.21,-7859.79,2009.37,7
2024-06-15 13:20:23,-0.4361577928,-0.6389650702,0.8051204085,-5.109226227,-5.5042696,7.376535416,68.22772277227723,75.1980198019802,-371.6831683168317,846.6732673267327,-7898.584158415842,2027.247524752476,7
2024-06-15 13:20:23,-0.4361577928,-0.6389650702,0.8051204085,-5.109226227,-5.5042696,7.376535416,60.0,87.0,-357.0,877.6666666666666,-7830.333333333333,2037.3333333333333,7
2024-06-15 13:20:23,-0.06475171447,-0.5485569835,0.4190535545,-4.12999773,-2.336740971,8.303091049,-273.1714285714286,61.48571428571428,-325.7714285714286,892.9714285714285,-7860.828571428571,2019.142857142857,7
2024-06-15 13:20:24,-0.06475171447,-0.5485569835,0.4190535545,-4.12999773,-2.336740971,8.303091049,19.46296296296299,31.27777777777778,-321.3888888888889,703.3888888888889,-7849.944444444444,2030.1851851851848,7
2024-06-15 13:20:24,0.2700024247,-0.6084218025,0.2370157093,-3.385401249,-0.2513911724,9.083600998,57.876288659793815,103.49484536082474,-332.87628865979383,722.7731958762887,-7851.7525773195875,2042.1340206185569,7
2024-06-15 13:20:24,1.159422278,-0.5033529401,0.1148426682,-3.232172251,0.9768342972,8.386888504,22.41747572815534,117.92233009708738,-303.06796116504853,736.8834951456311,-7853.310679611651,2035.0,7
2024-06-15 13:20:24,1.159422278,-0.5033529401,0.1148426682,-3.232172251,0.9768342972,8.386888504,58.40880503144654,-105.0125786163522,25.553459119496857,748.0314465408806,-7817.484276729559,2326.496855345912,7
2024-06-15 13:20:24,0.1954768747,-0.4764748812,-0.2431243658,-2.410961151,2.135627985,9.102754593,-147.54901960784315,-126.82352941176472,77.6470588235294,874.1960784313726,-7869.921568627451,2204.470588235294,7
2024-06-15 13:20:24,0.1954768747,-0.4764748812,-0.2431243658,-2.403778553,0.009576806799,9.502586365,95.66666666666669,-91.0,-40.0,1040.6666666666667,-7822.333333333333,2132.333333333333,7
2024-06-15 13:20:24,-0.770911932,0.25167647,0.03176499158,-2.403778553,0.009576806799,9.502586365,29.862745098039213,-60.21568627450981,169.2941176470588,745.0196078431372,-7971.294117647059,2138.058823529412,7
2024-06-15 13:20:24,0.9395107627,-0.2345722616,-0.04031710699,-2.475604534,2.777273893,7.577648163,-278.88235294117646,321.5882352941176,453.11764705882354,724.5,-7873.441176470588,2316.5882352941176,7
2024-06-15 13:20:24,0.9395107627,-0.2345722616,-0.04031710699,-2.475604534,2.777273893,7.577648163,55.48484848484848,361.3131313131313,612.0808080808081,740.6969696969697,-7896.454545454545,2039.7777777777776,7
2024-06-15 13:20:24,0.6609562039,-0.08918632567,-0.07330382615,-1.335964561,5.269638062,10.06522369,128.16346153846155,537.7692307692307,1504.625,448.49038461538464,-7915.2307692307695,2365.201923076923,7
2024-06-15 13:20:25,-2.444682598,0.3469714522,0.2541199327,-2.784456491,2.97359848,8.671798706,172.94059405940595,657.940594059406,2286.7524752475247,-6.7227722772277225,-7857.029702970297,2407.059405940594,7
2024-06-15 13:20:25,-2.444682598,0.3469714522,0.2541199327,-2.784456491,2.97359848,8.671798706,80.18867924528301,930.0188679245284,3116.188679245283,-780.2075471698113,-7973.88679245283,2232.075471698113,7
2024-06-15 13:20:25,0.1930334121,0.04764748737,-0.0415388383,-2.331952572,-0.5434837937,10.80503273,171.5,719.813725490196,5174.4607843137255,-2231.6372549019607,-7709.862745098039,2243.343137254902,7
2024-06-15 13:20:25,0.1930334121,0.04764748737,-0.0415388383,-2.331952572,-0.5434837937,10.80503273,203.72727272727272,-515.0,6428.0,-3377.3636363636365,-7346.363636363636,2497.7272727272725,7
2024-06-15 13:20:25,0.5082398653,0.05619960278,-0.009773843922,-1.893813491,0.4022258818,9.528923035,5.777777777777772,-1042.3333333333333,7195.888888888889,-4326.333333333333,-6870.666666666667,2637.222222222222,7
2024-06-15 13:20:25,0.04520402849,-0.06230825558,-0.1014036313,-2.396595955,0.2609679997,8.305485725,463.530612244898,-493.4387755102041,6850.632653061224,-4862.010204081633,-6287.591836734694,2902.673469387755,7
2024-06-15 13:20:25,0.04520402849,-0.06230825558,-0.1014036313,-2.396595955,0.2609679997,8.305485725,218.42592592592592,794.6666666666666,3889.3888888888887,-6268.851851851852,-4920.777777777777,2694.962962962963,7
2024-06-15 13:20:25,2.280970812,-0.07330382615,0.03787364438,-1.604115129,1.81959331,11.33654499,178.11764705882354,415.2352941176471,2619.0392156862745,-7104.607843137255,-4218.607843137255,2530.098039215686,7
2024-06-15 13:20:25,-3.089756489,0.7037167549,0.03420845419,-3.105279684,2.717418909,8.444349289,227.3333333333333,-44.33333333333333,1431.3333333333333,-7479.0,-3817.0,2518.0,7
2024-06-15 13:20:25,-3.089756489,0.7037167549,0.03420845419,-3.105279684,2.717418909,8.444349289,24.949494949494976,-330.5757575757576,818.3636363636364,-7059.0,-3721.2626262626254,2530.747474747475,7
2024-06-15 13:20:26,0.7892379165,0.05009094998,0.2235766798,-2.497152328,-3.500322819,10.05325317,-171.13725490196077,34.74509803921569,322.04901960784315,-7226.107843137255,-3828.5,2544.2156862745096,7
2024-06-15 13:20:26,0.7892379165,0.05009094998,0.2235766798,-2.497152328,-3.500322819,10.05325317,243.92,-228.8,17.680000000000007,-7064.52,-3764.08,2826.28,7
2024-06-15 13:20:26,1.849699974,-0.2125810981,-0.5949827433,-1.213860273,5.073313236,11.46343803,480.36470588235295,-223.58235294117648,-317.6470588235294,-7276.070588235294,-3517.5,2795.7705882352943,7
2024-06-15 13:20:26,-2.605951071,0.2748893499,0.4386012554,-3.785232782,0.9600749016,7.623138428,302.3414634146342,-90.17073170731706,-448.219512195122,-7227.317073170731,-3577.3658536585367,2930.121951219512,7
2024-06-15 13:20:26,-2.605951071,0.2748893499,0.4386012554,-3.785232782,0.9600749016,7.623138428,-330.9339622641509,318.4622641509434,-1070.2264150943397,-6863.971698113208,-3799.075471698113,3114.745283018868,7
2024-06-15 13:20:26,3.518583775,0.1050688252,-0.299323976,-4.596867085,-0.3423708379,4.788403511,-981.8333333333331,531.5294117647059,-1023.0588235294116,-6966.509803921569,-4235.078431372549,2504.0,7
2024-06-15 13:20:26,-1.145983219,0.6572909951,-0.01221730467,-2.559401512,4.27125597,10.9199543,229.06508875739644,679.7869822485208,-455.5562130177515,-6867.485207100592,-4513.816568047338,2036.0236686390533,7
2024-06-15 13:20:26,-1.145983219,0.6572909951,-0.01221730467,-2.559401512,4.27125597,10.9199543,473.4437869822485,670.9112426035502,-512.0650887573964,-6871.03550295858,-4447.84023668639,2070.343195266272,7
2024-06-15 13:20:26,-0.9346238375,-0.3298672438,0.3445279896,-2.724601507,-4.685452938,6.059724331,717.8224852071006,662.0355029585799,-568.5739644970414,-6874.585798816568,-4381.863905325444,2104.662721893491,7
2024-06-15 13:20:26,-0.9346238375,-0.3298672438,0.3445279896,-2.724601507,-4.685452938,6.059724331,955.6962025316456,749.5696202531645,-603.7594936708861,-7019.5822784810125,-4313.506329113924,2049.4177215189875,7
2024-06-15 13:20:27,1.470963478,-0.1600466967,0.3408628106,-1.651999116,4.326322556,13.6062479,667.5111111111111,-254.9333333333333,-459.44444444444446,-6732.6,-4400.2,2938.9333333333334,7
2024-06-15 13:20:27,0.00244346098,0.08552113175,0.8283332586,-4.137180328,0.8690952063,6.445190907,456.8461538461538,-617.4711538461538,-624.2692307692307,-6286.519230769231,-4780.615384615385,3338.548076923077,7
2024-06-15 13:20:27,0.00244346098,0.08552113175,0.8283332586,-4.137180328,0.8690952063,6.445190907,868.3,-63.120000000000005,-110.84,-6466.46,-4507.7,3611.36,7
2024-06-15 13:20:27,1.975538254,-0.2785545588,-0.02199114859,-2.894589901,4.805162907,7.639897823,657.0370370370371,68.87037037037037,18.57407407407408,-6444.314814814815,-4312.277777777777,3621.1296296296296,7
2024-06-15 13:20:27,-0.3616322279,-0.1820378453,0.09162978828,-1.690306425,6.038176537,10.06522369,-45.932038834951456,-37.58252427184466,401.4660194174757,-6453.747572815534,-4386.388349514563,3280.388349514564,7
2024-06-15 13:20:27,-0.3616322279,-0.1820378453,0.09162978828,-1.690306425,6.038176537,10.06522369,-59.38775510204081,624.3673469387755,771.6530612244898,-6758.530612244898,-4461.7959183673465,3329.5102040816328,7
2024-06-15 13:20:27,-0.7965682745,0.3042109013,0.05619960278,-1.980004787,2.437297344,8.963891029,-39.9811320754717,618.2075471698113,438.2452830188679,-6702.66037735849,-4419.509433962264,3029.0377358490564,7
2024-06-15 13:20:27,-0.7965682745,0.3042109013,0.05619960278,-1.980004787,2.437297344,8.963891029,-201.78217821782167,552.6831683168317,-312.2079207920792,-6980.80198019802,-4425.584158415842,3117.861386138614,7
2024-06-15 13:20:27,-0.2700024247,0.2626720667,-0.2394591719,-1.673547029,3.473986626,9.40681839,141.9902912621359,-314.6116504854369,-283.15533980582524,-6901.339805825242,-4256.223300970873,3011.407766990292,7
2024-06-15 13:20:27,-1.753183246,0.4092797041,-0.9358455539,-1.692700624,1.795651317,8.453926086,233.1153846153846,-135.01923076923077,-336.4807692307692,-6610.076923076923,-4453.942307692308,3332.346153846154,7
2024-06-15 13:20:28,-1.753183246,0.4092797041,-0.9358455539,-1.692700624,1.795651317,8.453926086,509.1333333333333,-144.93333333333334,-322.4,-6734.8,-4398.4,3391.0,7
2024-06-15 13:20:28,-1.885130167,0.7342600226,-0.48014009,-4.340687752,-4.917690277,7.972691536,156.61421319796955,184.8984771573604,-63.74111675126903,-6726.543147208122,-4386.223350253807,3409.4111675126906,7
2024-06-15 13:20:28,-2.984687567,-0.06108652428,-0.3677408695,-4.38617754,-3.730166197,6.296750546,-13.0,509.5636363636364,-432.6545454545454,-6612.709090909091,-4388.854545454546,3397.1454545454544,7
2024-06-15 13:20:28,-2.984687567,-0.06108652428,-0.3677408695,-4.38617754,-3.730166197,6.296750546,274.85714285714283,394.7142857142857,-531.7142857142858,-6627.142857142857,-4415.571428571428,3083.1428571428573,7
2024-06-15 13:20:28,-1.435533285,-0.618195653,-0.6010913849,-2.066195965,-5.676652431,5.118803024,1907.7115384615383,584.4903846153846,-511.5673076923077,-6687.576923076923,-4731.365384615385,3065.471153846154,7
2024-06-15 13:20:28,-1.435533285,-0.618195653,-0.6010913849,-2.066195965,-5.676652431,5.118803024,3752.571428571429,1148.809523809524,-469.2380952380952,-6618.952380952381,-4156.9047619047615,3319.5238095238096,7
2024-06-15 13:20:28,-0.09162978828,0.3176499307,0.08918632567,-1.757344007,-7.716512203,5.35104084,3655.330097087379,1847.3495145631068,-593.8446601941747,-6594.650485436893,-4110.52427184466,3622.961165048544,7
2024-06-15 13:20:28,0.7476990819,0.5656611919,-0.2712241709,-1.620874524,-9.339780807,5.398924828,2819.28,1119.76,-110.0,-7057.16,-3348.88,3576.12,7
2024-06-15 13:20:28,0.7476990819,0.5656611919,-0.2712241709,-1.620874524,-9.339780807,5.398924828,1096.4854368932038,305.9223300970874,97.24271844660194,-6864.165048543689,-3421.349514563107,3892.669902912621,7
2024-06-15 13:20:28,0.3787364662,1.009149432,-0.5485569835,-2.188300371,-7.173028469,4.244919777,219.45098039215685,-97.49019607843138,63.294117647058826,-6900.431372549019,-3179.843137254902,3782.5882352941176,7
2024-06-15 13:20:29,-0.1172861308,0.3665191531,-0.8429940343,-1.89620769,-8.473079681,3.45722723,-550.1923076923076,-309.9423076923077,146.54807692307693,-6804.596153846154,-3245.692307692308,3791.038461538461,7
2024-06-15 13:20:29,-0.1172861308,0.3665191531,-0.8429940343,-1.89620769,-8.473079681,3.45722723,-858.7843137254902,-131.31372549019608,-36.74509803921568,-6842.0392156862745,-3322.098039215686,3958.5882352941176,7
2024-06-15 13:20:29,-0.763581574,0.1685988009,-0.1539380401,-2.288856745,-13.45301914,6.895300865,-1181.3302752293578,-130.3394495412844,116.5137614678899,-6911.59633027523,-3312.633027522936,3924.4954128440368,7
2024-06-15 13:20:29,-0.763581574,0.1685988009,-0.1539380401,-2.288856745,-13.45301914,6.895300865,-1548.0392156862745,-14.931372549019606,-271.8921568627451,-6947.637254901961,-3311.86274509804,3758.0,7
2024-06-15 13:20:29,-0.1209513173,-0.1881465018,-0.2675589919,-0.4692635238,-11.03487587,4.98233366,-2083.603773584906,-581.0188679245283,-10.886792452830193,-7107.547169811321,-3633.471698113208,3497.1132075471696,7
2024-06-15 13:20:29,-0.1136209369,0.03909537569,-0.1014036313,-0.5075707436,-9.847352028,4.062960148,-2265.242424242424,-438.8888888888889,57.56565656565657,-7006.0,-4103.79797979798,3231.212121212121,7
2024-06-15 13:20:29,-0.1136209369,0.03909537569,-0.1014036313,-0.5075707436,-9.847352028,4.062960148,-1721.6571428571428,-257.79047619047617,-265.81904761904764,-6978.342857142857,-3904.1238095238095,3319.838095238096,7
2024-06-15 13:20:29,0.4520402849,-0.1331686229,0.0109955743,-0.8283938169,-8.853757858,4.592078686,-1139.8,87.05,285.2,-7022.05,-4013.1,3006.9,7
2024-06-15 13:20:29,0.0171042271,-0.04031710699,-0.04642575979,-0.4668693244,-9.136273384,5.114014626,-704.0980392156863,-50.20588235294117,-6.549019607843137,-7037.382352941177,-4062.9607843137255,3162.176470588235,7
2024-06-15 13:20:29,0.0171042271,-0.04031710699,-0.04642575979,-0.4668693244,-9.136273384,5.114014626,-459.3727810650888,-294.9940828402367,261.1301775147929,-6797.905325443787,-4196.87573964497,2971.6153846153848,7
2024-06-15 13:20:30,0.1368338168,-0.1160643995,-0.02199114859,-0.1292868853,-8.688557625,5.082890034,-476.5325443786982,-307.42011834319527,287.7573964497041,-6796.721893491124,-3957.8224852071007,3079.3076923076924,7
2024-06-15 13:20:30,0.1368338168,-0.1160643995,-0.02199114859,-0.1292868853,-8.688557625,5.082890034,-729.6666666666666,53.333333333333314,509.4,-6845.4,-4061.6,2852.9333333333334,7
2024-06-15 13:20:30,0.1026253626,-0.03176499158,-0.01954768784,-0.4285621047,-8.47786808,5.279214859,-828.1666666666666,90.29166666666669,-14.791666666666686,-6851.708333333333,-4133.708333333333,2919.875,7
2024-06-15 13:20:30,-0.07819075137,0.0,-0.05742133409,-0.3136404157,-8.59278965,5.16189909,-801.9029126213592,72.87378640776699,-13.71844660194175,-7159.961165048544,-3998.6990291262136,2860.3106796116504,7
2024-06-15 13:20:30,-0.07819075137,0.0,-0.05742133409,-0.3136404157,-8.59278965,5.16189909,-234.2941176470588,39.05882352941177,261.4117647058824,-7175.64705882353,-4154.764705882353,2895.4117647058824,7
2024-06-15 13:20:30,-0.0232128799,-0.02199114859,-0.03054326214,-0.1508347094,-8.6957407,5.154716492,-343.3809523809524,37.71428571428572,325.2857142857143,-6881.761904761905,-3776.380952380952,2876.809523809524,7
2024-06-15 13:20:30,-0.1246165112,-0.03420845419,-0.04764748737,-0.2513911724,-8.621520042,4.795586109,-630.8269230769231,-58.54807692307692,220.78846153846155,-7258.048076923077,-3732.9903846153848,2508.423076923077,7
2024-06-15 13:20:30,-0.1246165112,-0.03420845419,-0.04764748737,-0.2513911724,-8.621520042,4.795586109,-25.77,-167.48000000000002,95.25,-7200.94,-3835.09,2536.13,7
2024-06-15 13:20:30,-0.05864306539,0.09040805697,0.01466076635,-0.3040636182,-8.571242332,4.75249052,-236.54368932038835,-38.873786407767,-5.106796116504853,-7202.42718446602,-3940.902912621359,2823.2815533980583,7
2024-06-15 13:20:30,-0.05864306539,0.09040805697,0.01466076635,-0.3040636182,-8.571242332,4.75249052,-491.5229357798165,19.70642201834862,106.77981651376146,-7060.266055045871,-3848.08256880734,2520.788990825688,7
2024-06-15 13:20:31,-0.3359758854,0.1050688252,0.2150245607,0.107739076,-9.375694275,4.714183331,-549.88,-322.7,123.54,-7274.58,-3781.34,2694.56,7
