Timestamp,Gyro_x_x,Gyro_y_x,Gyro_z_x,Acc_x_x,Acc_y_x,Acc_z_x,Gyro_x_y,Gyro_y_y,Gyro_z_y,Acc_x_y,Acc_y_y,Acc_z_y,combined_action_num
2024-06-15 14:05:59,0.1698205322,-0.1478293836,-0.1111774743,2.226607561,2.48996973,10.0604353,874.675,1089.7583333333332,646.2916666666667,-5309.066666666667,-5144.183333333333,4390.475,9
2024-06-15 14:05:59,-0.01954768784,-0.01343903504,-0.09040805697,1.766920805,1.654393315,9.864110947,-166.06666666666666,-205.11111111111111,-418.8444444444444,-5456.666666666667,-5255.377777777778,4412.977777777778,9
2024-06-15 14:06:00,0.0171042271,0.0415388383,-0.04764748737,2.133233786,2.099714994,9.478644371,-230.6067415730337,-337.3258426966292,-1807.8651685393256,-4076.191011235955,-6242.044943820225,4311.179775280899,9
2024-06-15 14:06:00,-1.188743711,0.4691445231,-1.389107585,4.146757126,4.367023945,9.373299599,-309.30232558139534,-48.3953488372093,-1804.046511627907,-3742.1744186046512,-6376.162790697675,4263.930232558139,9
2024-06-15 14:06:00,-1.188743711,0.4691445231,-1.389107585,4.146757126,4.367023945,9.373299599,-339.1348314606741,76.68539325842697,-2335.314606741573,-3698.38202247191,-6330.539325842697,4277.6741573033705,9
2024-06-15 14:06:00,-2.372600555,1.137431145,-3.186273098,0.07661445439,-2.075772762,8.377311707,-405.3524590163934,-580.139344262295,-2506.7950819672133,-3298.7950819672133,-6573.4672131147545,4466.024590163935,9
2024-06-15 14:06:00,-1.710422635,-0.2858849466,-1.740965962,0.9840168953,-7.908048153,5.341464043,-566.3333333333334,-1183.0,-2763.333333333333,-3057.0,-6743.333333333333,4412.666666666667,9
2024-06-15 14:06:00,-1.710422635,-0.2858849466,-1.740965962,0.9840168953,-7.908048153,5.341464043,-809.8089887640449,-1041.943820224719,-2454.179775280899,-2065.5280898876404,-7141.6292134831465,4404.101123595506,9
2024-06-15 14:06:00,-1.894904017,-1.014036298,-0.6963863969,2.506729126,-9.500192642,3.600879431,-553.6511627906976,-560.2093023255813,-1474.9767441860463,-1550.906976744186,-7137.395348837209,4058.558139534884,9
2024-06-15 14:06:00,-1.894904017,-1.014036298,-0.6963863969,2.506729126,-9.500192642,3.600879431,-186.53846153846155,-395.0,-1037.5384615384614,-1555.3076923076924,-7431.692307692308,4059.846153846154,9
2024-06-15 14:06:00,-1.328021049,0.3139847219,-0.908967495,3.600879431,-7.266402245,5.46596241,-356.3181818181818,28.488636363636363,-789.2159090909091,-1294.0681818181818,-7470.25,3978.795454545456,9
2024-06-15 14:06:01,0.1539380401,0.1514945775,-0.2235766798,5.482721806,-8.429984093,4.335899353,-332.6363636363636,-291.45454545454544,-426.54545454545456,-946.8636363636364,-7515.954545454545,4181.545454545455,9
2024-06-15 14:06:01,0.1539380401,0.1514945775,-0.2235766798,5.482721806,-8.429984093,4.335899353,-202.7826086956522,-543.6086956521739,-613.2173913043479,-954.9130434782608,-7374.565217391304,4146.086956521739,9
2024-06-15 14:06:01,0.9321803451,-0.5131267905,0.5607742667,5.961562157,-8.767566681,1.728613615,-268.98837209302326,-436.9302325581396,-480.0232558139535,-859.0930232558139,-7391.558139534884,4001.255813953489,9
2024-06-15 14:06:01,1.025031924,-0.8161159754,1.707979202,2.497152328,-9.763554573,4.455609322,-268.9111111111111,-237.27777777777777,-444.8222222222222,-619.7222222222222,-7529.188888888889,4095.0222222222224,9
2024-06-15 14:06:01,1.025031924,-0.8161159754,1.707979202,2.497152328,-9.763554573,4.455609322,-319.8181818181818,-343.09090909090907,-318.0909090909091,-596.0454545454545,-7372.0,4184.090909090909,9
2024-06-15 14:06:01,-0.3433062732,-1.414763927,1.264491081,0.5243301988,-7.508216381,3.7181952,70.50574712643677,-49.95402298850576,-194.6551724137931,-564.6781609195402,-7368.482758620689,4193.80459770115,9
2024-06-15 14:06:01,-0.3433062732,-1.414763927,1.264491081,0.5243301988,-7.508216381,3.7181952,66.61481481481482,57.24444444444445,-158.37777777777777,-572.5407407407407,-7544.051851851852,4081.9777777777776,9
2024-06-15 14:06:01,-0.5754350424,-1.346346974,0.2895501256,1.26413846,-8.645462036,3.813963413,-292.57142857142856,114.42857142857144,-141.57142857142858,-533.2857142857143,-7356.857142857143,3975.0,9
2024-06-15 14:06:01,0.632856369,-1.056796908,-0.1478293836,3.251325846,-9.263166428,3.892971992,13.818181818181818,-57.31818181818182,5.181818181818182,-551.6363636363636,-7312.818181818182,4189.227272727273,9
2024-06-15 14:06:01,0.632856369,-1.056796908,-0.1478293836,3.251325846,-9.263166428,3.892971992,-32.67391304347826,107.5108695652174,21.03260869565217,-542.5108695652174,-7334.75,4190.119565217391,9
2024-06-15 14:06:02,0.3579670191,-0.5778785348,-0.161268428,3.529053211,-8.899248123,4.340687752,-53.37931034482759,41.13793103448276,43.51724137931034,-536.6551724137931,-7324.724137931034,4191.758620689655,9
2024-06-15 14:06:02,0.3579670191,-0.5778785348,-0.161268428,3.804386616,-8.410830498,4.295197964,-171.26436781609195,52.770114942528735,-53.7816091954023,-547.6206896551724,-7345.183908045977,4189.770114942528,9
2024-06-15 14:06:02,0.2345722616,-0.2370157093,-0.1649336219,3.804386616,-8.410830498,4.295197964,29.823529411764707,-119.41176470588236,-313.6470588235294,-414.8235294117647,-7317.058823529412,4217.294117647059,9
2024-06-15 14:06:02,-0.04276056588,-0.1343903542,-0.2028072625,3.473986626,-8.705317497,4.134786129,-147.37593984962405,49.27067669172932,-130.91729323308272,-203.46616541353384,-7358.5939849624065,4207.969924812031,9
2024-06-15 14:06:02,-0.04276056588,-0.1343903542,-0.2028072625,3.842693806,-8.228871346,4.161122322,29.0,-104.91666666666669,-59.25,-358.3333333333333,-7335.166666666667,4191.25,9
2024-06-15 14:06:02,0.08552113175,-0.01221730467,-0.1832595766,3.842693806,-8.228871346,4.161122322,23.20689655172414,-114.48275862068964,-111.55172413793105,-428.0,-7338.137931034483,4200.448275862069,9
2024-06-15 14:06:02,-0.2773328125,0.1185078546,-0.1514945775,4.003105164,-8.482656479,4.687847137,15.613636363636369,-245.9886363636364,-293.2613636363636,-526.3863636363636,-7319.170454545455,4162.704545454545,9
2024-06-15 14:06:02,-0.2773328125,0.1185078546,-0.1514945775,4.003105164,-8.482656479,4.687847137,-299.82758620689657,-283.7931034482759,-281.51724137931035,-528.9310344827586,-7316.241379310345,4157.137931034483,9
2024-06-15 14:06:02,0.4434881806,-0.145385921,-0.2138028294,4.405331135,-8.173804283,3.806780815,18.33333333333333,21.615384615384617,49.66666666666666,-211.3333333333333,-7404.538461538462,4147.282051282052,9
2024-06-15 14:06:02,0.1514945775,-0.0171042271,-0.1429424733,4.570530891,-7.366958618,4.484339714,35.266666666666666,39.93333333333334,32.2,-223.7333333333333,-7373.4,4146.8,9
2024-06-15 14:06:03,0.1514945775,-0.0171042271,-0.1429424733,4.570530891,-7.366958618,4.484339714,102.54545454545456,23.27272727272728,-75.45454545454545,-180.54545454545453,-7369.636363636364,4130.636363636364,9
2024-06-15 14:06:03,-0.3359758854,-0.09407325089,-0.01466076635,4.510675907,-8.082824707,4.821922302,99.92134831460676,-100.13483146067416,220.53932584269663,-225.56179775280896,-7336.4157303370785,4129.348314606742,9
2024-06-15 14:06:03,-0.3359758854,-0.09407325089,-0.01466076635,4.510675907,-8.082824707,4.821922302,67.91011235955057,-33.07865168539326,461.5393258426966,-563.4606741573034,-7349.08988764045,4149.831460674157,9
2024-06-15 14:06:03,-0.1918116808,-0.02199114859,-0.006108652335,4.400542736,-7.592013359,4.479551315,112.438202247191,297.2696629213483,912.9325842696628,-498.5505617977528,-7325.505617977528,4153.797752808989,9
2024-06-15 14:06:03,0.08918632567,0.06963863969,-0.1197295859,5.035006046,-8.171410561,5.023035049,-106.01162790697674,270.6511627906977,1555.186046511628,-746.2093023255813,-7326.3488372093025,4168.988372093023,9
2024-06-15 14:06:03,0.08918632567,0.06963863969,-0.1197295859,5.035006046,-8.171410561,5.023035049,108.2258064516129,238.33870967741936,2371.048387096774,-1273.3709677419356,-7470.903225806452,4243.693548387097,9
2024-06-15 14:06:03,0.228463605,0.003665191587,-0.1050688252,4.683058739,-7.036558628,4.627991676,316.8,287.2,3142.4,-1702.6,-7397.2,4397.2,9
2024-06-15 14:06:03,-0.05375614017,0.04398229718,-0.05619960278,4.673481941,-7.381323814,5.398924828,266.8139534883721,805.8953488372093,7030.825581395349,-3943.255813953489,-6292.732558139535,4054.139534883721,9
2024-06-15 14:06:03,-0.05375614017,0.04398229718,-0.05619960278,4.673481941,-7.381323814,5.398924828,96.5,583.7613636363636,7731.045454545455,-4470.681818181818,-6063.068181818182,4040.977272727273,9
2024-06-15 14:06:03,-0.08918632567,0.03176499158,0.01832595654,4.656722069,-7.388506413,5.193023682,501.7342657342657,725.3916083916084,6596.713286713287,-5667.531468531469,-4805.195804195804,4141.937062937063,9
2024-06-15 14:06:04,0.02809980139,-0.2186897546,0.0293215327,4.527435303,-7.402871609,5.712565422,254.1818181818182,753.3636363636364,6219.090909090909,-5962.636363636364,-4519.181818181818,4151.727272727273,9
2024-06-15 14:06:04,0.02809980139,-0.2186897546,0.0293215327,4.527435303,-7.402871609,5.712565422,602.8863636363636,622.6136363636364,2973.4772727272725,-7129.340909090909,-3209.090909090909,4087.068181818182,9
2024-06-15 14:06:04,-0.1954768747,-0.08918632567,0.1014036313,4.960785866,-7.386112213,4.371812344,598.8695652173913,155.06521739130434,2430.641304347826,-7119.630434782609,-2522.7065217391305,4039.0108695652175,9
2024-06-15 14:06:04,-0.1954768747,-0.08918632567,0.1014036313,4.960785866,-7.386112213,4.371812344,-6.0,241.1379310344828,1668.5517241379312,-7379.241379310345,-2031.5172413793105,3995.103448275862,9
2024-06-15 14:06:04,-0.06841690838,-0.06230825558,0.08185594529,5.039794445,-7.218518257,5.006275654,280.87640449438203,491.1123595505618,699.7977528089888,-7369.528089887641,-1924.629213483146,4158.696629213483,9
2024-06-15 14:06:04,-0.01954768784,-0.02076941915,0.04642575979,4.762067318,-7.505822182,4.510675907,140.20652173913044,506.0978260869565,334.20652173913044,-7720.5,-2117.891304347826,3901.684782608696,9
2024-06-15 14:06:04,-0.01954768784,-0.02076941915,0.04642575979,4.762067318,-7.505822182,4.510675907,177.9294117647059,306.2,-358.84705882352944,-7358.15294117647,-1968.164705882353,3536.6823529411763,9
2024-06-15 14:06:04,-0.1441642046,-0.04886921868,0.06475171447,4.644751072,-7.726089001,4.86980629,598.3255813953489,575.8372093023256,-357.0232558139535,-7544.488372093023,-1962.5348837209303,3690.232558139535,9
2024-06-15 14:06:04,-0.1441642046,-0.04886921868,0.06475171447,4.644751072,-7.726089001,4.86980629,726.7666666666667,806.9,-230.53333333333333,-7509.8,-1942.9666666666667,3530.766666666667,9
2024-06-15 14:06:04,-0.0354301855,-0.01588249579,0.08552113175,4.532223701,-7.812280178,4.544194698,437.8555555555556,944.8666666666668,-107.42222222222222,-7769.722222222223,-1676.6888888888889,3205.222222222222,9
2024-06-15 14:06:05,0.3518583775,-0.1649336219,0.2015855312,4.563348293,-12.81855583,2.087743998,-330.87640449438203,478.2808988764045,12.393258426966298,-7656.393258426966,-2080.6067415730336,3232.9775280898875,9
2024-06-15 14:06:05,0.3518583775,-0.1649336219,0.2015855312,4.563348293,-12.81855583,2.087743998,63.2967032967033,438.5604395604396,442.6923076923077,-7569.10989010989,-2197.3846153846152,3424.846153846154,9
2024-06-15 14:06:05,0.03176499158,-0.05986479297,0.01221730467,4.01747036,-7.867346764,6.442796707,-45.88321167883214,730.970802919708,554.3430656934306,-7759.291970802919,-1694.4817518248176,2927.109489051095,9
2024-06-15 14:06:05,-0.01588249579,0.01588249579,-0.0232128799,4.089296341,-7.656657219,4.144362926,-434.3414634146342,878.8780487804878,669.1463414634146,-8217.90243902439,-1482.6097560975609,2506.1463414634145,9
2024-06-15 14:06:05,-0.01588249579,0.01588249579,-0.0232128799,4.089296341,-7.656657219,4.144362926,526.0,-29.795454545454547,386.7272727272728,-7885.068181818182,-1165.840909090909,2511.8636363636365,9
2024-06-15 14:06:05,0.0171042271,-0.03787364438,0.03420845419,4.886565685,-8.276755333,5.35343504,549.223880597015,152.61194029850745,5.246268656716417,-8211.589552238805,-1380.0074626865671,2624.776119402985,9
2024-06-15 14:06:05,0.0171042271,-0.03787364438,0.03420845419,4.886565685,-8.276755333,5.35343504,543.2537313432836,149.62686567164178,-231.32089552238807,-8239.201492537313,-1203.141791044776,2630.7462686567164,9
2024-06-15 14:06:05,1.121548533,0.7183775306,1.144761443,4.058171749,-10.82897472,5.35104084,840.8260869565217,-90.82608695652172,-219.43478260869568,-8160.869565217391,-1324.4782608695652,2645.5652173913045,9
2024-06-15 14:06:05,4.514294147,0.8747590184,0.9175195694,-0.6847416759,-8.887276649,5.293580055,355.8571428571429,-137.92857142857142,-568.4047619047619,-7970.833333333333,-1175.2619047619048,2522.333333333333,9
2024-06-15 14:06:05,4.514294147,0.8747590184,0.9175195694,-0.6847416759,-8.887276649,5.293580055,104.0,136.2808988764045,-428.8988764044944,-7919.842696629214,-1559.3483146067415,2681.8426966292136,9
2024-06-15 14:06:06,0.9004153609,-0.6963863969,0.3530801237,3.531447411,2.403778553,9.63666153,412.8488372093023,-230.38372093023256,-732.5930232558139,-7862.546511627907,-1831.360465116279,2759.9651162790697,9
2024-06-15 14:06:06,-0.8381071091,-0.1722639948,0.5717698932,1.812410712,-0.7326257229,9.3685112,771.2727272727273,-52.909090909090935,-939.8181818181818,-7707.090909090909,-1729.5454545454545,2713.7272727272725,9
2024-06-15 14:06:06,-0.8381071091,-0.1722639948,0.5717698932,1.812410712,-0.7326257229,9.3685112,751.6179775280899,-77.32584269662921,-1030.2471910112358,-7958.853932584269,-1708.4606741573034,2742.370786516854,9
2024-06-15 14:06:06,-0.8124507666,-0.4960225821,0.08429940045,3.387795448,0.8307880163,8.65743351,1993.3103448275865,461.7586206896552,-351.0689655172414,-7699.896551724138,-1583.655172413793,2754.7241379310344,9
2024-06-15 14:06:06,-0.8124507666,-0.4960225821,0.08429940045,3.387795448,0.8307880163,8.65743351,1887.75,716.75,35.25,-7948.5,-1223.25,2753.25,9
2024-06-15 14:06:06,-1.269377947,0.08429940045,0.5021312237,2.468421936,-1.685518026,10.08916569,1467.6470588235295,508.88235294117646,-186.8235294117647,-8232.29411764706,-1350.470588235294,2756.5882352941176,9
2024-06-15 14:06:06,-1.269377947,0.08429940045,0.5021312237,2.468421936,-1.685518026,10.08916569,1498.2620689655173,133.68965517241378,-590.4413793103448,-8113.696551724138,-1441.2551724137932,3094.462068965517,9
2024-06-15 14:06:06,-1.001819015,0.2370157093,-0.07452555746,2.19308877,-3.004723072,7.824251175,1630.6758620689654,-28.379310344827587,-618.7172413793104,-7913.006896551724,-1212.289655172414,3106.875862068965,9
2024-06-15 14:06:06,1.246165156,-0.1637118906,-0.2052507252,2.094926596,2.56658411,9.507374763,641.9080459770115,107.64367816091954,-279.45977011494256,-7653.402298850575,-1258.2758620689656,3087.735632183908,9
2024-06-15 14:06:07,1.246165156,-0.1637118906,-0.2052507252,2.094926596,2.56658411,9.507374763,91.3103448275862,238.41379310344828,-0.8275862068965552,-8034.896551724138,-1505.1379310344828,2752.655172413793,9
2024-06-15 14:06:07,-0.4373795092,0.2089159191,0.3029891551,1.980004787,-0.7972691655,9.026140213,-161.07692307692307,85.93406593406593,-130.14285714285714,-7917.065934065934,-1633.2527472527472,2762.703296703297,9
2024-06-15 14:06:07,-1.136209369,0.08307767659,0.1233947799,2.425326347,-4.903325081,8.257601738,-240.21875,23.46875,-331.21875,-7709.15625,-1632.25,2738.4375,9
2024-06-15 14:06:07,1.067792416,-0.2260201424,-0.03665191308,3.165134668,3.078943491,10.26873112,199.0,173.5,-175.0,-8224.5,-1249.5,2883.5,9
2024-06-15 14:06:07,1.067792416,-0.2260201424,-0.03665191308,3.165134668,3.078943491,10.26873112,-177.73493975903614,170.25301204819277,185.5060240963856,-7837.891566265061,-1368.9277108433737,2925.3253012048194,9
2024-06-15 14:06:07,-0.9822713137,-0.08063421398,0.4544837475,1.766920805,-1.577778935,8.513781548,-402.2022471910112,17.49438202247191,181.85393258426967,-7858.179775280899,-1544.438202247191,2873.6404494382023,9
2024-06-15 14:06:07,-0.5607742667,0.1685988009,0.02076941915,2.205059767,-3.859453201,8.767566681,-18.306818181818187,-18.704545454545467,-186.9659090909091,-7852.193181818182,-1488.3181818181818,2532.159090909091,9
2024-06-15 14:06:07,-0.5607742667,0.1685988009,0.02076941915,2.205059767,-3.859453201,8.767566681,201.17977528089887,35.202247191011224,-154.97752808988764,-7870.640449438202,-1717.0,2856.8426966292136,9
2024-06-15 14:06:07,-0.7147123218,-0.1343903542,0.1869247705,2.93529129,0.1651999205,9.325415611,461.7386363636364,91.36363636363636,-167.9090909090909,-7831.329545454545,-1563.2386363636365,2896.840909090909,9
2024-06-15 14:06:08,-0.7147123218,-0.1343903542,0.1869247705,2.93529129,0.1651999205,9.325415611,630.6153846153846,116.15384615384616,-276.61538461538464,-7833.340659340659,-1455.2197802197802,2875.043956043956,9
2024-06-15 14:06:08,-0.02076941915,-0.1380555481,0.1918116808,2.281674147,0.5817909837,9.117119789,807.5333333333333,51.22222222222222,-130.04444444444445,-7819.266666666666,-1577.6666666666667,2788.133333333333,9
2024-06-15 14:06:08,-1.679879427,0.1857030392,-0.2638937831,1.831564307,-0.9169792533,8.937555313,511.9285714285714,-321.32142857142856,-244.8928571428572,-8012.571428571428,-1617.678571428571,2780.0714285714284,9
2024-06-15 14:06:08,-1.679879427,0.1857030392,-0.2638937831,1.831564307,-0.9169792533,8.937555313,304.25,39.0,-237.0,-8045.75,-1864.25,3006.5,9
2024-06-15 14:06:08,-2.032959461,0.3750712574,-0.7073819637,3.907337189,-0.9145850539,8.133103371,495.51063829787233,-106.36170212765956,-96.8936170212766,-7852.723404255319,-1831.36170212766,3080.723404255319,9
2024-06-15 14:06:08,-4.295604229,0.6756169796,-0.6902777553,1.798045516,-10.77630138,5.858611584,639.4822695035461,-101.39716312056736,-57.177304964539005,-7976.127659574468,-1826.397163120568,3104.127659574468,9
2024-06-15 14:06:08,-4.295604229,0.6756169796,-0.6902777553,1.798045516,-10.77630138,5.858611584,1282.5862068965516,587.6436781609195,-203.28735632183907,-8014.701149425287,-1359.0459770114942,3107.229885057471,9
2024-06-15 14:06:08,-0.2602286041,0.483805269,-0.7953465581,0.6679822803,-7.972691536,3.699041605,584.6860465116279,293.40697674418607,-559.3604651162791,-7856.790697674419,-1560.3255813953488,2744.6744186046512,9
2024-06-15 14:06:08,-0.2602286041,0.483805269,-0.7953465581,3.05021286,-8.492233276,3.574543238,682.7741935483871,330.5483870967742,-623.0967741935484,-7950.806451612903,-1492.548387096774,2704.064516129032,9
2024-06-15 14:06:08,0.3689626157,-0.5241223574,-1.252273798,3.05021286,-8.492233276,3.574543238,523.0181818181818,33.25454545454545,-293.72727272727275,-8043.381818181818,-1492.581818181818,2541.2727272727275,9
2024-06-15 14:06:09,-0.3090978265,-0.3054326177,-0.762359798,5.121197224,-8.24802494,5.906495571,-376.98936170212767,-70.86170212765957,34.8936170212766,-7909.393617021276,-1887.117021276596,2493.074468085106,9
2024-06-15 14:06:09,-0.3090978265,-0.3054326177,-0.762359798,5.121197224,-8.24802494,5.906495571,-948.8809523809524,-166.73809523809524,548.9761904761905,-7956.5952380952385,-2323.904761904762,2912.309523809524,9
2024-06-15 14:06:09,0.2846632004,-0.3494149148,-0.4227187634,5.688623428,-6.593631268,5.090072632,-79.5,-339.25,1285.25,-7982.0,-1779.0,2549.5,9
2024-06-15 14:06:09,-0.03420845419,-0.1576032341,-0.2247984111,6.038176537,-6.691793919,4.94402647,-26.29213483146067,-304.75280898876406,1029.561797752809,-8374.91011235955,-1126.5955056179776,2812.505617977528,9
2024-06-15 14:06:09,-0.03420845419,-0.1576032341,-0.2247984111,6.038176537,-6.691793919,4.94402647,-437.1290322580645,-890.3225806451613,548.5376344086021,-8136.290322580645,-701.3978494623656,3098.430107526882,9
2024-06-15 14:06:09,-0.4153883755,0.004886921961,0.1649336219,6.363788128,-6.842628479,4.156333923,-1219.8235294117646,-981.1764705882352,711.5294117647059,-8020.294117647059,-572.9411764705883,3267.4117647058824,9
2024-06-15 14:06:09,-0.4153883755,0.004886921961,0.1649336219,6.363788128,-6.842628479,4.156333923,-2126.813186813187,-663.7472527472528,1515.8461538461538,-7783.67032967033,-319.7142857142857,3336.4725274725274,9
2024-06-15 14:06:09,-0.2492330223,-0.08063421398,0.09773843735,6.10042572,-7.235277653,4.38617754,-3636.909090909091,-521.6363636363636,1362.5454545454545,-7382.909090909091,-520.1818181818182,3503.454545454545,9
2024-06-15 14:06:09,0.07086037099,-0.007330383174,-0.0171042271,6.347028732,-8.152256966,4.122815132,-4120.574712643678,-127.5057471264368,1817.574712643678,-7557.022988505747,-202.94252873563207,3653.701149425288,9
2024-06-15 14:06:09,0.07086037099,-0.007330383174,-0.0171042271,6.347028732,-8.152256966,4.122815132,-3904.8426966292136,205.91011235955057,1335.1011235955057,-8048.460674157303,-317.4494382022472,3334.1573033707864,9
2024-06-15 14:06:10,-0.05253441259,0.06719517708,-0.06108652428,6.495469093,-7.742848396,4.000710964,-3022.68345323741,-87.61870503597122,509.7194244604317,-8206.323741007194,-636.4964028776978,3522.2302158273383,9
2024-06-15 14:06:10,0.01343903504,-0.04031710699,-0.1832595766,5.91128397,-7.161057472,4.09408474,-2806.136690647482,-6.323741007194244,629.1438848920864,-8230.06474820144,-632.8992805755396,3552.4460431654675,9
2024-06-15 14:06:10,0.01343903504,-0.04031710699,-0.1832595766,5.91128397,-7.161057472,4.09408474,-2758.1369863013697,313.1095890410959,704.6438356164383,-7875.260273972603,-1030.7808219178082,3222.2876712328766,9
2024-06-15 14:06:10,0.05742133409,-0.08552113175,0.5400048494,7.874529362,-10.14183807,3.555389643,-2677.431818181818,175.47727272727275,497.3181818181818,-7643.454545454545,-941.9545454545456,3281.6136363636365,9
2024-06-15 14:06:10,0.05742133409,-0.08552113175,0.5400048494,7.874529362,-10.14183807,3.555389643,-1173.7083333333333,247.9583333333333,1051.3958333333333,-8082.770833333333,-525.4166666666666,2999.145833333333,9
2024-06-15 14:06:10,0.2296853364,-0.09285151958,1.960877419,3.145981073,-7.852981567,5.068524837,-639.8876404494382,-163.3932584269663,458.4157303370786,-8168.359550561798,-331.6966292134832,2958.921348314607,9
2024-06-15 14:06:10,0.1380555481,-0.3127630055,0.531452775,3.584120035,-6.052541733,4.836287498,-463.9438202247191,-350.56179775280896,-512.2022471910112,-7889.7191011235955,-296.34831460674155,2994.752808988764,9
2024-06-15 14:06:10,0.1380555481,-0.3127630055,0.531452775,3.584120035,-6.052541733,4.836287498,-795.5393258426966,-321.70786516853934,-778.0898876404494,-7880.505617977528,-566.3258426966293,2949.3595505617977,9
2024-06-15 14:06:10,-0.3628539443,-0.2932153046,-0.2040289938,4.314351559,-8.293514252,4.398148537,143.0,-495.0,-1526.6666666666667,-7948.666666666667,-1239.6666666666667,3251.0,9
2024-06-15 14:06:10,-0.5583308339,-0.2553416789,-0.2052507252,3.280056238,-7.984662533,4.321534157,1226.0,-567.6888888888889,-2078.711111111111,-7796.088888888888,-1836.911111111111,3304.4222222222224,9
2024-06-15 14:06:11,-0.5583308339,-0.2553416789,-0.2052507252,3.280056238,-7.984662533,4.321534157,1964.6666666666667,-234.66666666666663,-1679.4666666666667,-7774.666666666667,-1665.1333333333334,3606.0666666666666,9
2024-06-15 14:06:11,-0.2101376504,-0.09040805697,-0.2003637999,4.173093796,-8.588001251,4.043806553,396.09302325581393,-880.8139534883721,145.16279069767444,-7968.0,-390.1627906976744,4031.488372093024,9
2024-06-15 14:06:11,-0.2101376504,-0.09040805697,-0.2003637999,4.225766182,-8.190564156,3.799597979,-3901.113636363637,-1164.8863636363635,3276.431818181818,-7454.886363636364,-140.27272727272725,4207.25,9
2024-06-15 14:06:11,0.3029891551,-0.1661553532,-0.07819075137,4.225766182,-8.190564156,3.799597979,-3584.8988764044943,748.8988764044943,3830.449438202247,-7628.842696629214,-1347.7640449438202,3864.23595505618,9
2024-06-15 14:06:11,0.4618141353,-0.03176499158,-0.004886921961,4.38617754,-7.788338184,4.283226967,-2142.622950819672,1661.8360655737706,2890.3934426229507,-7847.174863387978,-1558.6284153005463,3482.027322404372,9
2024-06-15 14:06:11,0.4618141353,-0.03176499158,-0.004886921961,4.38617754,-7.788338184,4.283226967,-1196.72131147541,2089.7049180327867,2103.5081967213114,-7997.448087431694,-1601.7978142076504,3227.382513661202,9
2024-06-15 14:06:11,0.008552113548,0.2113593817,0.125838235,4.582501888,-8.271966934,4.903325081,1786.8085106382978,-139.8085106382979,-1297.085106382979,-8288.297872340425,-848.3404255319149,2576.0,9
2024-06-15 14:06:11,0.3298672438,0.381179899,0.8845328689,4.113238335,-9.830592155,5.343858242,2723.1491228070176,-1401.1052631578948,-270.10526315789474,-7875.596491228071,-1151.2456140350878,3444.929824561404,9
2024-06-15 14:06:11,0.3298672438,0.381179899,0.8845328689,4.113238335,-9.830592155,5.343858242,3039.186813186813,-1587.021978021978,22.164835164835164,-7883.373626373626,-546.1318681318681,3513.714285714286,9
2024-06-15 14:06:11,0.5033529401,0.8698720932,1.777617812,1.070208192,-9.569623947,6.39251852,177.5923913043478,715.6467391304348,-2807.076086956521,-7734.804347826087,-531.0434782608695,3859.7010869565215,9
2024-06-15 14:06:12,0.5033529401,0.8698720932,1.777617812,-2.066195965,-7.469909191,6.344634533,859.6576086956521,340.1032608695652,-2686.423913043478,-8002.195652173913,-704.9565217391305,4026.548913043478,9
2024-06-15 14:06:12,0.7660250068,0.8014551997,2.141693592,-2.066195965,-7.469909191,6.344634533,2306.103896103896,920.87012987013,-1374.1688311688313,-7489.792207792208,-1445.935064935065,3653.792207792208,9
2024-06-15 14:06:12,1.203404546,0.4618141353,1.86436069,-4.5370121,-5.130774021,6.337451935,310.0999999999999,786.5,-123.1,-8409.9,-74.6,2809.5,9
2024-06-15 14:06:12,1.203404546,0.4618141353,1.86436069,-4.5370121,-5.130774021,6.337451935,-1571.2727272727273,-27.22727272727272,-60.727272727272734,-8602.954545454546,-253.54545454545453,2977.0,9
2024-06-15 14:06:12,1.098335743,0.4239404798,1.346346974,-5.612008572,-2.537853718,6.143521786,-2428.10843373494,-2383.277108433735,1536.4578313253012,-8047.530120481928,-1154.9638554216867,3431.0481927710844,9
2024-06-15 14:06:12,0.9309586287,0.3726277947,1.011592865,-6.24168396,-0.09337386489,5.861005783,-3617.752941176471,-3246.070588235294,916.6823529411764,-7106.4,-916.2470588235294,3905.5882352941176,9
2024-06-15 14:06:12,0.9309586287,0.3726277947,1.011592865,-6.24168396,-0.09337386489,5.861005783,-2771.2417582417584,-1274.956043956044,91.68131868131869,-7400.032967032967,-1025.8131868131868,4989.538461538462,9
2024-06-15 14:06:12,1.231504321,0.3518583775,0.7452555895,-6.600813866,2.595314741,5.403713226,-1778.4883720930234,-615.0232558139535,-1252.9883720930234,-6252.732558139535,-2144.558139534884,4594.279069767442,9
2024-06-15 14:06:12,1.231504321,0.3518583775,0.7452555895,-6.691793919,3.653551817,4.601655483,1089.1573033707864,3173.224719101124,-890.9887640449438,-6569.213483146067,-2889.5393258426966,4025.6629213483134,9
2024-06-15 14:06:12,0.8356636763,0.2883284092,0.5119050741,-6.691793919,3.653551817,4.601655483,4030.6235294117646,3795.176470588235,597.9058823529411,-7175.305882352941,-2960.6235294117646,3890.2823529411767,9
2024-06-15 14:06:13,0.6243042946,0.1808161139,0.3518583775,-6.593631268,5.137956619,4.043806553,4116.159090909091,1774.0227272727273,1092.6136363636365,-8048.136363636364,-623.2045454545455,3501.159090909091,9
2024-06-15 14:06:13,0.6243042946,0.1808161139,0.3518583775,-6.593631268,5.137956619,4.043806553,388.4285714285714,715.452380952381,1268.071428571429,-8251.047619047618,517.9285714285714,3430.2380952380954,9
2024-06-15 14:06:13,0.5216789246,0.1233947799,0.2504547536,-6.497863293,5.968744755,3.423708439,-1447.5813953488373,434.5813953488372,569.5813953488372,-8300.023255813954,-409.4186046511628,3789.6744186046512,9
2024-06-15 14:06:13,0.2968805134,0.1136209369,0.1343903542,-6.517016888,6.72531271,3.205836058,-1324.1666666666667,-48.16666666666666,1432.5,-7479.833333333333,-832.8333333333333,3514.333333333333,9
2024-06-15 14:06:13,0.2968805134,0.1136209369,0.1343903542,-6.517016888,6.72531271,3.205836058,-672.7720588235294,757.2573529411765,1269.1029411764705,-7836.985294117647,88.21323529411768,3133.683823529412,9
2024-06-15 14:06:13,0.1490511149,0.05742133409,0.05131268129,-6.454767704,6.088454723,2.724601507,-742.7333333333333,768.3925925925926,1170.7259259259258,-7855.57037037037,53.85185185185185,2820.3185185185184,9
2024-06-15 14:06:13,0.1490511149,0.05742133409,0.05131268129,-6.454767704,6.088454723,2.724601507,3504.1728395061727,1551.148148148148,892.9876543209876,-8602.172839506173,-33.876543209876544,2780.0246913580245,9
2024-06-15 14:06:13,0.3115412891,-0.00244346098,0.05986479297,-6.414066315,6.849811077,2.509123325,3578.2528735632186,2537.264367816092,-19.71264367816092,-8179.80459770115,795.9310344827586,1506.0114942528735,9
2024-06-15 14:06:13,0.3029891551,0.03665191308,0.05375614017,-6.16506958,6.770802498,2.094926596,2427.511111111111,1717.7111111111112,-64.02222222222223,-8620.6,1212.6888888888889,1444.5555555555557,9
2024-06-15 14:06:13,0.3029891551,0.03665191308,0.05375614017,-6.16506958,6.770802498,2.094926596,158.06976744186045,-546.4418604651163,-500.8139534883721,-8561.581395348838,1446.8372093023256,1515.2325581395348,9
2024-06-15 14:06:14,0.05131268129,0.07696902007,-0.0232128799,-6.552929878,6.868964672,1.702277422,-887.6,-288.4,-563.0,-8089.4,606.6,1515.0,9
2024-06-15 14:06:14,0.02076941915,0.0171042271,0.05497787148,-6.325480938,6.777985096,1.577778935,-184.7428571428572,156.96,124.00571428571428,-7899.971428571429,102.92571428571428,1517.1257142857144,9
2024-06-15 14:06:14,0.02076941915,0.0171042271,0.05497787148,-6.325480938,6.777985096,1.577778935,203.82857142857145,500.96,-225.1371428571429,-7845.685714285714,41.78285714285714,1435.982857142857,9
2024-06-15 14:06:14,0.05619960278,-0.0109955743,0.03054326214,-6.291962147,7.022193432,1.443703651,533.3614457831325,-196.5542168674699,-430.5301204819277,-8733.493975903615,1112.55421686747,1834.0722891566263,9
2024-06-15 14:06:14,0.05619960278,-0.0109955743,0.03054326214,-6.291962147,7.022193432,1.443703651,-1696.0689655172414,-744.1379310344828,-1028.9310344827586,-8099.172413793103,641.2068965517242,2123.9310344827586,9
2024-06-15 14:06:14,0.2296853364,-0.0109955743,0.01588249579,-6.327875137,7.165845871,1.498770237,-2671.3595505617977,-426.0674157303371,-1231.2921348314608,-7650.876404494382,-419.3932584269663,1476.685393258427,9
2024-06-15 14:06:14,0.05619960278,0.008552113548,-0.007330383174,-6.081272125,6.864176273,1.326387763,-1946.8181818181813,259.3636363636364,-1273.4545454545455,-8328.636363636364,-1056.5454545454545,1525.8181818181818,9
2024-06-15 14:06:14,0.05619960278,0.008552113548,-0.007330383174,-6.081272125,6.864176273,1.326387763,-451.0285714285714,-25.77142857142857,-474.8142857142857,-8770.0,-746.2571428571429,1590.571428571429,9
2024-06-15 14:06:14,-0.01466076635,-0.00244346098,0.01954768784,-6.426037312,7.165845871,1.333570361,-298.1714285714286,-348.62857142857143,-368.38571428571424,-8770.0,-870.5428571428572,1633.428571428571,9
2024-06-15 14:06:14,-0.03176499158,0.01954768784,-0.01832595654,-6.208165169,6.720524311,1.30005157,-34.902702702702705,-703.4648648648649,-437.9243243243244,-8402.291891891891,-706.6486486486486,1760.6108108108108,9
2024-06-15 14:06:15,-0.03176499158,0.01954768784,-0.01832595654,-6.208165169,6.720524311,1.30005157,82.93513513513514,-555.3567567567568,-457.38378378378377,-8255.805405405405,-725.5675675675676,1889.2594594594595,9
2024-06-15 14:06:15,-0.04276056588,-0.006108652335,-0.05375614017,-6.253654957,7.024587631,1.369483352,108.15,-409.3,-286.625,-7937.05,-722.1,1969.3,9
2024-06-15 14:06:15,-0.04276056588,-0.006108652335,-0.05375614017,-6.253654957,7.024587631,1.369483352,-94.12765957446808,-111.93617021276596,298.74468085106383,-7846.914893617021,-734.5106382978723,1973.085106382979,9
2024-06-15 14:06:15,-0.08185594529,-0.02809980139,-0.01466076635,-6.196194172,6.957550049,1.393425345,-322.8510638297872,-47.57446808510639,541.2978723404256,-7877.765957446809,-824.4042553191489,1992.234042553192,9
2024-06-15 14:06:15,-0.3335324228,-0.1148426682,-0.08185594529,-6.435614109,6.943184853,1.833958507,-315.63529411764705,308.2,209.9647058823529,-8189.964705882353,-582.435294117647,2116.247058823529,9
2024-06-15 14:06:15,-0.3335324228,-0.1148426682,-0.08185594529,-6.435614109,6.943184853,1.833958507,-354.8426966292135,-40.12359550561798,-143.87640449438203,-8159.876404494382,-594.7528089887641,2113.6067415730336,9
2024-06-15 14:06:15,-0.4630358517,-0.08674286306,-0.1075122803,-6.402095318,6.610390663,2.171540976,-325.8089887640449,60.71910112359551,-307.76404494382024,-8110.528089887641,-549.0337078651685,2083.6067415730336,9
2024-06-15 14:06:15,-0.6548475623,-0.1197295859,-0.1429424733,-6.172252178,5.887341976,2.956839085,-258.6927374301676,43.22346368715084,-267.46927374301674,-8122.335195530726,-392.3966480446927,2065.1731843575417,9
2024-06-15 14:06:15,-0.6548475623,-0.1197295859,-0.1429424733,-6.172252178,5.887341976,2.956839085,-169.8659217877095,-46.72067039106145,-168.58659217877096,-8137.418994413408,-405.245810055866,2067.966480446928,9
2024-06-15 14:06:15,-1.055575132,-0.1649336219,-0.2394591719,-6.447585106,5.284003258,3.964797974,-236.2934782608696,-75.8913043478261,-136.1086956521739,-8164.913043478261,-438.07608695652175,2067.6304347826085,9
2024-06-15 14:06:16,-1.127657294,-0.006108652335,-0.3738495409,-6.332663536,4.043806553,5.073313236,78.21176470588236,24.094117647058823,-343.9764705882353,-8133.129411764706,-867.8352941176471,2118.9058823529413,9
2024-06-15 14:06:16,-1.127657294,-0.006108652335,-0.3738495409,-6.332663536,4.043806553,5.073313236,108.0,28.0,-304.15384615384613,-8121.846153846154,-878.0,2131.6153846153848,9
2024-06-15 14:06:16,-1.287703991,0.01954768784,-0.5693264008,-6.624756336,2.679111719,5.068524837,-44.86666666666667,-95.53333333333332,-181.3333333333333,-8092.2,-663.9333333333333,2147.1,9
2024-06-15 14:06:16,-1.287703991,0.01954768784,-0.5693264008,-6.624756336,2.679111719,5.068524837,332.8181818181818,93.3181818181818,-258.8181818181818,-8127.772727272727,-866.0909090909091,2137.090909090909,9
2024-06-15 14:06:16,-1.623679876,-0.1881465018,-1.050688267,-5.94959116,0.07661445439,3.955221176,-108.5,53.75,103.75,-8301.75,-790.5,1970.5,9
2024-06-15 14:06:16,-0.9224064946,-0.4508185387,-1.456302762,-6.933608055,-2.932897091,6.902483463,-532.9090909090909,99.0909090909091,97.45454545454544,-8291.272727272728,-710.0909090909091,1990.3636363636365,9
2024-06-15 14:06:16,-0.9224064946,-0.4508185387,-1.456302762,-6.933608055,-2.932897091,6.902483463,-792.056179775281,343.53932584269666,-103.0561797752809,-8299.011235955057,-710.8539325842696,2054.0337078651687,9
2024-06-15 14:06:16,-1.334129691,-0.6658431292,-1.312138557,-6.141127586,-6.742072105,6.033388138,-390.6292134831461,-182.7078651685393,308.70786516853934,-8295.966292134832,-757.0898876404494,2055.4044943820227,9
2024-06-15 14:06:16,-1.334129691,-0.6658431292,-1.312138557,-4.101267338,-6.452373505,6.536170483,59.98850574712644,-371.6896551724138,19.310344827586206,-8115.057471264367,-812.6551724137931,2134.5632183908046,9
2024-06-15 14:06:16,-0.822224617,-0.5448917747,-1.116661668,-4.101267338,-6.452373505,6.536170483,331.09090909090907,59.09090909090909,-494.9090909090909,-8120.636363636364,-874.3636363636364,1955.4545454545453,9
2024-06-15 14:06:17,-0.1404990107,-0.3750712574,-1.14231801,-2.276885748,-7.754819393,5.420472622,317.3793103448276,91.51724137931036,-492.1379310344828,-8244.758620689656,-897.7586206896551,2320.793103448276,9
2024-06-15 14:06:17,-0.1404990107,-0.3750712574,-1.14231801,-2.276885748,-7.754819393,5.420472622,222.3333333333333,815.0,-456.6666666666667,-7999.333333333333,-707.3333333333334,2143.0,9
2024-06-15 14:06:17,-0.2932153046,-0.3066543639,-1.106887817,-0.5315127969,-8.561665535,5.42765522,-791.9662921348315,218.3033707865169,-242.123595505618,-8358.47191011236,-1114.9101123595506,1522.123595505618,9
2024-06-15 14:06:17,0.06719517708,-0.2443460971,-1.003040791,1.515529633,-8.870517731,4.967968464,-656.9779411764706,-331.09558823529414,293.3897058823529,-8414.39705882353,-1357.3088235294117,1779.1838235294117,9
2024-06-15 14:06:17,0.06719517708,-0.2443460971,-1.003040791,1.515529633,-8.870517731,4.967968464,-200.36029411764707,-209.77205882352945,-39.698529411764696,-8133.514705882353,-1249.9558823529412,1684.3308823529412,9
2024-06-15 14:06:17,-0.1246165112,0.01588249579,-0.5925393105,2.521094322,-9.706093788,4.886565685,643.9195402298851,36.03448275862068,-205.19540229885047,-8151.64367816092,-1081.2413793103449,1727.9655172413793,9
2024-06-15 14:06:17,-0.00122173049,-0.0232128799,-0.3591887653,2.949656487,-8.346187592,4.632780075,433.2,-147.2,-218.2,-8102.8,-1050.0,1765.6,9
2024-06-15 14:06:17,-0.00122173049,-0.0232128799,-0.3591887653,2.949656487,-8.346187592,4.632780075,44.33333333333334,53.33333333333333,-36.33333333333334,-8083.666666666667,-721.3333333333334,1960.0,9
2024-06-15 14:06:17,-0.08429940045,0.02443460934,-0.3457497358,3.414131641,-8.614337921,4.49870491,-140.41860465116278,-52.05813953488371,-89.1046511627907,-8078.372093023256,-991.9186046511628,1766.3488372093022,9
2024-06-15 14:06:17,-0.08429940045,0.02443460934,-0.3457497358,3.414131641,-8.614337921,4.49870491,-597.8068181818181,-47.95454545454545,-261.5,-8089.090909090909,-1142.9318181818182,1784.2045454545455,9
2024-06-15 14:06:18,-0.008552113548,0.01343903504,-0.1954768747,3.584120035,-8.434772491,4.548983097,-469.2584269662921,99.01123595505618,-54.07865168539326,-8169.5842696629215,-906.2022471910112,1791.0674157303372,9
2024-06-15 14:06:18,-0.1246165112,0.08918632567,0.1075122803,4.429273129,-10.18014526,4.936843872,-250.0483870967742,1.3225806451612918,106.1236559139785,-8297.0,-987.8763440860216,1760.510752688172,9
2024-06-15 14:06:18,-0.1246165112,0.08918632567,0.1075122803,4.429273129,-10.18014526,4.936843872,-232.30645161290323,149.70967741935485,116.33870967741936,-8197.0,-1077.6612903225807,1728.7903225806451,9
2024-06-15 14:06:18,0.3445279896,0.007330383174,-0.1160643995,3.450044632,-7.781155586,4.659116745,-439.9117647058824,25.33529411764706,-35.09411764705882,-8110.805882352941,-981.6529411764706,1716.2411764705882,9
2024-06-15 14:06:18,0.2577851415,-0.1905899495,-0.1392772794,4.218583584,-7.936778545,5.061342239,-416.4565217391304,64.56521739130434,70.11956521739131,-8080.934782608696,-997.8478260869564,1699.891304347826,9
2024-06-15 14:06:18,0.2577851415,-0.1905899495,-0.1392772794,4.218583584,-7.936778545,5.061342239,169.16666666666669,327.0833333333333,-297.0833333333333,-8085.75,-981.5833333333334,1896.8333333333333,9
2024-06-15 14:06:18,-0.02687807009,-0.01832595654,-0.05864306539,4.311957359,-7.65426302,5.154716492,221.59712230215828,328.5539568345324,-252.18705035971223,-8188.8345323741,-978.0143884892086,1721.6546762589928,9
2024-06-15 14:06:18,-0.02687807009,-0.01832595654,-0.05864306539,4.311957359,-7.65426302,5.154716492,71.19148936170214,309.2978723404256,-225.8936170212766,-8243.170212765957,-988.0212765957448,1468.1914893617022,9
2024-06-15 14:06:18,0.7672467232,-0.08063421398,-0.2602286041,5.339069843,-7.639897823,6.141127586,566.5675675675676,-225.67567567567568,71.63513513513513,-8130.743243243243,-1179.837837837838,1902.162162162162,9
2024-06-15 14:06:18,0.4948008358,0.4068362415,-1.069014192,4.024652958,-6.447585106,6.090848923,315.75539568345323,185.12230215827336,-18.41726618705036,-8146.230215827338,-1138.273381294964,1487.3237410071945,9
2024-06-15 14:06:19,0.4948008358,0.4068362415,-1.069014192,4.024652958,-6.447585106,6.090848923,40.935251798561126,322.53237410071944,201.0071942446043,-8387.237410071943,-980.7194244604316,1498.1151079136691,9
2024-06-15 14:06:19,1.186300278,-0.2797762752,-1.522276163,4.953603268,-3.921702385,6.68700552,200.18604651162792,84.97674418604652,302.74418604651163,-8090.162790697675,-718.4883720930233,1819.6279069767445,9
2024-06-15 14:06:19,1.633453608,-0.4520402849,-0.5180137157,7.491456985,-2.63841033,7.594407558,-99.95555555555556,-62.2,286.77777777777777,-8154.466666666666,-818.6888888888889,1796.4888888888888,9
2024-06-15 14:06:19,1.633453608,-0.4520402849,-0.5180137157,7.491456985,-2.63841033,7.594407558,-561.5747126436781,70.91954022988506,-65.71264367816092,-8142.540229885058,-705.551724137931,1516.3793103448277,9
2024-06-15 14:06:19,0.7367035151,-0.2492330223,0.0354301855,7.28316164,-0.6081272364,6.445190907,-363.2093023255814,-124.18604651162792,-108.98837209302326,-8173.453488372093,-675.5,1480.546511627907,9
2024-06-15 14:06:19,0.7367035151,-0.2492330223,0.0354301855,7.28316164,-0.6081272364,6.445190907,-156.4516129032258,-79.12903225806451,309.85483870967744,-8483.90322580645,-824.7258064516129,1450.1612903225807,9
2024-06-15 14:06:19,0.6988298297,-0.290771842,-0.06108652428,8.070854187,1.314416766,6.02381134,-168.27956989247312,-258.6989247311828,328.6720430107527,-8474.225806451614,-830.6397849462365,1466.2903225806451,9
2024-06-15 14:06:19,-0.5888741016,0.05009094998,0.2761110961,8.896853447,-0.1795651317,7.117961884,-330.15,-311.7,-332.9,-8158.825,-679.425,1704.775,9
2024-06-15 14:06:19,-0.5888741016,0.05009094998,0.2761110961,8.896853447,-0.1795651317,7.117961884,85.70212765957447,-363.531914893617,-303.25531914893617,-8133.255319148936,-706.8936170212766,1782.9468085106382,9
2024-06-15 14:06:19,-4.009719372,1.582141042,1.787391663,7.407660007,-7.376535416,8.640673637,-309.2771084337349,-254.9036144578313,52.12048192771084,-8116.722891566265,-703.6144578313254,2062.0843373493976,9
2024-06-15 14:06:20,-1.649336219,0.6267477274,2.550973177,0.7996633649,-7.730877399,5.363011837,-272.7613636363636,58.85227272727273,-52.21590909090909,-8091.511363636364,-650.0454545454545,1993.897727272728,9
2024-06-15 14:06:20,-1.649336219,0.6267477274,2.550973177,0.7996633649,-7.730877399,5.363011837,-171.14606741573033,-70.87640449438203,-38.65168539325842,-8082.157303370786,-660.3483146067416,1888.6741573033707,9
2024-06-15 14:06:20,-0.01466076635,-0.3103195429,0.9847147465,0.6105214357,-6.68461132,3.569754839,-306.76296296296294,284.7037037037037,-217.43703703703704,-8089.148148148148,-678.4148148148148,1708.2962962962963,9
2024-06-15 14:06:20,-0.01466076635,-0.3103195429,0.9847147465,0.6105214357,-6.68461132,3.569754839,-195.0487804878049,330.3170731707317,-303.1707317073171,-8118.756097560976,-751.5121951219512,1694.0,9
2024-06-15 14:06:20,0.4764748812,-0.2028072625,-0.1893682331,1.644816518,-8.348581314,5.576095581,209.66666666666669,-65.0,-319.0,-8108.333333333333,-989.0,1839.0,9
2024-06-15 14:06:20,0.03298672289,-0.2528982162,-0.5143485069,1.405396342,-6.79953289,5.588066578,538.6,-37.0,-168.6,-8135.6,-1222.4,1517.4,9
2024-06-15 14:06:20,0.03298672289,-0.2528982162,-0.5143485069,1.405396342,-6.79953289,5.588066578,584.4186046511628,358.4418604651163,89.3488372093023,-8518.67441860465,-1045.093023255814,1586.4418604651162,9
2024-06-15 14:06:20,0.2296853364,0.04276056588,-0.4483750761,1.252167463,-8.626308441,6.052541733,482.7865168539326,49.25842696629213,293.5056179775281,-8513.47191011236,-856.1685393258427,1393.0337078651685,9
2024-06-15 14:06:20,-0.1014036313,0.2614503205,-0.2528982162,1.934514999,-8.638279915,6.35421133,-541.0,-548.0,326.375,-8356.5,-1095.5,1232.5,9
2024-06-15 14:06:20,-0.1014036313,0.2614503205,-0.2528982162,1.934514999,-8.638279915,6.35421133,-456.6666666666667,-1036.3793103448277,159.49425287356323,-8387.137931034482,-1211.4597701149426,1442.367816091954,9
2024-06-15 14:06:21,0.4935791194,0.2944370508,-0.4092797041,1.685518026,-7.630321026,7.443572998,-344.6363636363636,-986.7272727272727,523.1818181818182,-8236.272727272728,-1034.2727272727273,1694.909090909091,9
2024-06-15 14:06:21,0.4935791194,0.2944370508,-0.4092797041,1.685518026,-7.630321026,7.443572998,-450.6741573033708,-891.943820224719,734.6629213483146,-8411.685393258427,-557.2471910112359,2181.730337078652,9
2024-06-15 14:06:21,1.549154282,0.2663372457,-0.2981022298,1.946485996,-7.560888767,8.511386871,-349.7840909090909,-759.0454545454545,882.0113636363636,-8265.125,-288.4886363636364,2666.284090909091,9
2024-06-15 14:06:21,2.30784893,-0.196698606,-0.2431243658,1.721431017,-4.879383087,5.954379559,-172.88372093023256,-837.7790697674418,813.5930232558139,-7905.686046511628,-3.1744186046511658,2770.232558139535,9
2024-06-15 14:06:21,2.30784893,-0.196698606,-0.2431243658,1.721431017,-4.879383087,5.954379559,-551.3538461538461,-733.9307692307692,488.6692307692308,-8053.576923076923,-20.192307692307693,3069.9538461538464,9
2024-06-15 14:06:21,2.554638386,0.07696902007,-0.08185594529,1.862688899,-0.605733037,8.489839554,-602.0416666666666,-1015.5,337.4375,-7965.458333333333,272.1458333333333,3318.395833333333,9
2024-06-15 14:06:21,2.554638386,0.07696902007,-0.08185594529,2.772485495,1.604115129,9.730035782,-476.1149425287357,-660.0689655172414,-45.05747126436782,-7688.666666666667,322.5632183908046,3482.172413793104,9
2024-06-15 14:06:21,0.1600466967,-0.5681046844,0.3005456924,2.772485495,1.604115129,9.730035782,-483.3333333333333,-831.1666666666666,64.33333333333333,-7971.666666666667,302.5,3527.5,9
2024-06-15 14:06:21,-0.03909537569,-0.1685988009,-0.006108652335,4.010287762,-1.462857246,11.11627865,-721.5512820512821,-719.8333333333334,-280.65384615384613,-7973.358974358975,50.15384615384615,3617.858974358974,9
2024-06-15 14:06:21,-0.03909537569,-0.1685988009,-0.006108652335,4.010287762,-1.462857246,11.11627865,-500.5287356321839,-948.2068965517242,-850.8965517241379,-7672.574712643678,-179.82758620689657,3928.551724137931,9
2024-06-15 14:06:22,0.5558874011,-0.235793978,-0.09529497474,2.997540474,-0.356736064,9.423578262,-666.1428571428571,-922.9761904761904,-1166.095238095238,-7560.880952380952,-726.4285714285714,3993.619047619048,9
2024-06-15 14:06:22,0.9883799553,-0.1893682331,0.283441484,3.876212597,1.244984865,8.595184326,-351.81927710843377,-761.9096385542168,-1197.4036144578313,-7359.066265060241,-1076.2469879518071,4158.253012048192,9
2024-06-15 14:06:22,0.9883799553,-0.1893682331,0.283441484,3.876212597,1.244984865,8.595184326,-202.421686746988,-537.210843373494,-994.3915662650602,-7370.512048192771,-1037.0903614457832,4347.409638554217,9
2024-06-15 14:06:22,-0.2211332172,-0.1404990107,-0.008552113548,4.915296078,0.7134721279,8.686163902,-578.2134831460673,-478.0449438202247,-1931.3483146067413,-7324.426966292135,-997.6629213483146,4645.842696629214,9
2024-06-15 14:06:22,-0.2419026345,0.8442157507,-0.5937610269,1.711854219,-2.346317768,7.927201748,-1519.9333333333334,-1013.7333333333332,-2406.5333333333333,-7177.733333333334,-1761.8666666666668,4644.266666666666,9
2024-06-15 14:06:22,-0.2419026345,0.8442157507,-0.5937610269,1.711854219,-2.346317768,7.927201748,-2305.9148936170213,-1520.648936170213,-2781.2659574468084,-6937.946808510638,-2854.148936170213,4325.54255319149,9
2024-06-15 14:06:22,-0.6572909951,0.01588249579,0.2724458873,4.060565948,0.07422025502,11.6765213,-1706.906976744186,-1276.0,-2234.767441860465,-6667.581395348837,-3402.558139534884,4689.813953488372,9
2024-06-15 14:06:22,-0.6572909951,0.01588249579,0.2724458873,4.060565948,0.07422025502,11.6765213,-1363.571428571429,-962.087912087912,-2063.747252747253,-6081.395604395604,-4220.065934065934,4689.923076923077,9
2024-06-15 14:06:22,-0.141720742,-0.287106663,0.0293215327,3.655946016,-0.8116343617,9.320627213,-581.7931034482758,-476.5517241379311,-1963.7586206896551,-5610.344827586207,-4302.137931034483,4663.96551724138,9
2024-06-15 14:06:22,1.813048005,0.4007275999,-0.5155702829,1.881842494,1.980004787,6.258443356,-862.5,-231.9318181818182,-2185.340909090909,-5561.227272727273,-4333.204545454545,4782.704545454545,9
2024-06-15 14:06:23,1.813048005,0.4007275999,-0.5155702829,1.881842494,1.980004787,6.258443356,-931.2840909090908,-569.2386363636364,-2062.2613636363635,-5428.363636363636,-5065.693181818182,4581.522727272727,9
2024-06-15 14:06:23,0.9505063295,1.023810148,-0.4202753007,3.162740469,2.736572504,11.62145519,-569.0697674418604,-507.1046511627907,-3171.1627906976746,-5035.976744186047,-5573.697674418605,4493.930232558139,9
2024-06-15 14:06:23,-0.5375614166,-0.8491026759,0.7648032904,0.8978256583,-3.34230566,4.259284973,-613.3370786516854,-861.7528089887641,-3847.3595505617977,-4428.314606741573,-5902.651685393258,4896.797752808989,9
2024-06-15 14:06:23,-0.5375614166,-0.8491026759,0.7648032904,0.8978256583,-3.34230566,4.259284973,-1008.7954545454544,-1319.2954545454545,-3719.295454545456,-3746.386363636364,-6247.840909090909,4559.159090909091,9
2024-06-15 14:06:23,2.682920218,-0.9272934198,-1.229060888,-1.570596337,6.50744009,9.595960617,-1181.9205298013244,-1384.4370860927152,-3162.112582781457,-3268.5099337748343,-6358.337748344371,4641.423841059603,9
2024-06-15 14:06:23,2.682920218,-0.9272934198,-1.229060888,-1.570596337,6.50744009,9.595960617,-1077.0,-785.7857142857143,-2051.178571428572,-2221.0714285714284,-6893.607142857143,4460.892857142857,9
2024-06-15 14:06:23,-1.189965487,0.762359798,0.4850270152,2.219424963,2.260126352,10.79306126,-723.3626373626373,-567.0769230769231,-1481.2747252747254,-2027.956043956044,-7200.065934065934,4274.219780219781,9
2024-06-15 14:06:23,2.318844557,-0.829554975,-0.326202035,4.089296341,4.024652958,11.15458584,-711.0,-449.3333333333333,-1399.6666666666667,-1483.3333333333333,-7314.0,4169.0,9
2024-06-15 14:06:23,2.318844557,-0.829554975,-0.326202035,4.089296341,4.024652958,11.15458584,-293.6966292134832,-416.5393258426966,-1174.8539325842696,-1405.258426966292,-7312.303370786517,3945.8426966292136,9
2024-06-15 14:06:23,0.7367035151,-0.1722639948,-0.8527678847,5.075707436,7.596801758,9.208099365,-341.5882352941176,202.7058823529412,-1042.5882352941176,-1365.529411764706,-7315.058823529412,3778.529411764706,9
2024-06-15 14:06:24,1.170417786,-0.7379252315,0.4813618064,3.617638826,1.460463047,7.505822182,-36.20652173913044,221.58695652173915,-951.7173913043478,-1309.4239130434785,-7329.891304347826,3803.608695652174,9
2024-06-15 14:06:24,1.170417786,-0.7379252315,0.4813618064,3.617638826,1.460463047,7.505822182,-228.2941176470588,47.05882352941177,-820.6470588235294,-906.529411764706,-7353.176470588235,3803.470588235294,9
2024-06-15 14:06:24,-0.1539380401,-0.1160643995,-0.1576032341,4.747702122,6.691793919,8.075642586,74.26666666666667,-104.8,-797.0,-1084.0,-7328.666666666667,3799.266666666667,9
2024-06-15 14:06:24,-0.1539380401,-0.1160643995,-0.1576032341,3.926490784,4.079719543,7.678205013,-258.18390804597703,-305.2413793103448,-534.5632183908046,-720.3793103448276,-7373.137931034483,3775.862068965517,9
2024-06-15 14:06:24,-1.183856845,0.01954768784,0.003665191587,3.926490784,4.079719543,7.678205013,-229.42857142857144,-333.57142857142856,-198.1428571428572,-657.7142857142857,-7389.714285714285,3785.571428571429,9
2024-06-15 14:06:24,-0.8552113175,0.17715092,-0.3225368559,3.849876404,1.944091797,9.050082207,-284.4963503649635,-240.2262773722628,-259.6861313868613,-746.1386861313869,-7369.138686131387,3775.78102189781,9
2024-06-15 14:06:24,-0.8552113175,0.17715092,-0.3225368559,3.849876404,1.944091797,9.050082207,-287.4160583941606,40.79562043795619,-510.7810218978102,-535.1897810218978,-7358.189781021898,3750.963503649635,9
2024-06-15 14:06:24,-0.9395107627,0.1979203373,-0.7489207983,3.155557871,1.520318031,8.908824921,-306.34090909090907,-135.22727272727272,-238.72727272727275,-457.25,-7536.659090909091,3757.272727272728,9
2024-06-15 14:06:24,1.605353832,-0.248011291,0.7330383062,4.137180328,3.201047659,9.042900085,51.09090909090909,-102.8181818181818,-164.3181818181818,-434.7272727272728,-7538.590909090909,3744.9545454545455,9
2024-06-15 14:06:24,1.605353832,-0.248011291,0.7330383062,4.137180328,3.201047659,9.042900085,-188.5977011494253,-154.11494252873564,-279.0344827586207,-572.2068965517242,-7375.793103448276,3761.793103448276,9
2024-06-15 14:06:25,1.606575608,-0.5962044597,0.1918116808,3.924096584,1.259350061,7.568071365,-333.45454545454544,-273.1818181818182,19.27272727272728,-571.3636363636364,-7745.454545454545,3736.4545454545455,9
2024-06-15 14:06:25,1.606575608,-0.5962044597,0.1918116808,3.924096584,1.259350061,7.568071365,20.929411764705883,-283.18823529411765,65.11764705882354,-631.7647058823529,-7396.388235294117,3741.9764705882353,9
2024-06-15 14:06:25,-0.3481931984,-0.03298672289,-0.08674286306,5.597643375,6.404489517,6.301538944,28.0,-294.0,77.83333333333333,-584.3333333333334,-7413.666666666667,3748.0,9
2024-06-15 14:06:25,0.1942551434,0.02809980139,0.1392772794,3.919308186,4.697423935,7.539340973,32.82608695652174,-289.17391304347825,57.72463768115942,-581.1159420289855,-7407.231884057971,3733.521739130435,9
2024-06-15 14:06:25,0.1942551434,0.02809980139,0.1392772794,3.919308186,4.697423935,7.539340973,52.581395348837205,29.186046511627907,97.55813953488372,-327.4767441860465,-7695.081395348837,3736.3953488372094,9
2024-06-15 14:06:25,-0.05986479297,-0.004886921961,-0.0293215327,5.995080948,4.412513733,6.777985096,33.40909090909091,-37.56818181818181,288.79545454545456,-236.9318181818182,-7408.238636363636,3758.0,9
2024-06-15 14:06:25,-0.2919935882,0.05619960278,-0.01588249579,4.362235546,3.16034627,7.673416615,-58.06896551724138,481.9655172413793,771.4827586206897,-404.82758620689657,-7379.275862068966,3761.655172413793,9
2024-06-15 14:06:25,-0.2919935882,0.05619960278,-0.01588249579,4.362235546,3.16034627,7.673416615,-247.53932584269663,671.1123595505618,1329.1573033707864,-918.7191011235956,-7356.61797752809,3917.1011235955057,9
2024-06-15 14:06:25,-0.1502728462,-0.06597344577,-0.05131268129,4.436455727,3.208230257,8.066065788,-28.227272727272727,1094.7272727272727,2542.8636363636365,-1294.2727272727273,-7489.136363636364,3795.681818181818,9
2024-06-15 14:06:26,-0.5106833577,0.05864306539,-0.3066543639,4.060565948,3.438073635,7.608773232,235.75,1522.0454545454545,3821.4545454545455,-2272.7954545454545,-7132.227272727273,3787.727272727273,9
2024-06-15 14:06:26,-0.5106833577,0.05864306539,-0.3066543639,4.060565948,3.438073635,7.608773232,754.6521739130435,1783.3478260869565,4511.347826086956,-2924.782608695652,-6906.391304347826,3770.0,9
2024-06-15 14:06:26,-0.7599163651,-0.03665191308,0.004886921961,4.910507679,2.291250944,9.686940193,371.4418604651163,1380.1627906976744,5628.883720930233,-4120.395348837209,-6683.906976744186,3909.5116279069766,9
2024-06-15 14:06:26,-0.7599163651,-0.03665191308,0.004886921961,4.910507679,2.291250944,9.686940193,483.2134831460674,945.438202247191,5556.561797752809,-5210.662921348315,-6002.550561797752,3500.674157303371,9
2024-06-15 14:06:26,1.0726794,0.3726277947,-0.1380555481,3.517082214,1.625662923,7.61595583,681.1647058823529,1020.4823529411764,4775.094117647059,-5608.235294117647,-5435.364705882353,3492.3529411764707,9
2024-06-15 14:06:26,0.8063421249,-0.03665191308,0.1270599663,3.818751812,4.050989151,8.243236542,712.0,898.6666666666666,2766.0,-6471.633333333333,-4338.833333333333,3457.9666666666667,9
2024-06-15 14:06:26,0.8063421249,-0.03665191308,0.1270599663,3.818751812,4.050989151,8.243236542,887.7571428571429,986.5357142857144,2162.671428571429,-6568.128571428571,-4168.464285714285,3710.3785714285714,9
2024-06-15 14:06:26,-2.280970812,0.4190535545,0.1881465018,4.975151062,2.53067112,7.841010571,726.0487804878048,765.219512195122,1222.8048780487804,-6938.170731707317,-3820.0,3671.4146341463415,9
2024-06-15 14:06:26,-2.280970812,0.4190535545,0.1881465018,4.975151062,2.53067112,7.841010571,947.934065934066,1096.3296703296703,838.4835164835165,-6800.472527472528,-3480.054945054945,3621.6703296703295,9
2024-06-15 14:06:26,-3.408627987,0.4251621962,-0.2247984111,3.653551817,-0.9600749016,5.87297678,939.8785714285714,765.4571428571429,612.0642857142857,-7202.4857142857145,-3213.25,3589.6642857142856,9
2024-06-15 14:06:26,-0.3469714522,-3.448945284,-2.643824816,6.114790916,-3.701435804,4.666299343,680.2230215827338,699.6690647482014,540.8848920863309,-7120.985611510791,-2972.071942446043,3262.928057553957,9
2024-06-15 14:06:27,-0.3469714522,-3.448945284,-2.643824816,6.114790916,-3.701435804,4.666299343,412.8255813953488,507.4651162790698,874.4418604651163,-7478.825581395349,-3077.8837209302324,3410.8372093023254,9
2024-06-15 14:06:27,1.643227458,-3.959628582,-2.343279123,13.79060173,-2.434903145,4.996698856,192.6086956521739,424.60869565217394,364.5869565217391,-7352.478260869565,-2916.6521739130435,3340.6304347826085,9
2024-06-15 14:06:27,-1.255938888,0.1246165112,0.5949827433,9.83777523,0.5961562395,3.895366192,313.94117647058823,313.4117647058824,338.0,-7487.176470588235,-2551.470588235294,2978.4117647058824,9
2024-06-15 14:06:27,-1.255938888,0.1246165112,0.5949827433,9.83777523,0.5961562395,3.895366192,-27.80232558139535,-105.80232558139537,161.40697674418604,-7480.6511627906975,-2511.4651162790697,3107.9767441860467,9
2024-06-15 14:06:27,-0.4703662395,1.176526427,1.042136073,8.506598473,-1.862688899,1.759738207,313.8953488372093,319.95348837209303,-297.43023255813955,-7391.279069767442,-2676.1976744186045,3164.267441860465,9
2024-06-15 14:06:27,-0.4703662395,1.176526427,1.042136073,8.506598473,-1.862688899,1.759738207,215.85393258426967,99.20224719101122,-548.1348314606741,-7340.831460674157,-2724.303370786517,3184.561797752809,9
2024-06-15 14:06:27,0.4263839424,-0.1282816976,0.471587956,11.21444035,-2.054224968,0.05027823523,677.2747252747253,199.34065934065933,-265.3626373626374,-7476.703296703296,-2927.3846153846152,3135.197802197802,9
2024-06-15 14:06:27,2.256536245,0.3848451078,2.13925004,12.06198788,-1.8602947,2.054224968,1051.7209302325582,475.4651162790698,169.58139534883722,-7648.953488372093,-2892.046511627907,3085.9767441860463,9
2024-06-15 14:06:27,2.256536245,0.3848451078,2.13925004,12.06198788,-1.8602947,2.054224968,849.3033707865169,492.7977528089888,49.3932584269663,-8190.955056179775,-2871.932584269663,2729.067415730337,9
2024-06-15 14:06:27,-1.163087368,1.080009699,1.318247199,5.561730385,-2.992752075,3.576937437,197.9186046511628,39.65116279069768,-542.0116279069767,-7414.906976744186,-2868.6976744186045,3122.4767441860463,9
2024-06-15 14:06:28,0.1038470939,0.5204572082,0.338419348,13.06515884,-7.331045628,6.148310184,141.48,521.288,48.264,-7360.624,-2640.352,3073.144,9
2024-06-15 14:06:28,0.1038470939,0.5204572082,0.338419348,13.06515884,-7.331045628,6.148310184,157.48,530.888,57.064,-7381.424,-2618.752,3077.944,9
2024-06-15 14:06:28,-0.7941248417,4.200309277,3.352428436,5.248090267,-12.19606304,6.313509941,192.02325581395348,346.1162790697674,66.43023255813954,-7578.023255813953,-2464.220930232558,2757.6744186046512,9
2024-06-15 14:06:28,0.5216789246,2.343279123,5.601634502,-4.197035789,-9.437943459,0.5722141862,-394.6818181818182,569.3068181818181,81.72727272727272,-7594.715909090909,-2410.409090909091,2861.568181818182,9
2024-06-15 14:06:28,0.5216789246,2.343279123,5.601634502,-4.197035789,-9.437943459,0.5722141862,-792.0993377483444,219.79470198675497,52.13907284768212,-7634.735099337749,-2646.2384105960264,2534.2847682119204,9
2024-06-15 14:06:28,0.5424483418,-0.5326744914,3.230255365,-4.031835556,1.613691926,1.098938584,-458.6785714285714,87.10714285714286,348.75,-7583.464285714285,-2443.035714285714,2503.1071428571427,9
2024-06-15 14:06:28,0.5424483418,-0.5326744914,3.230255365,-4.031835556,1.613691926,1.098938584,-398.2840909090909,-116.9318181818182,-55.38636363636363,-7643.5,-2680.1704545454545,2518.9772727272725,9
2024-06-15 14:06:28,0.2504547536,-0.05497787148,0.5338962078,-7.58722496,3.220201254,5.54018259,-313.9438202247191,118.26966292134831,-23.202247191011235,-7592.808988764045,-2664.7078651685392,2507.7191011235955,9
2024-06-15 14:06:28,0.2504547536,-0.05497787148,0.5338962078,-8.070854187,0.9457096457,4.168305397,-276.3695652173913,-11.380434782608695,-109.1195652173913,-7609.782608695652,-2288.032608695652,2464.608695652174,9
2024-06-15 14:06:28,-0.1930334121,-0.009773843922,0.4935791194,-8.070854187,0.9457096457,4.168305397,-281.50602409638554,311.7951807228916,-72.07228915662651,-7692.385542168675,-2567.0602409638554,2681.277108433735,9
2024-06-15 14:06:29,0.2553416789,-0.01343903504,-0.0109955743,-8.588001251,1.18991828,3.505111217,68.01136363636364,-32.20454545454545,42.51136363636364,-7947.136363636364,-2575.568181818182,2661.6136363636365,9
2024-06-15 14:06:29,0.2553416789,-0.01343903504,-0.0109955743,-8.588001251,1.18991828,3.505111217,42.62352941176471,-67.68235294117648,-285.1411764705882,-7675.658823529412,-2293.705882352941,2639.0470588235294,9
2024-06-15 14:06:29,-0.3152064681,0.5143485069,-0.145385921,-8.109161377,2.700659513,6.572083473,-95.96629213483146,-83.04494382022472,-344.53932584269666,-7675.516853932584,-2436.494382022472,2644.8314606741574,9
2024-06-15 14:06:29,1.615127683,0.5766568184,-1.036027431,-4.900930882,2.956839085,2.770091295,-60.31818181818182,116.9090909090909,-143.22727272727272,-7648.363636363636,-2611.2272727272725,2676.5454545454545,9
2024-06-15 14:06:29,1.615127683,0.5766568184,-1.036027431,-4.900930882,2.956839085,2.770091295,-88.15384615384616,-38.46153846153845,-312.6923076923077,-7622.7692307692305,-2598.0,2437.846153846154,9
2024-06-15 14:06:29,-2.55952549,-1.892460585,-4.861265659,-5.140350819,-3.227383852,1.944091797,12.022471910112358,-118.47191011235957,-313.1348314606741,-7628.898876404494,-2603.6629213483147,2440.0,9
2024-06-15 14:06:29,0.6377432942,-2.463008642,-2.626720667,-0.8092401624,-10.67574501,9.983820915,-371.82608695652175,96.06521739130434,-368.3478260869565,-7640.326086956522,-2675.6304347826085,2642.086956521739,9
2024-06-15 14:06:29,0.6377432942,-2.463008642,-2.626720667,-0.8092401624,-10.67574501,9.983820915,-361.4832214765101,84.33557046979865,-229.0335570469799,-7867.114093959732,-2655.442953020134,2661.1677852348994,9
2024-06-15 14:06:29,1.185078621,-0.8478809595,0.4080579877,0.2370259613,-4.742913723,8.683769226,-198.13333333333333,-152.8,-798.3111111111111,-7583.644444444444,-2555.6222222222223,2657.866666666667,9
2024-06-15 14:06:29,0.1576032341,-0.1392772794,-0.05742133409,1.470039845,-2.073378563,9.986215591,-192.3793103448276,-309.41379310344826,-479.7586206896552,-7330.758620689655,-3110.862068965517,2515.0344827586205,9
2024-06-15 14:06:30,0.1576032341,-0.1392772794,-0.05742133409,1.470039845,-2.073378563,9.986215591,-286.9594594594595,69.75675675675676,-212.2567567567568,-7461.013513513513,-3113.4189189189187,2503.7297297297296,9
2024-06-15 14:06:30,0.1490511149,-0.07696902007,0.05253441259,0.7733271718,-1.742978811,9.136273384,-271.4189189189189,-73.48648648648648,-344.01351351351354,-7649.527027027027,-3107.337837837838,2483.45945945946,9
2024-06-15 14:06:30,0.1490511149,-0.07696902007,0.05253441259,0.7733271718,-1.742978811,9.136273384,-369.6666666666667,34.0,-283.66666666666663,-7697.666666666667,-3170.6666666666665,2472.333333333333,9
2024-06-15 14:06:30,0.3054326177,-0.06841690838,0.1991420686,0.825999558,-2.123656988,9.947908401,60.4375,-11.4375,-4.4375,-7388.0625,-2989.0,2473.1875,9
2024-06-15 14:06:30,-0.1343903542,-0.1502728462,0.109955743,0.9385270476,-2.8993783,10.29746151,15.50561797752809,292.60674157303373,473.3707865168539,-7370.325842696629,-2968.14606741573,2485.494382022472,9
2024-06-15 14:06:30,-0.1343903542,-0.1502728462,0.109955743,0.9385270476,-2.8993783,10.29746151,291.07865168539325,172.02247191011236,870.1011235955057,-7724.348314606742,-2955.1011235955057,2441.247191011236,9
2024-06-15 14:06:30,0.5436700583,-0.2956587672,0.232128799,1.089361787,-0.215478152,9.157821655,6.5,393.0,1432.5,-7787.0,-2447.0,2605.5,9
2024-06-15 14:06:30,0.5351179838,-0.2492330223,0.09040805697,1.395819545,-0.6440402865,9.260771751,-337.3181818181818,272.04545454545456,1314.7272727272727,-8031.0,-2001.2272727272727,2297.454545454545,9
2024-06-15 14:06:30,0.5351179838,-0.2492330223,0.09040805697,1.395819545,-0.6440402865,9.260771751,-380.4823529411765,335.1411764705882,446.6588235294118,-8050.623529411765,-1994.317647058824,2247.1176470588234,9
2024-06-15 14:06:30,0.5338962078,-0.1331686229,-0.006108652335,1.702277422,-0.5051765442,10.0364933,-153.97826086956522,198.4782608695652,402.0,-8033.195652173913,-1883.782608695652,2228.804347826087,9
2024-06-15 14:06:31,0.5338962078,-0.1331686229,-0.006108652335,1.702277422,-0.5051765442,10.0364933,-210.25,-13.931818181818182,5.931818181818187,-8037.681818181818,-1853.272727272728,2208.840909090909,9
2024-06-15 14:06:31,0.4251621962,-0.3530801237,-0.0293215327,2.45166254,-0.8212111592,8.985439301,24.348837209302324,-3.186046511627908,-913.4186046511628,-7866.395348837209,-1847.6279069767445,2388.279069767442,9
2024-06-15 14:06:31,1.198517561,0.2919935882,0.145385921,1.829170108,-1.606509328,8.760383606,-576.1379310344828,70.55172413793103,-1773.8620689655172,-8210.620689655172,-2263.2758620689656,2375.0689655172414,9
2024-06-15 14:06:31,1.198517561,0.2919935882,0.145385921,1.829170108,-1.606509328,8.760383606,323.45977011494256,-217.17241379310343,-2165.2413793103447,-7855.793103448276,-2854.8735632183907,2282.2528735632186,9
2024-06-15 14:06:31,-0.03298672289,-0.4825835526,-0.5839871764,4.165910721,1.539471745,11.23359394,1495.3125,-805.3611111111111,-2779.527777777778,-7730.347222222223,-3135.055555555556,2236.8541666666665,9
2024-06-15 14:06:31,0.1844813079,-0.228463605,0.4544837475,3.842693806,2.590526342,10.46745014,1894.360465116279,-867.8023255813954,-2701.895348837209,-7120.988372093023,-3707.4302325581393,2901.8837209302324,9
2024-06-15 14:06:31,0.1844813079,-0.228463605,0.4544837475,3.842693806,2.590526342,10.46745014,1785.977777777778,-798.2777777777778,-2898.4222222222224,-6907.833333333333,-3825.688888888889,3023.211111111111,9
2024-06-15 14:06:31,-0.08307767659,-0.2467895597,0.235793978,2.987963676,3.809175014,8.621520042,1767.042253521127,-877.1267605633802,-2955.605633802817,-6648.788732394366,-4047.8169014084506,3274.0281690140846,9
2024-06-15 14:06:31,-0.08307767659,-0.2467895597,0.235793978,2.987963676,3.809175014,8.621520042,1694.5070422535211,-1009.5211267605634,-3099.2676056338028,-6661.4647887323945,-4378.802816901409,3442.3380281690143,9
2024-06-15 14:06:31,0.1954768747,-0.3665191531,0.2138028294,3.639186621,2.195482969,8.03494072,520.2444444444444,-1119.3333333333333,-3781.955555555556,-5749.977777777778,-4625.311111111111,4061.777777777778,9
2024-06-15 14:06:32,3.036000252,-0.1588249654,-0.2125810981,5.568912983,2.841917515,9.047688484,-675.6744186046511,-1530.139534883721,-3928.558139534884,-5028.441860465116,-5181.9534883720935,4062.558139534884,9
2024-06-15 14:06:32,3.036000252,-0.1588249654,-0.2125810981,5.568912983,2.841917515,9.047688484,-1123.7,-1773.6,-3667.4,-4192.5,-6033.6,4417.9,9
2024-06-15 14:06:32,-0.2663372457,0.1087340117,-0.6157521605,5.001487255,3.440467834,8.494627953,-1011.8620689655172,-1523.0,-3202.3793103448274,-3295.103448275862,-6379.724137931034,4422.137931034483,9
2024-06-15 14:06:32,-0.2663372457,0.1087340117,-0.6157521605,5.001487255,3.440467834,8.494627953,-1086.202247191011,-1301.056179775281,-2226.348314606741,-3072.258426966292,-6978.449438202248,4378.258426966292,9
2024-06-15 14:06:32,-1.434311628,0.5974262357,0.1172861308,2.533065319,3.258508444,9.251194954,-455.1685393258427,-1108.7303370786517,-1556.6067415730338,-2198.876404494382,-7259.640449438202,4025.438202247191,9
2024-06-15 14:06:32,0.4190535545,0.5326744914,-0.7159340382,0.8523358107,3.536235809,8.65743351,-476.5517241379311,-1087.3333333333333,-1326.0229885057472,-2101.425287356322,-7064.057471264367,3978.264367816092,9
2024-06-15 14:06:32,0.4190535545,0.5326744914,-0.7159340382,0.8523358107,3.536235809,8.65743351,-453.75,-725.25,-1428.25,-1758.0,-7228.5,4211.5,9
2024-06-15 14:06:32,-1.243721604,0.1392772794,0.4300491214,3.059789658,1.242590666,10.66137981,-589.1666666666666,-804.5,-1599.0333333333333,-1551.4333333333334,-7493.033333333334,4142.8,9
2024-06-15 14:06:32,-1.444085479,0.007330383174,0.08674286306,2.054224968,-2.774879694,8.293514252,-561.6385542168674,-747.2048192771084,-1050.2289156626507,-1171.686746987952,-7544.012048192771,3794.1927710843374,9
2024-06-15 14:06:32,-1.444085479,0.007330383174,0.08674286306,2.054224968,-2.774879694,8.293514252,-433.0,-708.8,-967.52,-1034.88,-7471.24,3789.2,9
2024-06-15 14:06:33,0.6829473376,-0.1404990107,-0.1136209369,2.434903145,2.942473888,10.69489861,-269.88235294117646,-525.6470588235294,-489.7352941176471,-1023.0,-7345.85294117647,3768.764705882353,9
2024-06-15 14:06:33,0.6829473376,-0.1404990107,-0.1136209369,2.434903145,2.942473888,10.69489861,-200.3780487804878,-205.1829268292683,-603.6585365853658,-829.6585365853658,-7373.573170731707,3927.6585365853657,9
2024-06-15 14:06:33,-0.829554975,-0.04886921868,0.09651670605,1.314416766,0.6440402865,9.069235802,-175.82608695652175,-201.30434782608697,-563.0434782608695,-801.7065217391305,-7696.065217391304,3944.3260869565215,9
2024-06-15 14:06:33,-1.219287038,0.1197295859,0.08185594529,1.295263171,-2.157175779,9.473855972,-290.1,-137.13333333333333,-333.2333333333333,-403.6333333333333,-7703.433333333333,3903.866666666667,9
2024-06-15 14:06:33,-1.219287038,0.1197295859,0.08185594529,1.295263171,-2.157175779,9.473855972,-155.82954545454547,-170.29545454545453,-243.01136363636363,-608.8977272727273,-7698.715909090909,3891.875,9
2024-06-15 14:06:33,0.7831292152,0.2015855312,-0.1295034289,1.379060149,-5.480327606,9.306262016,-218.26666666666665,-332.8666666666667,-178.06666666666666,-518.2666666666667,-7563.066666666667,3555.266666666667,9
2024-06-15 14:06:33,-0.4434881806,-0.09407325089,0.1319468915,1.960851192,0.1460463107,10.15380955,-47.48192771084338,-257.1927710843373,-199.36144578313247,-409.06024096385545,-7700.457831325301,3756.578313253012,9
2024-06-15 14:06:33,-0.4434881806,-0.09407325089,0.1319468915,1.960851192,0.1460463107,10.15380955,-161.37777777777777,-248.36666666666667,-100.8,-267.1111111111111,-7671.566666666667,3530.155555555556,9
2024-06-15 14:06:33,0.3371976018,-0.07819075137,0.1478293836,1.403002143,-0.2777273953,9.299078941,78.84444444444445,-122.57777777777778,101.71111111111112,-414.8222222222222,-7535.488888888889,3557.555555555556,9
2024-06-15 14:06:33,0.3371976018,-0.07819075137,0.1478293836,1.403002143,-0.2777273953,9.299078941,-305.7831325301205,71.44578313253012,27.228915662650603,-531.5301204819277,-7738.120481927711,3550.4939759036147,9
2024-06-15 14:06:34,-0.05131268129,0.0415388383,0.00244346098,1.403002143,-0.6296750307,10.18014526,-31.898876404494388,-89.65168539325842,-221.31460674157304,-223.0337078651685,-7764.651685393258,3525.494382022472,9
2024-06-15 14:06:34,-1.804495931,0.6536257863,-0.6719517708,2.734178305,-0.1460463107,8.056488991,11.272727272727272,-98.84848484848484,-277.7878787878788,-226.6969696969697,-7759.818181818182,3529.6060606060605,9
2024-06-15 14:06:34,-1.804495931,0.6536257863,-0.6719517708,2.734178305,-0.1460463107,8.056488991,-269.2183908045977,101.7471264367816,21.02298850574713,-226.97701149425288,-7717.528735632184,3487.908045977012,9
2024-06-15 14:06:34,-2.807536602,0.6218608022,-1.618792892,0.4213795066,-5.111620426,5.765237808,-320.8666666666667,85.64444444444445,-22.177777777777777,-213.2888888888889,-7760.933333333333,3472.9777777777776,9
2024-06-15 14:06:34,-0.7880161405,-0.2455678284,-1.75196147,1.11569798,-10.36928749,4.979939461,7.589887640449438,69.18539325842697,-295.6460674157304,-166.90449438202248,-7795.803370786517,3461.455056179775,9
2024-06-15 14:06:34,-0.7880161405,-0.2455678284,-1.75196147,1.11569798,-10.36928749,4.979939461,55.62637362637363,-121.37362637362638,-303.6263736263736,-176.021978021978,-7780.395604395604,3476.186813186813,9
2024-06-15 14:06:34,0.1820378453,-0.3689626157,-1.413542151,4.103661537,-8.803479195,5.109226227,26.642857142857142,7.178571428571431,-306.5357142857143,-348.7142857142857,-7764.892857142857,3505.8928571428573,9
2024-06-15 14:06:34,0.1820378453,-0.3689626157,-1.413542151,4.103661537,-8.803479195,5.109226227,-275.7826086956522,-74.82608695652173,-115.08695652173913,-346.9347826086956,-7746.826086956522,3489.826086956521,9
2024-06-15 14:06:34,0.2223549485,-0.5656611919,-0.9896016717,6.222530365,-6.627150536,6.24168396,-299.3640350877193,-63.42105263157895,-46.78508771929825,-370.60526315789474,-7789.578947368421,3508.311403508772,9
2024-06-15 14:06:34,0.3738495409,-0.1539380401,-0.4764748812,7.000645638,-5.72214222,6.030993938,-313.2867132867133,-75.37762237762237,-131.43356643356643,-376.87412587412587,-7761.692307692308,3490.0,9
2024-06-15 14:06:35,0.3738495409,-0.1539380401,-0.4764748812,7.000645638,-5.72214222,6.030993938,-288.0534351145038,48.7557251908397,-283.5267175572519,-288.23664122137404,-7741.572519083969,3674.129770992368,9
2024-06-15 14:06:35,0.1661553532,-0.1356120855,-0.2895501256,7.151480675,-4.05577755,5.401319027,-252.46153846153845,95.0,-38.0,-324.46153846153845,-7561.538461538462,3623.769230769231,9
2024-06-15 14:06:35,0.1661553532,-0.1356120855,-0.2895501256,7.151480675,-4.05577755,5.401319027,26.921348314606742,48.40449438202247,-196.3258426966292,-264.2247191011236,-7569.033707865168,3613.719101123596,9
2024-06-15 14:06:35,-0.1527163088,-0.04886921868,0.02443460934,7.101202011,-4.486733913,5.693411827,36.23913043478261,-48.184782608695656,53.130434782608695,-280.9782608695652,-7636.891304347826,3626.619565217392,9
2024-06-15 14:06:35,-0.01832595654,-0.02565634064,-0.0293215327,7.354987621,-4.742913723,5.343858242,14.506172839506172,103.79012345679013,55.4320987654321,-272.0,-7705.604938271605,3615.185185185185,9
2024-06-15 14:06:35,-0.01832595654,-0.02565634064,-0.0293215327,7.354987621,-4.742913723,5.343858242,60.44186046511628,126.0,53.44186046511628,-281.8139534883721,-7566.0,3630.4651162790697,9
2024-06-15 14:06:35,0.05131268129,-0.0109955743,0.03787364438,7.570465565,-4.910507679,5.664681435,65.31818181818181,-95.23863636363636,29.68181818181818,-274.0113636363636,-7555.715909090909,3625.863636363637,9
2024-06-15 14:06:35,0.05131268129,-0.0109955743,0.03787364438,7.570465565,-4.910507679,5.664681435,55.34065934065934,-73.81318681318682,14.934065934065934,-279.2967032967033,-7756.274725274725,3643.483516483516,9
2024-06-15 14:06:35,-0.2736676335,0.3652974069,1.744631171,6.708553314,-8.013393402,6.019022942,39.7906976744186,-125.0,77.93023255813954,-290.4418604651163,-7571.0,3636.767441860465,9
2024-06-15 14:06:36,-0.7819074988,-0.5717698932,2.083050489,3.217807055,-7.575253963,4.084507942,-254.8488372093024,109.95348837209302,56.02325581395349,-292.93023255813955,-7807.0,3642.8255813953488,9
2024-06-15 14:06:36,-0.7819074988,-0.5717698932,2.083050489,3.217807055,-7.575253963,4.084507942,-33.666666666666664,68.0,58.833333333333336,-287.5,-7804.0,3623.6666666666665,9
2024-06-15 14:06:36,0.0354301855,-0.4007275999,0.5436700583,4.007893562,-7.038952827,4.237737179,17.547169811320753,-69.98113207547169,43.84905660377358,-304.0377358490566,-7616.433962264151,3612.5283018867926,9
2024-06-15 14:06:36,0.0354301855,-0.4007275999,0.5436700583,4.007893562,-7.038952827,4.237737179,15.031446540880504,35.67924528301887,31.89937106918239,-315.35849056603774,-7746.622641509434,3604.3522012578615,9
2024-06-15 14:06:36,-0.5143485069,-0.01832595654,0.05375614017,3.620033026,-7.61595583,3.23456645,54.61904761904762,88.5952380952381,11.80952380952381,0.9047619047619048,-7585.071428571428,3590.428571428572,9
2024-06-15 14:06:36,0.2724458873,0.2981022298,0.216246292,3.227383852,-9.222464561,3.500322819,81.88636363636364,121.6818181818182,35.21590909090909,-263.42045454545456,-7706.659090909091,3595.375,9
2024-06-15 14:06:36,0.2724458873,0.2981022298,0.216246292,3.227383852,-9.222464561,3.500322819,37.45,26.96250000000001,19.9625,-164.15,-7553.3875,3600.675,9
2024-06-15 14:06:36,-0.5448917747,0.3127630055,1.218065262,1.719036818,-12.67011547,2.999934673,29.4375,-105.125,-250.0,-9.75,-7576.0625,3607.3125,9
2024-06-15 14:06:36,0.8588765264,0.04642575979,2.449569702,-1.33835876,-12.24634171,2.142810583,47.8,82.33333333333333,34.266666666666666,42.73333333333333,-7563.933333333333,3598.0666666666666,9
2024-06-15 14:06:36,0.8588765264,0.04642575979,2.449569702,-1.33835876,-12.24634171,2.142810583,82.8695652173913,-111.6086956521739,-9.434782608695652,39.04347826086956,-7792.521739130435,3593.0,9
2024-06-15 14:06:37,2.214997292,0.3970624208,2.54975152,-4.046200752,-7.682993412,3.981557369,-120.52380952380952,-53.38095238095238,69.33333333333333,74.71428571428571,-7583.142857142857,3620.571428571429,9
2024-06-15 14:06:37,2.214997292,0.3970624208,2.54975152,-4.046200752,-7.682993412,3.981557369,-114.7471264367816,-40.26436781609196,56.16091954022989,42.50574712643678,-7798.459770114942,3659.816091954023,9
2024-06-15 14:06:37,2.328618288,0.5082398653,1.673770785,-5.456385612,-2.446874142,4.584896088,45.37931034482759,-93.13793103448276,13.25287356321839,49.51724137931035,-7773.862068965517,3682.735632183908,9
2024-06-15 14:06:37,2.508212805,0.3640756905,1.06290555,-6.68461132,1.211466074,4.805162907,65.23076923076923,97.2967032967033,101.12087912087912,55.51648351648352,-7563.8351648351645,3660.6153846153848,9
2024-06-15 14:06:37,2.508212805,0.3640756905,1.06290555,-6.68461132,1.211466074,4.805162907,99.07954545454544,-148.8068181818182,-97.4090909090909,17.886363636363637,-7587.738636363636,3688.488636363637,9
2024-06-15 14:06:37,1.532050014,0.37751472,0.4874704778,-6.957550049,3.545812607,3.840299606,111.27586206896552,-226.57471264367817,-37.39080459770115,-49.551724137931046,-7768.482758620689,3631.4597701149423,9
2024-06-15 14:06:37,0.7318165898,0.3591887653,0.3591887653,-7.486668587,4.49870491,2.863465309,110.75555555555556,-269.9555555555555,-61.31111111111111,79.64444444444445,-7773.866666666667,3699.0,9
2024-06-15 14:06:37,0.7318165898,0.3591887653,0.3591887653,-7.486668587,4.49870491,2.863465309,101.13186813186812,56.35164835164835,-99.8021978021978,-105.43956043956044,-7770.274725274725,3474.956043956044,9
2024-06-15 14:06:37,0.4434881806,0.2015855312,0.3274237812,-7.438784599,5.085284233,2.145204782,-10.512500000000005,56.9875,101.5,-303.175,-7781.775,3482.75,9
2024-06-15 14:06:38,0.08185594529,0.1514945775,0.2382374406,-7.094019413,6.059724331,1.881842494,66.51162790697674,93.1627906976744,89.37209302325581,-8.697674418604649,-7773.395348837209,3491.6046511627906,9
2024-06-15 14:06:38,0.1001819,0.09773843735,0.1869247705,-6.976703644,5.760449409,1.793257117,-26.0,-21.81818181818182,77.18181818181819,-167.63636363636363,-7760.363636363636,3505.0,9
2024-06-15 14:06:38,0.1001819,0.09773843735,0.1869247705,-6.976703644,5.760449409,1.793257117,-83.82954545454545,336.5681818181818,211.875,-269.42045454545456,-7792.715909090909,3522.0,9
2024-06-15 14:06:38,0.1783726513,0.05497787148,0.1514945775,-7.041347027,5.997475147,1.587355733,-77.55555555555556,473.3333333333333,356.72222222222223,-339.6111111111111,-7757.944444444444,3528.722222222222,9
2024-06-15 14:06:38,0.1270599663,0.05864306539,0.08796459436,-6.938396454,6.107608318,1.479616642,-108.31111111111112,547.6111111111111,822.0222222222222,-341.3777777777778,-7773.922222222222,3530.311111111111,9
2024-06-15 14:06:38,0.1270599663,0.05864306539,0.08796459436,-6.938396454,6.107608318,1.479616642,-107.2,411.5,839.8,-493.6,-7786.7,3529.2,9
2024-06-15 14:06:38,0.1209513173,0.02809980139,0.1148426682,-6.80192709,6.50744009,1.211466074,373.8313253012048,972.722891566265,2258.7831325301204,-1045.4096385542168,-7320.626506024097,3738.867469879518,9
2024-06-15 14:06:38,0.1209513173,0.02809980139,0.1148426682,-6.80192709,6.50744009,1.211466074,401.8876404494382,1731.2808988764043,4935.573033707865,-2625.9775280898875,-7207.4157303370785,3829.123595505618,9
2024-06-15 14:06:38,0.0171042271,0.02809980139,0.03298672289,-6.68700552,6.447585106,1.223437071,202.24137931034485,2000.5172413793105,5868.6551724137935,-3617.7586206896553,-6586.137931034483,3848.4827586206898,9
2024-06-15 14:06:38,0.2052507252,0.01466076635,0.04886921868,-6.720524311,6.720524311,0.8571242094,526.2,1554.0666666666666,6933.133333333333,-5067.733333333334,-6113.866666666667,3549.4,9
2024-06-15 14:06:39,0.2052507252,0.01466076635,0.04886921868,-6.720524311,6.720524311,0.8571242094,469.3636363636364,730.2727272727273,5706.454545454545,-6237.636363636364,-4756.090909090909,3268.2727272727275,9
2024-06-15 14:06:39,0.2150245607,-0.04276056588,-0.02443460934,-6.789956093,6.615179062,0.6033388376,-239.63636363636363,599.5113636363636,3848.795454545456,-6512.045454545455,-4125.556818181818,3431.5454545454545,9
2024-06-15 14:06:39,0.09773843735,-0.02565634064,0.04276056588,-6.667851925,6.87854147,0.6847416759,-443.67080745341616,726.8260869565217,3215.422360248447,-6902.701863354037,-3934.708074534162,3473.2422360248447,9
2024-06-15 14:06:39,0.09773843735,-0.02565634064,0.04276056588,-6.667851925,6.87854147,0.6847416759,-293.98136645962734,713.7826086956521,2947.099378881988,-6880.341614906833,-3837.813664596273,3266.409937888199,9
2024-06-15 14:06:39,0.01954768784,0.0354301855,-0.02443460934,-6.610390663,6.54574728,0.3280056417,222.8181818181818,558.1818181818182,1499.8181818181818,-7519.272727272727,-3064.818181818182,3396.181818181818,9
2024-06-15 14:06:39,0.01954768784,0.0354301855,-0.02443460934,-6.610390663,6.54574728,0.3280056417,-47.56818181818181,309.6818181818182,507.5909090909091,-7320.318181818182,-2901.5227272727275,3351.681818181818,9
2024-06-15 14:06:39,-0.1111774743,-0.006108652335,-0.0354301855,-6.624756336,6.675034523,0.5195417404,2.23076923076923,261.15384615384613,155.78021978021977,-7304.791208791209,-2870.6263736263736,3036.3296703296705,9
2024-06-15 14:06:39,-0.1014036313,-0.04886921868,-0.0109955743,-6.797138691,6.861782074,0.6991068721,-277.72727272727275,217.6590909090909,516.9318181818181,-7708.659090909091,-2844.318181818182,3186.8863636363635,9
2024-06-15 14:06:39,-0.1014036313,-0.04886921868,-0.0109955743,-6.797138691,6.861782074,0.6991068721,-271.2142857142857,67.38095238095238,218.1547619047619,-7730.607142857143,-2521.54761904762,2967.3928571428573,9
2024-06-15 14:06:39,-0.2748893499,0.01221730467,-0.1014036313,-6.773196697,6.493074894,0.9337386489,-305.0989010989011,10.912087912087912,11.35164835164835,-7604.681318681319,-2512.7582417582416,3037.879120879121,9
2024-06-15 14:06:40,-0.3665191531,-0.05619960278,-0.08063421398,-6.622362137,6.438008308,1.340752959,-338.2456140350877,-22.82456140350877,73.19298245614036,-7396.684210526316,-2329.280701754386,3052.0877192982457,9
2024-06-15 14:06:40,-0.3665191531,-0.05619960278,-0.08063421398,-6.622362137,6.438008308,1.340752959,-638.8304093567251,120.45029239766085,80.7953216374269,-7438.789473684211,-2425.187134502924,3107.058479532164,9
2024-06-15 14:06:40,-0.7757988572,-0.07941248268,-0.5803219676,-6.117185116,5.942408562,1.714248419,389.6666666666667,285.5777777777778,1341.5111111111112,-7770.2444444444445,-3084.8888888888887,2494.955555555556,9
2024-06-15 14:06:40,-0.7757988572,-0.07941248268,-0.5803219676,-6.117185116,5.942408562,1.714248419,2487.0439560439563,223.1758241758241,1703.901098901099,-7668.384615384615,-2160.6153846153848,2664.087912087912,9
2024-06-15 14:06:40,-2.415361166,-0.4434881806,-1.485624313,-5.956773758,4.623203278,2.873042107,2556.906976744186,530.0581395348837,1074.2093023255811,-7953.790697674419,-1619.4302325581396,3031.43023255814,9
2024-06-15 14:06:40,-2.412917614,-0.3445279896,-2.432465315,-7.69017601,-1.285686255,3.514688015,-1111.655172413793,-133.183908045977,2.919540229885057,-7381.83908045977,-1807.712643678161,3145.9655172413795,9
2024-06-15 14:06:40,-2.412917614,-0.3445279896,-2.432465315,-7.69017601,-1.285686255,3.514688015,-431.2247191011236,383.314606741573,480.5168539325842,-7893.38202247191,-1902.23595505618,2809.47191011236,9
2024-06-15 14:06:40,-0.1111774743,-0.5009095073,-2.284636021,-7.335834026,-6.39491272,6.663063526,1693.2413793103449,733.6206896551724,892.2758620689655,-7450.482758620689,-2158.2413793103447,2634.862068965517,9
2024-06-15 14:06:40,0.05497787148,0.1295034289,-1.339016676,-6.229712963,-7.970297337,6.117185116,2520.7526881720432,1407.6666666666667,515.2688172043011,-7856.4946236559135,-1494.0537634408602,2485.6451612903224,9
2024-06-15 14:06:40,0.05497787148,0.1295034289,-1.339016676,-6.229712963,-7.970297337,6.117185116,399.8793103448276,-66.04022988505747,739.1954022988506,-8086.83908045977,-362.6896551724138,2585.574712643678,9
2024-06-15 14:06:41,0.2052507252,0.441044718,-0.4862487316,-5.760449409,-7.292738438,4.891354084,-161.65882352941176,-258.3647058823529,511.7058823529412,-8034.082352941176,-664.2117647058824,2575.294117647059,9
2024-06-15 14:06:41,0.2052507252,0.441044718,-0.4862487316,-5.760449409,-7.292738438,4.891354084,-467.0625,-1114.375,698.25,-8522.6875,-514.8125,2504.5625,9
2024-06-15 14:06:41,0.2089159191,0.2797762752,0.04764748737,-5.133168221,-7.122750282,4.910507679,-1673.5777777777778,-1896.4444444444443,682.2222222222222,-7793.355555555556,-180.3111111111111,2957.6666666666665,9
2024-06-15 14:06:41,-0.1185078546,0.109955743,-0.07696902007,-5.075707436,-6.641515732,4.920084476,-1320.5505617977528,-200.0337078651685,-342.0112359550562,-7575.404494382023,-422.91011235955057,3255.6404494382023,9
2024-06-15 14:06:41,-0.1185078546,0.109955743,-0.07696902007,-5.075707436,-6.641515732,4.920084476,-639.8757763975156,174.77018633540374,-726.975155279503,-7644.5590062111805,-923.8633540372672,3373.018633540373,9
2024-06-15 14:06:41,0.05742133409,-0.004886921961,-0.1197295859,-5.190629482,-6.938396454,4.738125324,442.0,1285.590909090909,-1782.8181818181818,-7830.818181818182,-1875.9545454545453,2517.909090909091,9
2024-06-15 14:06:41,-0.01466076635,0.02199114859,0.06352998316,-5.339069843,-7.175422668,4.90811348,1400.067415730337,1311.1460674157304,-1994.6741573033707,-7987.483146067416,-2117.0224719101125,2261.8426966292136,9
2024-06-15 14:06:41,-0.01466076635,0.02199114859,0.06352998316,-5.339069843,-7.175422668,4.90811348,2996.5730337078653,915.6629213483146,-1116.2134831460671,-8103.426966292135,-1751.8314606741574,2340.752808988764,9
2024-06-15 14:06:41,-0.1869247705,-0.1026253626,0.1075122803,-5.188235283,-6.787561893,4.639962673,3378.0986842105262,442.26973684210526,-571.9671052631579,-8213.796052631578,-1730.453947368421,2374.5855263157896,9
2024-06-15 14:06:41,-0.1869247705,-0.1026253626,0.1075122803,-5.35104084,-7.264008045,4.611232281,3356.3881578947367,242.9276315789473,-579.203947368421,-8198.66447368421,-1870.5855263157896,2385.769736842105,9
2024-06-15 14:06:42,-0.1319468915,-0.08674286306,0.1527163088,-5.35104084,-7.264008045,4.611232281,1857.1011235955057,158.53932584269663,190.49438202247188,-7914.730337078651,-1593.6629213483145,2276.584269662921,9
2024-06-15 14:06:42,0.01343903504,-0.1478293836,0.3836233616,-5.803544998,-7.113173485,5.037400246,1857.355555555556,297.8111111111112,500.9555555555556,-8200.18888888889,-1555.5555555555557,2581.211111111111,9
2024-06-15 14:06:42,0.01343903504,-0.1478293836,0.3836233616,-5.803544998,-7.113173485,5.037400246,1575.3218390804598,373.13793103448273,405.2873563218391,-8293.252873563219,-986.5057471264367,2452.3563218390805,9
2024-06-15 14:06:42,0.03420845419,-0.04031710699,0.712268889,-6.313509941,-6.519411087,5.147533417,356.4888888888889,-575.6444444444444,864.8444444444444,-8301.933333333332,-851.4222222222222,2869.9777777777776,9
2024-06-15 14:06:42,0.3005456924,0.03787364438,0.8857545853,-6.555324078,-5.530605793,5.169081688,326.8953488372093,-563.8604651162791,-283.19767441860466,-7820.058139534884,-474.59302325581393,3170.8837209302324,9
2024-06-15 14:06:42,0.3005456924,0.03787364438,0.8857545853,-6.555324078,-5.530605793,5.169081688,55.19101123595506,-849.7977528089888,69.78651685393258,-8040.303370786517,-476.80898876404495,3402.213483146068,9
2024-06-15 14:06:42,0.5057964325,0.04886921868,0.8051204085,-7.017405033,-4.223371983,5.207388878,-638.2727272727273,-641.4545454545455,874.3636363636364,-7992.909090909091,0.2727272727272734,3256.7272727272725,9
2024-06-15 14:06:42,0.8979719281,-0.03909537569,0.8503243923,-7.848193169,-2.645592928,5.633556366,-1561.370786516854,-245.1011235955056,972.494382022472,-7850.056179775281,56.51685393258427,3185.179775280899,9
2024-06-15 14:06:42,0.8979719281,-0.03909537569,0.8503243923,-7.848193169,-2.645592928,5.633556366,-1728.8837209302326,-199.3953488372093,302.4651162790698,-7988.069767441861,-170.8372093023256,3008.116279069768,9
2024-06-15 14:06:42,1.402546644,0.216246292,0.9407324791,-7.867346764,-0.457292527,5.322310448,-1333.6931818181818,-300.8181818181818,219.3181818181818,-7733.886363636364,-325.8863636363636,3059.9204545454545,9
2024-06-15 14:06:43,1.402546644,0.216246292,0.9407324791,-7.867346764,-0.457292527,5.322310448,-1220.8181818181818,3.545454545454561,228.54545454545456,-8111.545454545454,-113.54545454545452,3254.6363636363635,9
2024-06-15 14:06:43,1.274264932,0.2797762752,0.8637634516,-7.529764175,2.341529369,4.79079771,-1365.7560975609756,-126.14634146341464,291.8780487804878,-8183.878048780488,-87.09756097560975,3229.0,9
2024-06-15 14:06:43,0.830776751,0.287106663,0.6450737119,-7.584830761,3.801992416,4.067748547,-2396.5,-433.5,-21.5,-8042.5,-374.0,3249.5,9
2024-06-15 14:06:43,0.830776751,0.287106663,0.6450737119,-7.584830761,3.801992416,4.067748547,-3632.711111111111,-628.8666666666667,-321.14444444444445,-7644.911111111111,-883.2111111111111,3260.055555555556,9
2024-06-15 14:06:43,0.5143485069,0.2394591719,0.4056145251,-7.101202011,4.599261284,3.16034627,-3635.125,-614.0,-158.75,-7643.375,-1268.75,3674.875,9
2024-06-15 14:06:43,0.5143485069,0.2394591719,0.4056145251,-7.213729858,5.564124584,2.49236393,-3488.1011904761904,-618.7619047619048,-9.940476190476204,-7635.636904761905,-1477.0833333333333,3688.565476190476,9
2024-06-15 14:06:43,0.3677408695,0.08674286306,0.3286454976,-7.213729858,5.564124584,2.49236393,-2153.0227272727275,-406.1363636363636,431.0568181818182,-7728.284090909091,-1432.3295454545455,3676.477272727273,9
2024-06-15 14:06:43,0.3274237812,0.09773843735,0.2333505303,-7.180211067,5.882553577,2.152387381,-1015.5054945054944,-32.747252747252745,264.6043956043956,-7575.725274725275,-1426.5824175824175,3597.0,9
2024-06-15 14:06:43,0.3274237812,0.09773843735,0.2333505303,-7.180211067,5.882553577,2.152387381,-693.2093023255813,183.4883720930233,-81.83720930232558,-7663.53488372093,-1480.7441860465117,3404.906976744186,9
2024-06-15 14:06:43,0.2260201424,0.07452555746,0.1918116808,-6.751648903,6.253654957,1.812410712,317.271186440678,378.4915254237288,-313.864406779661,-7947.271186440678,-1613.6440677966102,3239.2881355932204,9
2024-06-15 14:06:44,0.1368338168,0.1282816976,0.04276056588,-6.883329868,6.337451935,1.41018486,546.6497175141243,373.40677966101697,-332.5084745762712,-7943.316384180791,-1566.7514124293784,3212.169491525424,9
2024-06-15 14:06:44,0.2296853364,0.03665191308,0.1014036313,-6.785167694,6.641515732,1.343147159,-298.57142857142856,-320.0,-547.1428571428571,-7634.571428571428,-1572.571428571429,3259.0,9
2024-06-15 14:06:44,-0.01466076635,-0.003665191587,0.0293215327,-6.555324078,6.576871872,0.8283938169,-453.3139534883721,-31.01162790697674,-305.37209302325584,-7650.616279069767,-1568.9302325581396,3389.2558139534885,9
2024-06-15 14:06:44,-0.01466076635,-0.003665191587,0.0293215327,-6.555324078,6.576871872,0.8283938169,-483.76344086021504,-210.70967741935485,-520.010752688172,-7654.075268817204,-1780.4193548387098,3245.569892473118,9
2024-06-15 14:06:44,0.1075122803,0.05497787148,0.03420845419,-6.751648903,6.880935669,0.8810662031,-220.5287356321839,-266.4482758620689,-568.6781609195402,-7776.977011494253,-1754.1954022988505,3631.919540229885,9
2024-06-15 14:06:44,0.1075122803,0.05497787148,0.03420845419,-6.751648903,6.880935669,0.8810662031,82.33734939759036,58.0,-556.1084337349398,-7781.072289156626,-1718.6506024096386,3659.795180722892,9
2024-06-15 14:06:44,0.04764748737,0.007330383174,0.03176499158,-6.627150536,6.658275127,0.8164227605,-111.83908045977012,-267.85057471264366,-340.2183908045977,-7789.9885057471265,-1726.3103448275865,3650.551724137931,9
2024-06-15 14:06:44,0.00122173049,-0.02076941915,-0.01588249579,-6.739677906,6.823474884,0.586579442,57.161490683229815,-341.83850931677017,79.472049689441,-7586.527950310559,-1701.3167701863354,3685.552795031056,9
2024-06-15 14:06:44,0.00122173049,-0.02076941915,-0.01588249579,-6.739677906,6.823474884,0.586579442,96.31004366812228,-363.1266375545852,-316.1397379912664,-7742.650655021834,-1728.174672489083,3496.655021834061,9
2024-06-15 14:06:45,0.07574728876,-0.01588249579,0.003665191587,-6.514622688,6.962338448,0.7326257229,9.41048034934498,-354.3930131004367,-337.5371179039301,-7739.157205240174,-1729.9213973799126,3503.2052401746723,9
2024-06-15 14:06:45,0.01466076635,-0.06230825558,-0.0171042271,-6.445190907,6.438008308,0.5937620401,-77.4890829694323,-345.6593886462882,-358.9344978165939,-7735.663755458515,-1731.6681222707423,3509.755458515284,9
2024-06-15 14:06:45,0.01466076635,-0.06230825558,-0.0171042271,-6.445190907,6.438008308,0.5937620401,908.4268292682926,258.5487804878049,-100.17073170731707,-7464.475609756098,-2042.0853658536585,3504.182926829268,9
2024-06-15 14:06:45,0.05986479297,0.009773843922,0.01954768784,-6.789956093,6.823474884,0.6775590777,1158.4044943820224,349.97752808988764,228.8314606741573,-7750.23595505618,-1784.0224719101125,3693.3595505617977,9
2024-06-15 14:06:45,0.05986479297,0.009773843922,0.01954768784,-6.789956093,6.823474884,0.6775590777,952.1477272727273,-96.1818181818182,-90.9318181818182,-7794.409090909091,-1533.9204545454545,3694.977272727273,9
2024-06-15 14:06:45,-0.008552113548,-0.03054326214,0.0,-6.476315498,6.737283707,0.7254431248,599.5384615384615,-296.6373626373626,189.01098901098905,-7716.175824175824,-1416.758241758242,3511.5714285714284,9
2024-06-15 14:06:45,0.07330382615,0.02199114859,0.007330383174,-6.54574728,6.694188118,0.7469909191,411.32584269662925,98.60674157303372,311.6179775280899,-7755.887640449439,-1294.573033707865,3544.8651685393256,9
2024-06-15 14:06:45,0.07330382615,0.02199114859,0.007330383174,-6.54574728,6.694188118,0.7469909191,-193.9879518072289,265.2409638554217,325.3855421686747,-7637.927710843373,-1609.0963855421687,3493.686746987952,9
2024-06-15 14:06:45,-0.09040805697,-0.02199114859,-0.0232128799,-6.536170483,6.72291851,0.672770679,-128.95505617977528,107.69662921348312,-96.34831460674155,-7717.247191011236,-1489.6067415730338,3531.5280898876404,9
2024-06-15 14:06:45,-0.07086037099,0.03665191308,-0.0232128799,-6.564900875,6.749254704,0.672770679,174.05747126436782,-14.620689655172413,333.98850574712645,-7616.045977011494,-1645.6781609195402,3534.9885057471265,9
2024-06-15 14:06:46,-0.07086037099,0.03665191308,-0.0232128799,-6.564900875,6.749254704,0.672770679,451.1304347826087,308.69565217391306,226.4782608695652,-7718.304347826087,-1195.391304347826,3468.478260869565,9
2024-06-15 14:06:46,-0.3298672438,-0.0415388383,-0.1123992056,-6.519411087,6.488286495,1.029506683,513.8862275449102,53.532934131736525,48.32934131736527,-7683.407185628743,-1340.4011976047905,3487.119760479042,9
2024-06-15 14:06:46,-0.3298672438,-0.0415388383,-0.1123992056,-6.519411087,6.488286495,1.029506683,598.3173652694611,-178.80239520958082,24.976047904191617,-7765.443113772455,-1337.4071856287426,3487.718562874252,9
2024-06-15 14:06:46,-0.2968805134,-0.03665191308,-0.08307767659,-6.631938934,6.703764915,1.177947283,404.5,-204.0,214.5,-7626.0,-1220.0,3898.5,9
2024-06-15 14:06:46,-0.676838696,-0.07819075137,-0.4337143302,-6.150704384,6.332663536,1.391031146,355.40449438202245,166.87640449438203,119.95505617977528,-7827.38202247191,-1080.5168539325844,3567.494382022472,9
2024-06-15 14:06:46,-0.676838696,-0.07819075137,-0.4337143302,-6.150704384,6.332663536,1.391031146,16.5,49.6,-302.8,-7722.4,-1056.2,3501.1,9
2024-06-15 14:06:46,-1.844812989,-0.3787364662,-1.114218235,-5.98789835,5.190629482,2.631227732,-222.7977528089888,86.14606741573034,-109.70786516853931,-7757.449438202248,-1140.505617977528,3802.134831460674,9
2024-06-15 14:06:46,-3.508810043,-0.3824016452,-2.193006277,-5.880159378,0.5267243981,3.624821424,-198.77272727272725,-311.1363636363636,-255.3636363636364,-7806.659090909091,-996.0909090909092,3863.545454545456,9
2024-06-15 14:06:46,-3.508810043,-0.3824016452,-2.193006277,-5.880159378,0.5267243981,3.624821424,247.4,315.0,-3.8000000000000114,-7651.2,-1088.4,3935.6,9
2024-06-15 14:06:46,-1.707979202,-0.1576032341,-2.32128787,-7.668628216,-6.052541733,3.34469986,-72.68518518518519,-34.888888888888886,-587.5555555555555,-7648.648148148148,-711.1172839506173,3557.6728395061727,9
2024-06-15 14:06:47,-1.707979202,-0.1576032341,-2.32128787,-7.668628216,-6.052541733,3.34469986,14.351851851851848,-57.11111111111112,-576.4444444444445,-7669.018518518518,-704.3271604938271,3539.771604938272,9
2024-06-15 14:06:47,-0.3090978265,-0.3310889602,-1.611462474,-6.227318764,-8.413225174,5.169081688,222.60919540229884,-227.42528735632183,284.7701149425287,-7644.873563218391,-1237.1379310344828,3800.528735632184,9
2024-06-15 14:06:47,-0.8833111525,-0.5656611919,-1.318247199,-3.38300705,-8.485051155,4.276044369,296.0340909090909,555.1136363636364,-87.82954545454547,-7751.931818181818,-682.3522727272727,3651.659090909091,9
2024-06-15 14:06:47,-0.8833111525,-0.5656611919,-1.318247199,-3.38300705,-8.485051155,4.276044369,-1650.9545454545455,-229.04545454545456,-851.8181818181819,-7878.045454545455,-656.5909090909091,3284.454545454545,9
2024-06-15 14:06:47,0.06352998316,-0.3396410644,-1.021366715,-1.659181833,-8.70771122,3.790021181,-2467.2954545454545,-1176.2045454545455,-584.1136363636364,-7676.363636363636,-1706.965909090909,3839.875,9
2024-06-15 14:06:47,-0.2443460971,-0.4019493461,-0.8637634516,0.1101332754,-9.591172218,4.060565948,-1572.225806451613,-1329.741935483871,-214.48387096774195,-7534.354838709677,-2102.6129032258063,4066.3870967741937,9
2024-06-15 14:06:47,-0.2443460971,-0.4019493461,-0.8637634516,0.1101332754,-9.591172218,4.060565948,-79.0,-127.36363636363636,51.909090909090935,-7402.818181818182,-1812.1818181818185,4177.090909090909,9
2024-06-15 14:06:47,-0.2052507252,-0.3042109013,-0.6218608022,1.695094824,-9.794678688,3.818751812,59.146067415730336,187.2584269662921,413.7752808988764,-7346.955056179775,-1468.2808988764043,4097.516853932584,9
2024-06-15 14:06:47,-0.2052507252,-0.3042109013,-0.6218608022,1.695094824,-9.794678688,3.818751812,-194.9438202247191,211.08988764044943,828.0449438202247,-7709.797752808989,-1223.415730337079,3789.820224719101,9
2024-06-15 14:06:47,0.2101376504,-0.2736676335,-0.2968805134,2.145204782,-9.686940193,3.945644379,-810.7931034482758,584.6206896551724,505.7931034482759,-7776.551724137931,-1065.6896551724135,3534.2413793103447,9
2024-06-15 14:06:48,0.5180137157,-0.3042109013,-0.1637118906,2.798821688,-9.162610054,4.209006786,-1327.7640449438202,459.7640449438202,-47.84269662921348,-7693.157303370786,-1077.1011235955057,3643.629213483146,9
2024-06-15 14:06:48,0.5180137157,-0.3042109013,-0.1637118906,2.798821688,-9.162610054,4.209006786,-1085.637362637363,538.032967032967,216.54945054945057,-7832.89010989011,-1109.5164835164835,3652.6703296703295,9
2024-06-15 14:06:48,0.1551597714,-0.1014036313,-0.1001819,2.509123325,-7.970297337,4.553771496,-1033.8165680473371,396.1479289940828,350.5029585798817,-8035.254437869822,-911.905325443787,3580.834319526627,9
2024-06-15 14:06:48,0.02076941915,-0.1576032341,-0.1466076523,3.08133769,-8.456320763,4.522646904,-1269.319526627219,41.71005917159766,-14.585798816568058,-7937.621301775148,-894.7455621301775,3425.804733727811,9
2024-06-15 14:06:48,0.02076941915,-0.1576032341,-0.1466076523,3.08133769,-8.456320763,4.522646904,-1749.3483146067415,-156.77528089887642,-656.6404494382023,-7980.483146067416,-1385.067415730337,3375.674157303371,9
2024-06-15 14:06:48,0.1710422635,-0.1539380401,-0.06963863969,3.552995205,-8.130708694,4.556165695,-1659.304347826087,-388.8478260869565,-443.7282608695653,-7634.608695652174,-1661.2282608695652,3038.695652173913,9
2024-06-15 14:06:48,0.1246165112,0.02199114859,-0.05375614017,3.057395458,-9.210494041,4.778826714,561.1870967741936,-129.46451612903226,-356.1935483870968,-7489.193548387097,-2315.4774193548387,3529.4774193548387,9
2024-06-15 14:06:48,0.06597344577,0.04031710699,-0.09285151958,3.294421434,-8.135497093,5.094861031,59.95180722891566,315.86746987951807,584.1807228915662,-7482.602409638554,-1752.4819277108434,3587.192771084337,9
2024-06-15 14:06:48,0.06597344577,0.04031710699,-0.09285151958,3.294421434,-8.135497093,5.094861031,-212.0434782608696,321.4130434782609,928.108695652174,-7720.717391304348,-1368.413043478261,3786.152173913044,9
2024-06-15 14:06:49,0.09529497474,0.06963863969,-0.04764748737,3.411737442,-7.975085735,5.085284233,-487.9265536723164,971.276836158192,741.9039548022599,-7710.514124293785,-1386.7966101694915,3392.7966101694915,9
2024-06-15 14:06:49,-0.6120869517,-0.05619960278,-0.0415388383,3.337517262,-8.070854187,4.515464306,-55.47777777777779,812.4444444444445,742.9666666666667,-7925.611111111111,-1164.7,3598.1,9
2024-06-15 14:06:49,-0.6120869517,-0.05619960278,-0.0415388383,3.337517262,-8.070854187,4.515464306,-112.21142857142856,520.9314285714286,-27.622857142857143,-7873.297142857143,-844.4685714285714,3622.92,9
2024-06-15 14:06:49,-0.1502728462,0.007330383174,0.07696902007,3.888183594,-10.22802925,4.115632534,-90.12087912087912,558.3296703296703,-422.4835164835165,-7939.483516483517,-922.4175824175824,3505.6153846153848,9
2024-06-15 14:06:49,-0.1502728462,0.007330383174,0.07696902007,3.888183594,-10.22802925,4.115632534,-63.0,495.6666666666667,-545.8666666666667,-8019.933333333333,-782.5333333333333,3333.6666666666665,9
2024-06-15 14:06:49,-0.5571091175,0.1979203373,0.1930334121,3.703830004,-9.349357605,3.445256233,966.568181818182,785.4545454545455,-262.8636363636364,-7939.181818181818,-1734.9318181818182,2041.25,9
2024-06-15 14:06:49,0.9810495973,0.4483750761,1.924225569,2.183511972,-12.14578533,4.599261284,913.681818181818,364.0568181818182,271.27272727272725,-8132.409090909091,-1593.9431818181818,1949.261363636364,9
2024-06-15 14:06:49,0.9810495973,0.4483750761,1.924225569,2.183511972,-12.14578533,4.599261284,421.5280898876405,-15.20224719101124,-298.76404494382024,-7933.955056179775,-1573.7640449438202,2338.0224719101125,9
2024-06-15 14:06:49,0.8405506015,0.9040805697,2.517986536,-1.424550056,-8.884882927,5.892130375,343.40449438202245,85.22471910112358,-228.1460674157304,-7764.247191011236,-1240.438202247191,2180.0,9
2024-06-15 14:06:49,1.588249683,0.6084218025,2.186897516,-4.541800499,-5.774814606,4.572925091,-5.005714285714291,232.96571428571428,290.2914285714286,-7967.88,-1206.32,2239.2685714285712,9
2024-06-15 14:06:50,1.588249683,0.6084218025,2.186897516,-4.541800499,-5.774814606,4.572925091,-237.5771428571429,237.53714285714287,351.4342857142857,-8183.88,-1330.32,2070.1257142857144,9
2024-06-15 14:06:50,1.824043632,0.6304129362,1.819156647,-6.148310184,-2.662352324,5.166687489,216.51136363636363,83.29545454545455,-294.375,-8239.045454545454,-1512.534090909091,1968.0454545454545,9
2024-06-15 14:06:50,1.824043632,0.6304129362,1.819156647,-6.830657482,1.132457376,4.630385876,412.5955056179776,196.3707865168539,-2.426966292134836,-8194.157303370786,-1457.134831460674,1980.426966292135,9
2024-06-15 14:06:50,1.318247199,0.389732033,1.094670534,-6.830657482,1.132457376,4.630385876,742.0967741935484,565.9032258064516,-74.12903225806451,-8515.290322580646,-1628.1290322580646,2121.4193548387098,9
2024-06-15 14:06:50,0.976162672,0.1918116808,0.6487388611,-7.28555584,3.687070608,4.12999773,1367.16091954023,-63.18390804597701,4.816091954022989,-8224.057471264368,-1637.896551724138,2009.6091954022988,9
2024-06-15 14:06:50,0.976162672,0.1918116808,0.6487388611,-7.28555584,3.687070608,4.12999773,1506.0,259.7142857142857,-285.42857142857144,-7878.714285714285,-1273.857142857143,2263.428571428572,9
2024-06-15 14:06:50,0.6743952036,0.141720742,0.3579670191,-7.266402245,4.046200752,3.828328609,1180.2183908045977,579.7816091954023,-183.79310344827587,-7988.264367816092,-960.551724137931,2030.3103448275865,9
2024-06-15 14:06:50,0.6316346526,0.2052507252,0.2370157093,-7.074865818,5.398924828,3.258508444,865.8620689655172,212.6551724137931,-141.31034482758622,-8167.310344827586,-932.5172413793103,2333.862068965517,9
2024-06-15 14:06:50,0.6316346526,0.2052507252,0.2370157093,-7.074865818,5.398924828,3.258508444,1134.050847457627,252.0,11.169491525423725,-8363.203389830509,-1044.3050847457628,2345.322033898305,9
2024-06-15 14:06:50,0.3103195429,0.1905899495,0.141720742,-7.16824007,5.865794182,2.494758129,1011.625,-89.30681818181819,-158.7159090909091,-8096.909090909091,-866.9659090909091,2318.954545454545,9
2024-06-15 14:06:51,0.3640756905,0.09285151958,0.1747074574,-7.127538681,6.06451273,1.946485996,-75.59770114942529,117.6264367816092,-199.70689655172413,-8256.770114942528,-1066.0862068965516,2147.137931034483,9
2024-06-15 14:06:51,0.3640756905,0.09285151958,0.1747074574,-7.127538681,6.06451273,1.946485996,64.47191011235955,40.30337078651687,-156.06741573033707,-8402.876404494382,-957.685393258427,2163.7640449438204,9
2024-06-15 14:06:51,0.1502728462,0.07696902007,0.08063421398,-7.041347027,5.928043365,1.668758631,322.6428571428572,-235.5,-482.2857142857143,-8147.0,-936.5714285714286,2001.142857142857,9
2024-06-15 14:06:51,0.05253441259,0.04520402849,0.1319468915,-7.163451672,6.282385349,1.601720929,-351.25,-799.625,-1029.125,-7844.125,-1456.125,2684.375,9
2024-06-15 14:06:51,0.2247984111,0.07330382615,0.1075122803,-6.830657482,6.141127586,1.388636947,-412.34653465346537,-611.5148514851485,-1032.2277227722773,-8006.891089108911,-1818.8910891089108,2497.4158415841584,9
2024-06-15 14:06:51,0.2247984111,0.07330382615,0.1075122803,-6.830657482,6.141127586,1.388636947,-549.9589041095891,-575.7397260273973,-1008.4109589041096,-8041.41095890411,-1789.6027397260275,2598.54794520548,9
2024-06-15 14:06:51,0.04764748737,-0.007330383174,0.03298672289,-6.713341713,6.576871872,1.019929886,-754.7534246575342,-439.4383561643836,-810.4657534246576,-7993.465753424657,-2052.6164383561645,2801.2876712328766,9
2024-06-15 14:06:51,0.04764748737,-0.007330383174,0.03298672289,-6.713341713,6.576871872,1.019929886,-938.4,-564.25,-552.5,-7632.55,-2408.0,2911.3,9
2024-06-15 14:06:51,0.02687807009,-0.00244346098,0.0171042271,-6.780379295,6.572083473,1.000776291,-1105.0326086956522,-338.2173913043478,-236.94565217391303,-7590.467391304348,-2269.9565217391305,2927.576086956521,9
2024-06-15 14:06:52,0.08307767659,-0.0171042271,0.0232128799,-6.696582317,6.514622688,1.142034173,-842.170731707317,-193.96341463414635,-147.53658536585365,-7762.365853658536,-2614.3658536585367,2694.792682926829,9
2024-06-15 14:06:52,0.08307767659,-0.0171042271,0.0232128799,-6.696582317,6.514622688,1.142034173,-788.6111111111111,-365.72222222222223,-281.22222222222223,-7774.0,-2632.055555555556,2694.1666666666665,9
2024-06-15 14:06:52,0.02199114859,-0.05742133409,0.01954768784,-6.84023428,6.667851925,0.8978256583,-601.3333333333334,-272.0,-296.3333333333333,-7641.666666666667,-2745.333333333333,2930.333333333333,9
2024-06-15 14:06:52,0.09040805697,-0.00244346098,0.004886921961,-6.756437302,6.660669327,0.8834604025,-592.7209302325581,-340.9651162790698,-76.20930232558139,-7571.46511627907,-2795.4651162790697,2899.686046511628,9
2024-06-15 14:06:52,0.09040805697,-0.00244346098,0.004886921961,-6.756437302,6.660669327,0.8834604025,-467.8409090909091,-178.5568181818182,-70.625,-7619.806818181818,-2845.818181818182,2759.340909090909,9
2024-06-15 14:06:52,0.0232128799,-0.01221730467,0.02565634064,-6.708553314,6.689399719,1.031900883,-320.39772727272725,-195.79545454545456,-91.42045454545456,-7706.806818181818,-2835.7727272727275,2782.9886363636365,9
2024-06-15 14:06:52,0.0232128799,-0.01221730467,0.02565634064,-6.708553314,6.689399719,1.031900883,-91.95505617977528,35.921348314606746,-95.07865168539324,-7722.516853932584,-2681.123595505618,2800.7640449438204,9
2024-06-15 14:06:52,-0.1710422635,-0.03176499158,-0.05253441259,-6.713341713,6.579266071,0.7685387731,170.4777777777778,-6.011111111111106,60.266666666666666,-7733.022222222222,-2489.222222222222,2973.011111111111,9
2024-06-15 14:06:52,-0.1954768747,-0.01588249579,-0.03298672289,-6.672640324,6.43321991,1.134851575,143.27586206896552,-57.58620689655172,71.26436781609195,-7761.425287356322,-2654.885057471264,3089.7241379310344,9
2024-06-15 14:06:52,-0.1954768747,-0.01588249579,-0.03298672289,-6.672640324,6.43321991,1.134851575,294.8571428571429,201.8021978021978,66.12087912087912,-7774.461538461538,-2607.7912087912086,2805.7912087912086,9
2024-06-15 14:06:53,-0.4789183438,-0.05375614017,-0.09285151958,-6.43321991,6.31829834,1.632845521,291.7011494252873,-7.908045977011511,24.1264367816092,-7798.850574712644,-2637.1609195402298,2794.632183908046,9
2024-06-15 14:06:53,-0.770911932,-0.04642575979,-0.3408628106,-6.009446144,5.983109951,1.802833915,-28.47058823529412,-58.94117647058823,90.26470588235294,-7793.764705882353,-2618.029411764706,2774.823529411765,9
2024-06-15 14:06:53,-0.770911932,-0.04642575979,-0.3408628106,-6.009446144,5.983109951,1.802833915,-40.23529411764706,-57.47058823529412,96.88235294117646,-7612.882352941177,-2618.764705882353,2770.4117647058824,9
2024-06-15 14:06:53,-1.798387289,-0.3530801237,-1.253495455,-6.088454723,4.225766182,3.145981073,-51.7032967032967,-29.142857142857142,79.98901098901099,-7570.780219780219,-2520.670329670329,2769.362637362637,9
2024-06-15 14:06:53,-2.555860281,-0.2199114859,-1.329242826,-9.13866806,-0.1388636976,5.901707172,-267.77777777777777,94.01234567901234,-104.82716049382717,-7791.765432098766,-2575.0864197530864,2790.456790123457,9
2024-06-15 14:06:53,-2.555860281,-0.2199114859,-1.329242826,-9.13866806,-0.1388636976,5.901707172,-325.48,-111.04,-45.44,-7742.72,-2574.4,2781.96,9
2024-06-15 14:06:53,-1.253495455,0.08429940045,-0.3494149148,-8.872911453,-2.901772499,5.379771233,-340.9085714285714,-94.46857142857144,-20.29714285714286,-7630.148571428572,-2565.828571428572,2769.96,9
2024-06-15 14:06:53,-1.253495455,0.08429940045,-0.3494149148,-8.872911453,-2.901772499,5.379771233,-324.33333333333337,46.5,8.0,-7746.222222222223,-2368.111111111112,2794.3888888888887,9
2024-06-15 14:06:53,0.4031710625,0.07696902007,0.1747074574,-8.688557625,-2.298433542,4.79079771,-377.6666666666667,68.16666666666667,28.0,-7802.333333333333,-2287.0,2805.5,9
2024-06-15 14:06:53,0.6511823535,-0.0171042271,0.09407325089,-8.652645111,-1.137245774,4.544194698,-172.8409090909091,96.54545454545456,-306.77272727272725,-7773.318181818182,-2617.818181818182,2777.5454545454545,9
2024-06-15 14:06:54,0.6511823535,-0.0171042271,0.09407325089,-8.652645111,-1.137245774,4.544194698,18.55434782608696,-66.94565217391305,99.83695652173913,-7796.369565217391,-2680.9347826086955,2717.4565217391305,9
2024-06-15 14:06:54,1.055575132,-0.1001819,0.2748893499,-8.367734909,-1.00556469,4.771644115,319.7931034482759,274.86206896551727,-16.379310344827587,-7580.689655172414,-2612.344827586207,2739.0344827586205,9
2024-06-15 14:06:54,1.055575132,-0.1001819,0.2748893499,-8.367734909,-1.00556469,4.771644115,306.0470588235294,199.43529411764703,-365.1058823529412,-7582.882352941177,-2255.435294117647,2763.2235294117645,9
2024-06-15 14:06:54,1.067792416,-0.06108652428,0.3921754956,-7.793126583,0.4644751251,4.742913723,-173.6741573033708,-16.224719101123597,-350.1460674157304,-7570.067415730337,-2374.505617977528,2747.6516853932585,9
2024-06-15 14:06:54,0.8051204085,0.08063421398,0.3885102868,-8.171410561,2.358288765,4.692635536,-236.48275862068965,-44.93103448275862,-323.8965517241379,-7667.931034482759,-2629.689655172414,2697.7241379310344,9
2024-06-15 14:06:54,0.8051204085,0.08063421398,0.3885102868,-8.171410561,2.358288765,4.692635536,-194.3370786516854,-90.3370786516854,91.71910112359552,-7570.786516853933,-2652.044943820225,2869.6629213483147,9
2024-06-15 14:06:54,0.6670648456,0.009773843922,0.3579670191,-7.864952564,2.923320293,4.338293552,-194.8,116.3,109.9,-7573.8,-2653.9,2892.5,9
2024-06-15 14:06:54,0.5619960427,-0.00122173049,0.1759291887,-7.572859764,4.290409565,3.885789394,-457.2352941176471,-232.7058823529412,40.70588235294117,-7559.058823529412,-2495.235294117647,2924.6470588235293,9
2024-06-15 14:06:54,0.5619960427,-0.00122173049,0.1759291887,-7.572859764,4.290409565,3.885789394,-880.7142857142857,-175.28571428571428,104.6904761904762,-7778.285714285715,-2552.2619047619046,2880.095238095238,9
2024-06-15 14:06:54,0.531452775,-0.03909537569,0.1466076523,-7.54891777,4.280832767,3.842693806,12.217391304347826,22.13043478260869,63.434782608695656,-7773.0,-2469.913043478261,2929.4347826086955,9
2024-06-15 14:06:55,0.4825835526,0.04520402849,0.2138028294,-7.28555584,4.759673119,3.390189648,-15.483516483516482,38.18681318681318,-271.2197802197802,-7752.186813186813,-2642.923076923077,2913.835164835165,9
2024-06-15 14:06:55,0.4825835526,0.04520402849,0.2138028294,-7.28555584,4.759673119,3.390189648,-431.0119047619048,-57.54761904761905,-309.4404761904762,-7774.797619047619,-2941.440476190476,2868.214285714286,9
2024-06-15 14:06:55,0.3139847219,0.06841690838,0.1649336219,-7.364564419,5.372588634,3.016694069,-353.84444444444443,-14.955555555555556,-269.8666666666667,-7601.0,-3034.777777777778,2841.777777777778,9
2024-06-15 14:06:55,0.3139847219,0.06841690838,0.1649336219,-7.364564419,5.372588634,3.016694069,208.1123595505618,-27.97752808988764,-197.31460674157304,-7475.157303370786,-3092.4157303370785,2842.6404494382023,9
2024-06-15 14:06:55,0.3017674387,0.01954768784,0.1869247705,-7.165845871,5.418078423,2.516305923,415.8021978021978,160.8131868131868,103.57142857142856,-7710.758241758242,-2817.043956043956,2833.021978021978,9
2024-06-15 14:06:55,0.2528982162,0.09651670605,0.1356120855,-7.165845871,5.908889771,2.188300371,190.3023255813953,-30.5,289.30232558139534,-7615.279069767442,-2613.93023255814,2872.5,9
2024-06-15 14:06:55,0.2528982162,0.09651670605,0.1356120855,-7.165845871,5.908889771,2.188300371,292.9425287356322,17.080459770114942,-34.0,-7670.977011494253,-2529.4137931034484,2731.1264367816093,9
2024-06-15 14:06:55,0.1111774743,0.05986479297,0.09285151958,-6.931213856,5.91128397,2.118868589,363.5384615384616,248.7692307692308,-118.6153846153846,-7586.538461538462,-2524.692307692308,2770.769230769231,9
2024-06-15 14:06:55,0.1111774743,0.05986479297,0.09285151958,-6.931213856,5.91128397,2.118868589,-30.7093023255814,118.25581395348836,330.7906976744186,-7801.627906976744,-2189.7093023255816,2717.1976744186045,9
2024-06-15 14:06:55,0.2406809032,0.0293215327,0.01954768784,-6.979097843,6.246472359,1.623268723,109.8720930232558,82.5,537.4069767441861,-7637.03488372093,-2363.872093023256,2741.616279069768,9
2024-06-15 14:06:56,0.125838235,0.03054326214,0.06841690838,-6.902483463,6.768408298,1.654393315,72.28,43.48,333.76,-7620.24,-2332.08,2753.28,9
2024-06-15 14:06:56,0.125838235,0.03054326214,0.06841690838,-6.902483463,6.768408298,1.654393315,33.46938775510204,61.06122448979592,289.9387755102041,-7659.816326530612,-2324.530612244898,2789.326530612245,9
2024-06-15 14:06:56,0.1466076523,0.1123992056,0.09162978828,-6.715735912,6.31829834,1.261744261,39.59183673469388,48.81632653061224,268.8503401360544,-7663.21768707483,-2318.408163265306,2790.687074829932,9
2024-06-15 14:06:56,0.0171042271,-0.02199114859,0.01832595654,-6.99106884,6.50744009,1.237802267,-318.57471264367814,12.390804597701162,138.0,-7762.758620689655,-2391.8735632183907,2959.655172413793,9
2024-06-15 14:06:56,0.0171042271,-0.02199114859,0.01832595654,-6.99106884,6.50744009,1.237802267,-316.5681818181818,341.47727272727275,675.5,-7667.545454545455,-2342.1136363636365,2782.954545454545,9
2024-06-15 14:06:56,0.06108652428,0.04764748737,0.06108652428,-6.742072105,6.794744492,1.024718285,41.888888888888886,334.26666666666665,783.3222222222222,-8009.733333333334,-2146.8555555555554,2916.1,9
2024-06-15 14:06:56,0.06108652428,0.04764748737,0.06108652428,-6.742072105,6.794744492,1.024718285,-353.29213483146066,240.07865168539325,496.0337078651685,-8011.370786516853,-1946.3258426966293,2915.561797752809,9
2024-06-15 14:06:56,0.1563815027,-0.02809980139,0.00122173049,-6.591237068,6.519411087,1.017535686,-111.29411764705884,46.87058823529412,617.4470588235295,-7815.917647058824,-1529.6470588235295,2885.917647058824,9
2024-06-15 14:06:56,0.07696902007,-0.01588249579,0.01343903504,-6.698976517,6.737283707,0.720654726,47.62921348314607,34.056179775280896,239.2247191011236,-7841.146067415731,-1468.629213483146,2727.741573033708,9
2024-06-15 14:06:56,0.07696902007,-0.01588249579,0.01343903504,-6.698976517,6.737283707,0.720654726,197.2289156626506,-104.33734939759036,-324.3132530120482,-8012.120481927711,-1642.6024096385545,2757.373493975904,9
2024-06-15 14:06:57,-0.0293215327,0.01588249579,-0.04031710699,-6.864176273,6.816292286,0.7661445141,-236.20652173913044,9.891304347826086,-327.25,-7882.923913043478,-1519.9673913043478,2694.586956521739,9
2024-06-15 14:06:57,0.1197295859,0.01221730467,0.06841690838,-6.780379295,6.631938934,0.5147533417,-342.69767441860466,47.34883720930232,-276.09302325581393,-7865.139534883721,-1476.0232558139537,2831.279069767442,9
2024-06-15 14:06:57,0.1197295859,0.01221730467,0.06841690838,-6.780379295,6.631938934,0.5147533417,-313.0833333333333,-351.95,-534.6833333333333,-8001.616666666667,-1828.9666666666667,2757.6,9
2024-06-15 14:06:57,0.1001819,-0.01343903504,-0.007330383174,-6.698976517,6.667851925,0.6655880809,-493.6388888888889,-363.6166666666667,-575.2388888888889,-7957.727777777778,-1703.411111111111,2784.266666666667,9
2024-06-15 14:06:57,-0.05864306539,0.009773843922,0.02687807009,-6.636727333,6.83784008,0.4860229492,-561.8888888888889,99.25925925925928,68.70370370370371,-7706.777777777777,-2025.5185185185185,2726.8888888888887,9
2024-06-15 14:06:57,-0.05864306539,0.009773843922,0.02687807009,-6.636727333,6.83784008,0.4860229492,242.84615384615387,308.53846153846155,540.6923076923077,-8048.538461538462,-1900.7692307692307,2717.538461538461,9
2024-06-15 14:06:57,-0.01343903504,0.04398229718,-0.009773843922,-6.569689274,6.811503887,0.5506663918,320.14130434782606,233.0217391304348,494.2608695652174,-7833.586956521739,-1425.9347826086955,2736.478260869565,9
2024-06-15 14:06:57,-0.01343903504,0.04398229718,-0.009773843922,-6.569689274,6.811503887,0.5506663918,-238.41666666666663,252.5,396.8333333333333,-8039.916666666667,-1576.5833333333333,2906.75,9
2024-06-15 14:06:57,-0.03298672289,0.01466076635,-0.01221730467,-6.600813866,6.890512466,0.349553436,34.48275862068965,446.6206896551725,610.4827586206897,-7883.310344827586,-1478.8620689655172,2543.551724137931,9
2024-06-15 14:06:57,-0.1857030392,-0.07452555746,-0.106290549,-6.476315498,6.404489517,0.5650315881,-105.71910112359552,622.6179775280899,291.685393258427,-8236.808988764045,-1167.584269662921,2604.224719101124,9
2024-06-15 14:06:58,-0.1857030392,-0.07452555746,-0.106290549,-6.476315498,6.404489517,0.5650315881,22.57142857142857,289.42857142857144,134.5,-8103.238095238095,-1396.142857142857,2419.333333333333,9
2024-06-15 14:06:58,-0.2736676335,-0.06841690838,-0.08796459436,-6.821080685,6.770802498,1.110909581,162.3932584269663,322.5280898876405,-59.84269662921348,-8146.528089887641,-1264.0224719101125,2615.9101123595506,9
2024-06-15 14:06:58,-0.7073819637,-0.109955743,-0.2235766798,-6.653486729,6.014234543,1.33835876,614.3786407766991,109.46601941747574,-215.35922330097088,-8201.961165048544,-1319.0388349514562,2507.78640776699,9
2024-06-15 14:06:58,-0.7073819637,-0.109955743,-0.2235766798,-6.653486729,6.014234543,1.33835876,913.3684210526316,158.3815789473684,-592.8421052631579,-7875.763157894737,-1241.9868421052631,2593.4736842105262,9
2024-06-15 14:06:58,-1.605353832,-0.3445279896,-0.6389650702,-6.016628742,6.270414352,1.805228114,490.56043956043953,407.4945054945055,-545.6153846153846,-7915.857142857143,-1385.065934065934,2582.2967032967035,9
2024-06-15 14:06:58,-1.605353832,-0.3445279896,-0.6389650702,-6.016628742,6.270414352,1.805228114,615.4494382022472,441.9550561797753,-339.70786516853934,-8527.741573033707,-1191.5505617977528,1966.584269662921,9
2024-06-15 14:06:58,-2.750115395,-0.5852088928,-1.905899525,-5.430049419,1.280897856,2.78924489,825.5,-178.125,-369.625,-7926.75,-1354.5,2216.25,9
2024-06-15 14:06:58,-2.625498772,-0.6707300544,-2.830749512,-6.110002518,-5.583278179,4.920084476,-401.2183908045977,36.37931034482759,-533.5977011494252,-8256.505747126437,-1014.425287356322,2363.689655172414,9
2024-06-15 14:06:58,-2.625498772,-0.6707300544,-2.830749512,-6.110002518,-5.583278179,4.920084476,-758.6703910614525,-573.3631284916202,-309.75977653631287,-8458.363128491621,-1068.0893854748604,2331.4804469273745,9
2024-06-15 14:06:58,-1.027475357,-1.016479731,-2.68902874,-4.302380562,-8.896853447,5.032611847,-1006.2967032967032,-645.9120879120879,-74.92307692307692,-8286.186813186814,-1346.2307692307693,2294.230769230769,9
