Timestamp,Gyro_x_x,Gyro_y_x,Gyro_z_x,Acc_x_x,Acc_y_x,Acc_z_x,Gyro_x_y,Gyro_y_y,Gyro_z_y,Acc_x_y,Acc_y_y,Acc_z_y,combined_action_num
2024-06-15 13:51:02,-0.007330383174,-0.03176499158,0.03298672289,0.9959878922,2.224213362,9.301473618,964.0192307692308,3228.5096153846152,575.0384615384615,-8031.528846153846,-2545.471153846154,2572.423076923077,5
2024-06-15 13:51:02,-0.2846632004,0.1148426682,0.1893682331,1.259350061,2.078166962,9.267954826,-763.0,339.41176470588243,1321.8823529411766,-8127.529411764706,-2709.9411764705883,2614.235294117647,5
2024-06-15 13:51:02,-1.832595706,0.08185594529,-0.3090978265,1.927332401,2.614468336,7.240066051,-434.9087136929461,41.539419087136935,514.9128630705394,-7514.448132780083,-2537.244813278008,2517.9460580912864,5
2024-06-15 13:51:02,-1.832595706,0.08185594529,-0.3090978265,1.927332401,2.614468336,7.240066051,-302.8723404255319,81.35460992907801,357.5177304964539,-7492.687943262411,-2633.397163120568,2532.3829787234044,5
2024-06-15 13:51:02,-2.472782612,-1.798387289,-2.723237276,3.557783842,1.774103403,6.232107162,-746.3521126760563,277.53521126760563,-457.3802816901408,-7668.154929577465,-2523.87323943662,2578.225352112676,5
2024-06-15 13:51:02,-2.537534237,-3.838677168,-5.897293091,21.32515526,-1.347935557,5.75805521,-963.0094339622642,64.68867924528303,-707.6886792452831,-7624.7169811320755,-3021.943396226415,2501.8584905660377,5
2024-06-15 13:51:02,-2.537534237,-3.838677168,-5.897293091,21.32515526,-1.347935557,5.75805521,-500.030303030303,-472.8080808080808,-427.3939393939394,-7701.969696969697,-2761.717171717172,2678.181818181818,5
2024-06-15 13:51:02,-2.245540619,-0.9382890463,-0.9578366876,12.43308926,-2.425326347,2.643198729,-1035.048076923077,-441.21153846153845,-417.4326923076923,-7783.3557692307695,-2777.7403846153848,2885.346153846154,5
2024-06-15 13:51:02,-2.245540619,-0.9382890463,-0.9578366876,12.43308926,-2.425326347,2.643198729,-1101.1941747572816,-415.1553398058253,-798.2038834951456,-7322.339805825242,-3051.640776699029,2825.0291262135925,5
2024-06-15 13:51:03,1.600466967,-0.88086766,-0.1514945775,9.354146004,-2.808398485,3.205836058,1419.009708737864,1495.106796116505,2145.3009708737864,-6650.708737864078,-3627.815533980583,2879.8252427184466,5
2024-06-15 13:51:03,0.1979203373,0.5106833577,2.831971169,13.20402241,-0.1053448766,3.806780815,3308.893203883495,3807.6116504854367,3656.669902912621,-8036.990291262135,-2029.1747572815527,1913.0873786407767,5
2024-06-15 13:51:03,0.1979203373,0.5106833577,2.831971169,13.20402241,-0.1053448766,3.806780815,1625.1654676258993,1501.1079136690648,1687.726618705036,-8602.654676258993,-1016.9208633093524,1504.6618705035971,5
2024-06-15 13:51:03,0.2394591719,1.927890658,2.735454559,9.619902611,0.3136404157,4.022258759,-225.7611940298508,235.38805970149247,270.97014925373134,-8502.716417910447,-1014.55223880597,1397.0746268656717,5
2024-06-15 13:51:03,-0.07696902007,0.5778785348,-0.8491026759,7.577648163,-0.3112462163,3.162740469,-829.0582524271845,-73.5631067961165,-796.873786407767,-8529.757281553399,-1800.0388349514562,1271.6601941747572,5
2024-06-15 13:51:03,-0.07696902007,0.5778785348,-0.8491026759,7.577648163,-0.3112462163,3.162740469,-1540.578431372549,-812.4607843137255,-1356.3921568627452,-8149.382352941177,-2411.205882352941,1503.5686274509803,5
2024-06-15 13:51:03,-2.867401361,-0.5424483418,-2.932153225,11.71722317,-2.564189911,2.559401512,-1716.537037037037,-996.8518518518518,-1566.6574074074074,-8293.648148148148,-2588.222222222222,1440.425925925926,5
2024-06-15 13:51:03,-2.867401361,-0.5424483418,-2.932153225,11.71722317,-2.564189911,2.559401512,-1324.0618556701031,-1665.0,-1530.9690721649486,-7590.164948453608,-2759.979381443299,2158.0,5
2024-06-15 13:51:03,-0.4166100919,-0.5094616413,-2.658485651,11.14261436,-1.479616642,3.150769472,-1028.106796116505,-1082.7184466019417,-490.873786407767,-7594.504854368932,-3175.242718446602,2076.0,5
2024-06-15 13:51:03,-1.661553502,0.0415388383,-0.9346238375,8.875306129,-2.667140722,3.806780815,-762.0093457943925,-1295.2990654205607,-108.5607476635514,-7923.242990654206,-3313.196261682243,2086.3177570093458,5
2024-06-15 13:51:04,-1.661553502,0.0415388383,-0.9346238375,8.875306129,-2.667140722,3.806780815,1389.826923076923,-190.8653846153846,459.8269230769231,-7864.336538461538,-3140.8846153846152,2176.663461538461,5
2024-06-15 13:51:04,0.1331686229,-0.2651155293,0.1893682331,9.856928825,-0.8499416113,6.998251438,1680.0,-720.3333333333333,251.3333333333333,-8115.0,-2590.333333333333,2637.6666666666665,5
2024-06-15 13:51:04,0.1331686229,-0.2651155293,0.1893682331,9.856928825,-0.8499416113,6.998251438,726.62,-2517.2,-712.36,-7406.26,-2260.18,3226.98,5
2024-06-15 13:51:04,-1.932777643,0.7745771408,1.694540143,8.28633213,-1.750161409,6.986280441,-307.8557692307692,-2244.355769230769,916.9519230769232,-6946.576923076923,-2243.548076923077,4100.182692307692,5
2024-06-15 13:51:04,0.6817256212,0.3677408695,1.001819015,7.594407558,-1.534683347,5.023035049,-1006.5533980582524,-206.252427184466,1839.0485436893205,-7020.970873786408,-1860.3689320388348,4184.359223300971,5
2024-06-15 13:51:04,0.6817256212,0.3677408695,1.001819015,7.594407558,-1.534683347,5.023035049,-1531.1747572815534,-646.3786407766991,1040.009708737864,-7266.203883495145,-1281.621359223301,4059.621359223301,5
2024-06-15 13:51:04,0.4166100919,-0.2700024247,0.125838235,8.085219383,-0.653617084,4.156333923,-1891.432835820896,-1131.313432835821,1726.8955223880598,-7863.701492537313,-1075.0,4821.776119402985,5
2024-06-15 13:51:04,-0.342084527,-0.8894197941,-1.177748203,8.346187592,-0.2896983922,5.224148273,-1766.3561643835617,-684.8904109589041,1114.986301369863,-7625.191780821918,-1262.7808219178082,4925.438356164384,5
2024-06-15 13:51:04,-0.342084527,-0.8894197941,-1.177748203,8.346187592,-0.2896983922,5.224148273,-527.1538461538462,381.0769230769231,-766.0,-6951.0,-1545.5384615384614,4218.0,5
2024-06-15 13:51:04,0.1356120855,-1.051909924,-1.929112434,10.97741508,-1.261744261,4.355052948,1098.3980582524273,344.2135922330097,-468.0,-7881.194174757282,-2177.8252427184466,4341.378640776699,5
2024-06-15 13:51:05,0.4776966274,-0.2015855312,-0.2370157093,9.457097054,-2.114080191,4.357447147,1458.190476190476,-104.51428571428572,-752.6095238095238,-7559.895238095238,-1953.4666666666667,4128.828571428571,5
2024-06-15 13:51:05,0.4776966274,-0.2015855312,-0.2370157093,9.457097054,-2.114080191,4.357447147,1224.4174757281553,-204.4368932038835,-1125.0679611650485,-7151.961165048544,-2032.0873786407767,4370.912621359224,5
2024-06-15 13:51:05,1.320690632,0.3090978265,0.9810495973,11.62145519,-1.685518026,3.124433279,1979.1960784313728,320.7352941176471,-608.1274509803922,-7286.568627450981,-1547.372549019608,4023.245098039216,5
2024-06-15 13:51:05,1.320690632,0.3090978265,0.9810495973,11.62145519,-1.685518026,3.124433279,1124.8316831683169,492.86138613861385,-103.03960396039604,-7406.118811881188,-1401.920792079208,4191.9009900990095,5
2024-06-15 13:51:05,-0.1026253626,0.7305948138,2.386039734,10.13944435,-0.8714894056,2.82036972,218.0990099009901,286.1188118811881,-641.1584158415842,-7323.633663366337,-1555.4653465346537,4314.544554455446,5
2024-06-15 13:51:05,0.770911932,0.08552113175,1.255938888,9.038111687,-1.242590666,3.071760893,-1334.378640776699,-182.05825242718447,-254.61165048543688,-7161.436893203883,-2067.883495145631,4281.747572815534,5
2024-06-15 13:51:05,0.770911932,0.08552113175,1.255938888,9.038111687,-1.242590666,3.071760893,-1524.0857142857144,28.285714285714285,-303.48571428571427,-7120.085714285714,-2309.285714285714,4129.0,5
2024-06-15 13:51:05,0.5351179838,-0.5277875662,-0.5766568184,8.894459724,-0.490811348,3.859453201,930.1773399014778,1106.7339901477833,-536.6108374384237,-7160.330049261083,-2807.15763546798,3953.768472906404,5
2024-06-15 13:51:05,-0.8442157507,-0.5998696685,-1.79472208,10.69489861,-1.280897856,3.548206806,1010.0,911.2857142857144,-567.6190476190476,-7220.238095238095,-2744.904761904762,3927.095238095238,5
2024-06-15 13:51:05,-0.8442157507,-0.5998696685,-1.79472208,10.69489861,-1.280897856,3.548206806,749.8085106382979,282.1595744680851,-401.3085106382979,-7771.372340425532,-1970.787234042553,3929.542553191489,5
2024-06-15 13:51:06,-0.7073819637,-0.1478293836,-1.45019412,10.29985619,-1.774103403,3.351882458,-366.0291262135922,-482.1456310679612,-64.07766990291262,-7627.912621359223,-1990.9223300970875,3940.233009708738,5
2024-06-15 13:51:06,-0.4850270152,0.2003637999,0.04520402849,9.358934402,-2.221819162,3.543418407,374.970297029703,55.10891089108911,-163.14851485148515,-7495.495049504951,-2022.148514851485,3853.108910891089,5
2024-06-15 13:51:06,0.428827405,0.3445279896,1.214400053,9.806650162,-1.683123827,3.79241538,-456.2692307692308,-414.96153846153845,352.53846153846155,-7495.7692307692305,-2152.538461538461,4339.5,5
2024-06-15 13:51:06,0.428827405,0.3445279896,1.214400053,9.806650162,-1.683123827,3.79241538,-2121.960784313725,-1415.2549019607843,778.0882352941177,-7505.686274509804,-2071.0392156862745,4318.676470588235,5
2024-06-15 13:51:06,0.3628539443,0.6902777553,1.51005888,9.799467087,-0.1604115069,4.544194698,-1766.9245283018868,-852.5849056603773,1250.3962264150944,-6883.11320754717,-2588.0943396226417,4653.905660377359,5
2024-06-15 13:51:06,0.08307767659,0.5473352671,0.3799581826,8.398859978,0.1436520964,4.522646904,320.0693069306931,731.8613861386139,-164.10891089108907,-7124.910891089109,-2386.0495049504952,4398.009900990099,5
2024-06-15 13:51:06,0.08307767659,0.5473352671,0.3799581826,8.398859978,0.1436520964,4.522646904,998.2761904761904,714.1333333333333,-999.7714285714286,-7102.990476190476,-2024.8190476190475,4062.695238095238,5
2024-06-15 13:51:06,-0.0415388383,-0.3298672438,-1.059240341,9.595960617,-0.1675941199,4.57531929,520.3706293706293,-134.37062937062933,-944.083916083916,-7307.174825174825,-2258.146853146853,4534.048951048952,5
2024-06-15 13:51:06,-0.0415388383,-0.3298672438,-1.059240341,9.595960617,-0.1675941199,4.57531929,993.548387096774,135.22580645161293,-1254.258064516129,-7084.677419354839,-2287.935483870968,4537.548387096775,5
2024-06-15 13:51:07,-0.7305948138,-0.7000515461,-1.674992561,9.071630478,-0.2322375625,4.345476151,475.8878504672897,719.8130841121496,-938.8971962616822,-7170.551401869159,-1978.859813084112,4444.261682242991,5
2024-06-15 13:51:07,-0.2150245607,0.2089159191,-0.8038986921,8.700529099,-2.734178305,5.401319027,-1502.142857142857,168.57142857142856,-551.0,-7306.714285714285,-2036.428571428572,4371.571428571428,5
2024-06-15 13:51:07,-0.2150245607,0.2089159191,-0.8038986921,8.700529099,-2.734178305,5.401319027,-2065.18,-115.84,-14.060000000000002,-6725.06,-3171.98,4222.56,5
2024-06-15 13:51:07,-0.9480628371,0.1356120855,1.125213742,8.786720276,-3.406949043,4.75249052,-212.65,1355.55,-557.9,-6961.7,-3620.05,4090.35,5
2024-06-15 13:51:07,-2.414139509,-0.3176499307,2.247984171,8.939949036,-3.53384161,3.629609823,-92.35588235294117,1425.2558823529412,-530.2529411764706,-6902.288235294118,-3616.2264705882353,3998.8794117647058,5
2024-06-15 13:51:07,-2.414139509,-0.3176499307,2.247984171,8.939949036,-3.53384161,3.629609823,27.938235294117646,1494.9617647058824,-502.6058823529412,-6842.876470588235,-3612.4029411764704,3907.408823529412,5
2024-06-15 13:51:07,-1.189965487,-0.9419541955,1.904677868,7.278373241,-6.246472359,2.607285738,1680.578947368421,1960.9736842105265,-1187.3947368421052,-7262.210526315789,-3359.842105263158,3559.894736842105,5
2024-06-15 13:51:07,-1.189965487,-0.9419541955,1.904677868,7.278373241,-6.246472359,2.607285738,126.64150943396228,223.73584905660377,366.1132075471698,-7353.320754716981,-2880.754716981132,3358.396226415094,5
2024-06-15 13:51:07,-1.521054506,-0.2602286041,0.6133087277,8.140285492,-7.184999466,1.11569798,-2.378378378378378,262.97297297297297,373.1081081081081,-7323.351351351352,-2878.7297297297296,3349.945945945946,5
2024-06-15 13:51:07,-0.1490511149,0.8466592431,-0.5497786999,7.134721279,-6.813898087,2.959233284,-28.92156862745098,-42.00980392156863,298.1470588235294,-7359.970588235294,-2810.058823529412,3367.303921568628,5
2024-06-15 13:51:08,-0.1490511149,0.8466592431,-0.5497786999,7.134721279,-6.813898087,2.959233284,440.0769230769231,173.84615384615384,-856.6923076923076,-7192.076923076923,-3252.3076923076924,3300.769230769231,5
2024-06-15 13:51:08,4.166100979,0.8625417352,-2.621833563,9.770736694,-6.251260757,1.867477298,-2385.205882352941,-1907.3921568627447,1486.0882352941176,-7457.823529411765,-3113.7843137254904,3337.9411764705883,5
2024-06-15 13:51:08,-1.668883801,-0.5448917747,-0.9566149712,9.607931137,-2.633621931,2.159569979,-1173.8,-634.2,1506.6,-7220.8,-3022.4,3253.4,5
2024-06-15 13:51:08,-1.668883801,-0.5448917747,-0.9566149712,9.607931137,-2.633621931,2.159569979,-461.431654676259,-128.89208633093526,1835.2374100719423,-7588.237410071943,-1993.4892086330933,3276.0071942446043,5
2024-06-15 13:51:08,1.418429136,-0.8063421249,-2.317622662,9.742006302,-3.969586372,4.299986362,-868.6376811594203,-470.7246376811594,1941.0144927536232,-7624.855072463768,-2081.1014492753625,3281.1304347826085,5
2024-06-15 13:51:08,1.418429136,-0.8063421249,-2.317622662,9.742006302,-3.969586372,4.299986362,-2113.5714285714284,-995.4285714285714,2528.285714285714,-7572.0,-1475.857142857143,3247.714285714286,5
2024-06-15 13:51:08,0.1319468915,-0.1527163088,0.8991936445,9.54807663,-2.111685991,3.655946016,-2308.30612244898,-1523.8775510204082,1478.591836734694,-7655.65306122449,-1190.3265306122448,3702.061224489796,5
2024-06-15 13:51:08,-1.951103568,0.5510004759,2.38115263,12.44984913,-4.199429989,1.793257117,-904.6571428571428,-1156.8,496.57142857142856,-7566.8,-1326.9714285714283,4128.8,5
2024-06-15 13:51:08,-1.951103568,0.5510004759,2.38115263,12.44984913,-4.199429989,1.793257117,-1190.6285714285714,-687.9428571428572,-905.4285714285714,-7415.085714285714,-1532.3428571428572,4297.314285714286,5
2024-06-15 13:51:08,-4.761083603,-2.968805075,4.178318501,8.118738174,-9.974244118,-1.386242747,-1351.4901960784314,-271.29411764705884,-613.2941176470588,-7485.529411764706,-1954.6666666666667,4088.901960784314,5
2024-06-15 13:51:09,-4.761083603,-2.968805075,4.178318501,8.118738174,-9.974244118,-1.386242747,-1210.7757009345794,204.02803738317755,-479.7570093457944,-7379.14953271028,-2102.9719626168226,4099.9626168224295,5
2024-06-15 13:51:09,-2.243097067,-0.813672483,2.035403013,4.912901878,-9.320627213,-2.372653961,-831.1086956521739,-180.80434782608697,168.18478260869566,-7406.119565217391,-2386.4347826086955,3969.2934782608695,5
2024-06-15 13:51:09,0.8185594082,1.8411479,0.8417723179,-0.423773706,-6.02620554,0.1364694983,-52.97029702970298,-481.6831683168317,50.13861386138615,-7385.6435643564355,-2129.386138613861,4299.376237623763,5
2024-06-15 13:51:09,0.8185594082,1.8411479,0.8417723179,-0.423773706,-6.02620554,0.1364694983,1227.6521739130435,-487.9304347826087,-941.3652173913044,-6977.904347826087,-2047.2434782608696,4466.582608695652,5
2024-06-15 13:51:09,2.302962065,-1.254717231,-0.1954768747,0.8236053586,-5.035006046,-13.37401104,1519.7142857142858,-166.09890109890108,-1764.2747252747254,-7033.450549450549,-2199.318681318681,4760.417582417583,5
2024-06-15 13:51:09,2.824640989,-4.824613571,0.09651670605,-1.285686255,-8.865729332,-1.570596337,1494.1792452830189,257.2358490566038,-1440.6415094339625,-6802.132075471698,-2070.0377358490564,4527.990566037736,5
2024-06-15 13:51:09,2.824640989,-4.824613571,0.09651670605,-1.285686255,-8.865729332,-1.570596337,1611.6912751677853,669.6442953020135,-737.3087248322148,-7180.5302013422815,-2023.550335570469,4892.040268456376,5
2024-06-15 13:51:09,-2.569299221,-0.7916813493,0.6218608022,-0.8834604025,-18.8256073,8.164227486,1608.3355704697988,663.6040268456376,-940.6644295302012,-7153.684563758389,-2012.1409395973155,4922.912751677853,5
2024-06-15 13:51:09,-2.569299221,-0.7916813493,0.6218608022,-0.8834604025,-18.8256073,8.164227486,908.5454545454544,1332.2727272727273,-1359.3636363636365,-7137.0,-2362.5454545454545,4201.818181818182,5
2024-06-15 13:51:09,1.047023058,-0.01343903504,0.3958406746,-0.01675941236,-6.275202751,6.804321289,618.5094339622641,1167.0188679245284,-2060.245283018868,-6685.169811320755,-2643.943396226415,3842.075471698113,5
2024-06-15 13:51:10,-0.03054326214,0.01466076635,0.1918116808,-0.8595184088,-8.971074104,4.644751072,1649.8349514563106,1811.8640776699028,-427.5145631067961,-7474.902912621359,-2980.0873786407765,3504.009708737864,5
2024-06-15 13:51:10,-0.03054326214,0.01466076635,0.1918116808,-0.8595184088,-8.971074104,4.644751072,1438.2549019607843,1470.5588235294117,-590.343137254902,-7238.333333333333,-3019.3823529411766,3441.5,5
2024-06-15 13:51:10,-0.4630358517,-0.2944370508,-0.248011291,-0.8355764151,-9.490615845,2.892195702,1522.6,1505.68,-383.4,-7043.12,-3025.2,3334.52,5
2024-06-15 13:51:10,0.1307251602,0.1710422635,0.006108652335,-1.019929886,-8.523358345,4.039018154,1046.5094339622642,2052.056603773585,-295.188679245283,-7429.075471698113,-2985.22641509434,3074.509433962264,5
2024-06-15 13:51:10,0.1307251602,0.1710422635,0.006108652335,-1.019929886,-8.523358345,4.039018154,615.377358490566,1740.264150943396,2.452830188679229,-7780.018867924528,-2888.056603773585,2768.377358490566,5
2024-06-15 13:51:10,-0.04764748737,-0.1233947799,-0.06108652428,-0.4884171486,-9.437943459,4.235342979,184.2452830188679,1428.4716981132076,300.09433962264154,-8130.962264150943,-2790.8867924528304,2462.245283018868,5
2024-06-15 13:51:10,-0.04764748737,-0.1233947799,-0.06108652428,-0.4884171486,-9.437943459,4.235342979,56.87837837837839,369.8378378378378,45.40540540540542,-7718.567567567567,-2986.1824324324325,2749.304054054054,5
2024-06-15 13:51:10,0.0171042271,0.1869247705,0.08307767659,-0.5315127969,-9.423578262,4.067748547,17.78181818181821,-138.2909090909091,30.14545454545454,-7518.381818181818,-2728.181818181818,2618.163636363636,5
2024-06-15 13:51:10,0.04031710699,0.08429940045,0.1246165112,-1.271321058,-9.18894577,3.883395195,-475.87735849056605,377.8207547169811,1975.0566037735848,-7623.764150943396,-1817.6415094339625,2827.009433962264,5
2024-06-15 13:51:10,0.04031710699,0.08429940045,0.1246165112,-1.271321058,-9.18894577,3.883395195,-1723.8155339805826,728.4563106796116,2834.776699029126,-7572.941747572815,-1894.4368932038835,2902.009708737864,5
2024-06-15 13:51:11,0.196698606,-0.248011291,0.2113593817,-1.697489023,-8.923190117,4.039018154,-887.3047619047619,173.98095238095237,1131.0,-7875.695238095238,-1980.0,2272.514285714285,5
2024-06-15 13:51:11,0.6927211881,-0.2309070677,0.01588249579,-1.642422318,-7.687781811,4.917690277,717.8415841584158,-50.85148514851485,-703.1881188118812,-8032.742574257426,-1758.6336633663366,2275.2574257425745,5
2024-06-15 13:51:11,0.6927211881,-0.2309070677,0.01588249579,-1.642422318,-7.687781811,4.917690277,814.9811320754717,-65.32075471698113,-1026.0,-8213.716981132075,-1847.169811320755,2232.056603773585,5
2024-06-15 13:51:11,1.185078621,-0.684169054,-0.3946189582,-0.7015010715,-8.293514252,6.447585106,497.9148936170213,214.2659574468085,-1986.521276595745,-7676.659574468085,-2209.6702127659573,2126.5106382978724,5
2024-06-15 13:51:11,0.2858849466,0.04031710699,0.07086037099,0.4381389022,-7.900865555,7.752425194,276.7058823529412,745.9215686274509,-1452.5882352941176,-7945.529411764706,-2571.7843137254904,2058.1176470588234,5
2024-06-15 13:51:11,0.2858849466,0.04031710699,0.07086037099,0.4381389022,-7.900865555,7.752425194,-51.28502415458937,20.236714975845416,-750.6618357487923,-7882.371980676328,-2706.149758454106,2081.7971014492755,5
2024-06-15 13:51:11,0.2406809032,0.08796459436,-0.3762930036,0.4860229492,-7.527369976,7.479485989,-77.01869158878505,-132.2803738317757,-535.5700934579439,-8033.700934579439,-2745.0841121495328,2055.9345794392525,5
2024-06-15 13:51:11,0.2406809032,0.08796459436,-0.3762930036,0.4860229492,-7.527369976,7.479485989,-423.6938775510204,-641.8469387755102,952.2551020408164,-7721.867346938776,-3154.3469387755104,2375.0714285714284,5
2024-06-15 13:51:11,0.7953465581,0.4996877611,-0.5106833577,0.6464344859,-6.811503887,7.481880188,-399.7943925233645,-1521.214953271028,1578.8317757009345,-7818.887850467289,-2158.158878504673,2395.214953271028,5
2024-06-15 13:51:11,0.9211847782,0.7379252315,-1.0995574,1.165976286,-5.358223438,7.47469759,-396.1188811188811,-1121.8251748251748,1068.5944055944055,-7492.993006993007,-2530.237762237762,2871.755244755245,5
2024-06-15 13:51:12,0.9211847782,0.7379252315,-1.0995574,1.165976286,-5.358223438,7.47469759,224.1608391608392,-928.1188811188812,267.19580419580416,-7741.244755244756,-2189.678321678321,3060.5664335664337,5
2024-06-15 13:51:12,0.6426302195,0.4972442985,-1.37444675,0.5075707436,-5.54257679,8.183381081,-583.0,-827.0754716981132,373.2264150943397,-7973.301886792453,-1297.830188679245,3120.4150943396226,5
2024-06-15 13:51:12,0.6426302195,0.4972442985,-1.37444675,0.8140285611,-3.138798475,8.353369713,-1192.4432989690722,-791.7319587628866,556.2061855670103,-7638.711340206186,-1462.1649484536083,3343.2886597938145,5
2024-06-15 13:51:12,0.07696902007,0.2052507252,-0.7134906054,0.8140285611,-3.138798475,8.353369713,-2334.663461538461,-722.2019230769231,1083.875,-7721.6442307692305,-1598.576923076923,3592.394230769231,5
2024-06-15 13:51:12,-0.3371976018,0.1185078546,-0.3408628106,-0.3423708379,-2.549824715,9.325415611,-2381.298076923077,-734.2211538461538,1002.625,-7548.086538461538,-1604.3461538461538,3456.3365384615386,5
2024-06-15 13:51:12,-0.3371976018,0.1185078546,-0.3408628106,-0.3423708379,-2.549824715,9.325415611,-2293.0,-829.0,1199.0,-7705.5,-1557.5,3500.0,5
2024-06-15 13:51:12,0.02687807009,1.240056396,0.6670648456,0.04309562966,-7.632715225,10.53209305,-1303.6326530612246,-891.6734693877551,738.9591836734694,-7712.918367346939,-1398.65306122449,4074.530612244898,5
2024-06-15 13:51:12,-1.048244715,1.170417786,1.001819015,-3.414131641,-1.879448295,4.225766182,-1550.843137254902,-247.07843137254903,954.529411764706,-7705.058823529412,-909.7843137254902,4449.235294117647,5
2024-06-15 13:51:12,-1.048244715,1.170417786,1.001819015,-3.414131641,-1.879448295,4.225766182,-1156.4901960784314,429.6666666666666,1205.627450980392,-7412.235294117647,-877.5490196078431,3615.8627450980393,5
2024-06-15 13:51:12,-3.398854256,-0.6035348773,-1.551597714,1.125274777,-16.14170837,-2.63841033,-386.1698113207547,259.79245283018867,-56.43396226415095,-8239.452830188678,-1010.188679245283,4032.603773584906,5
2024-06-15 13:51:13,-3.398854256,-0.6035348773,-1.551597714,1.125274777,-16.14170837,-2.63841033,-262.25,47.13461538461539,-1053.9711538461538,-7227.028846153846,-1584.673076923077,3629.2115384615386,5
2024-06-15 13:51:13,-1.411098719,-1.295034289,-0.4105014503,0.05985504389,-10.35731697,2.607285738,-264.88235294117646,327.4117647058823,11.50980392156862,-8543.764705882353,-799.2352941176471,3426.686274509804,5
2024-06-15 13:51:13,0.5351179838,-0.5595525503,-0.009773843922,1.010353088,-9.825803757,1.039083481,-1091.4150943396226,-909.0283018867924,109.90566037735852,-7638.2169811320755,-1131.5754716981132,3548.103773584906,5
2024-06-15 13:51:13,0.5351179838,-0.5595525503,-0.009773843922,-0.3734954596,-8.901641846,1.036689281,-516.4653465346535,-415.9108910891089,-368.6732673267327,-7539.009900990099,-1196.2376237623762,3649.891089108911,5
2024-06-15 13:51:13,0.09896016866,0.3359758854,0.3640756905,-0.3734954596,-8.901641846,1.036689281,233.8571428571429,-188.57142857142856,230.0,-7875.142857142857,-1334.857142857143,3936.428571428572,5
2024-06-15 13:51:13,0.4691445231,0.3677408695,0.3824016452,-1.537077546,-9.047688484,1.570596337,-425.5820895522388,-488.3432835820896,727.4925373134329,-7608.149253731343,-1218.7462686567164,3798.477611940298,5
2024-06-15 13:51:13,0.4691445231,0.3677408695,0.3824016452,-1.537077546,-9.047688484,1.570596337,610.0980392156863,825.313725490196,104.7843137254902,-7625.137254901961,-1357.2745098039215,3413.86274509804,5
2024-06-15 13:51:13,0.2028072625,0.3237585723,0.5803219676,-2.398990154,-9.282320023,2.059013367,1829.5384615384608,1262.5961538461538,145.73076923076923,-8294.903846153846,-779.1730769230769,3343.8846153846152,5
2024-06-15 13:51:13,-0.4105014503,0.1820378453,-0.2174680233,-3.306392431,-6.397306919,1.934514999,822.8867924528302,427.688679245283,-156.81132075471697,-8126.820754716981,-761.4528301886793,3498.396226415094,5
2024-06-15 13:51:13,-0.4105014503,0.1820378453,-0.2174680233,-3.306392431,-6.397306919,1.934514999,55.51485148514851,-218.94059405940595,-1008.8712871287128,-7634.336633663366,-978.0891089108912,3530.8217821782177,5
2024-06-15 13:51:14,-0.9431759119,-0.393397212,-0.2235766798,-4.029441357,-9.873687744,-0.1915361285,-273.42857142857144,111.28571428571428,-2087.714285714286,-7733.571428571428,-1098.2857142857142,3468.714285714286,5
2024-06-15 13:51:14,-0.2370157093,-0.9065240026,0.09162978828,-3.361459255,-10.26154804,0.1268926859,-378.0,368.25,-2519.25,-7636.5,-1565.75,2988.0,5
2024-06-15 13:51:14,-0.2370157093,-0.9065240026,0.09162978828,-3.361459255,-10.26154804,0.1268926859,107.33566433566432,487.5804195804196,-653.986013986014,-8145.433566433567,-2202.888111888112,2843.6573426573427,5
2024-06-15 13:51:14,0.141720742,-0.6084218025,0.2944370508,-1.37427175,-9.844957352,1.199495077,266.0769230769231,114.15384615384612,98.46153846153844,-7871.307692307692,-2383.3076923076924,3108.692307692308,5
2024-06-15 13:51:14,0.141720742,-0.6084218025,0.2944370508,-1.37427175,-9.844957352,1.199495077,1690.6470588235295,-317.5882352941176,-702.1176470588235,-7635.088235294118,-1560.1764705882354,3619.941176470588,5
2024-06-15 13:51:14,0.02809980139,0.3689626157,-0.09040805697,-2.700659513,-9.821015358,0.6129156351,1186.0576923076924,-213.48076923076923,-831.0769230769231,-7061.903846153846,-2255.673076923077,3770.4615384615386,5
2024-06-15 13:51:14,1.348790407,0.6976081133,-0.02199114859,-2.054224968,-8.489839554,2.612074137,1386.2692307692307,-201.3846153846154,-1305.4615384615386,-7145.192307692308,-2288.788461538461,3780.576923076923,5
2024-06-15 13:51:14,1.348790407,0.6976081133,-0.02199114859,-2.054224968,-8.489839554,2.612074137,1549.7307692307693,-20.615384615384613,-1278.5384615384614,-7304.807692307692,-2578.2115384615386,3909.423076923077,5
2024-06-15 13:51:14,1.038470864,1.470963478,0.7073819637,-3.107673883,-10.42195988,1.920149803,953.6923076923076,320.9230769230769,-520.8461538461538,-7358.307692307692,-2283.153846153846,3928.153846153846,5
2024-06-15 13:51:14,1.038470864,1.470963478,0.7073819637,-3.107673883,-10.42195988,1.920149803,1797.8971962616822,217.6728971962617,-1065.214953271028,-7209.691588785046,-2535.280373831776,3945.11214953271,5
2024-06-15 13:51:15,0.5473352671,1.127657294,0.6536257863,-5.492298603,-7.979874134,1.491587639,1790.050505050505,-249.2525252525253,-777.7171717171717,-7433.777777777777,-2126.4848484848485,3971.121212121212,5
2024-06-15 13:51:15,0.3323107064,0.8002334833,-0.7428121567,-4.891354084,-2.758120298,2.729389906,168.82352941176475,-1048.4411764705883,-542.5294117647059,-7332.85294117647,-1918.7941176470588,4404.85294117647,5
2024-06-15 13:51:15,0.3323107064,0.8002334833,-0.7428121567,-4.891354084,-2.758120298,2.729389906,-2109.772277227723,-1982.8613861386136,-123.1980198019802,-7467.9009900990095,-2037.4356435643565,4328.128712871288,5
2024-06-15 13:51:15,-0.1270599663,0.1392772794,0.07574728876,-5.755661011,-7.893682957,0.02633621916,-2435.1153846153848,-1411.9615384615386,1327.6923076923076,-6972.788461538462,-2381.038461538461,4556.903846153846,5
2024-06-15 13:51:15,-0.1270599663,0.1392772794,0.07574728876,-3.186682463,-13.80017853,-3.349488258,-1872.5841584158416,-1719.6039603960396,2461.732673267327,-6868.079207920792,-2293.3465346534654,4443.099009900991,5
2024-06-15 13:51:15,-1.0531317,-0.01832595654,-1.106887817,-3.186682463,-13.80017853,-3.349488258,-2025.5346534653463,-573.1782178217823,1234.4851485148515,-6711.425742574257,-2724.128712871287,4687.247524752475,5
2024-06-15 13:51:15,-0.4202753007,-0.763581574,-0.3970624208,-3.852270603,-5.951985359,-0.1388636976,-1482.2340425531916,320.4397163120567,643.9716312056737,-7015.524822695035,-2130.6595744680853,4582.95744680851,5
2024-06-15 13:51:15,-0.4202753007,-0.763581574,-0.3970624208,-3.852270603,-5.951985359,-0.1388636976,-1381.2898550724638,461.28985507246375,577.2608695652174,-7171.463768115942,-2019.6521739130435,4605.521739130435,5
2024-06-15 13:51:15,0.1600466967,-1.134987593,-0.2382374406,-2.207453966,-10.88164711,-1.41018486,-1342.2380952380952,891.5714285714286,-911.295238095238,-7224.371428571429,-2338.0285714285715,3959.590476190476,5
2024-06-15 13:51:15,0.4935791194,-0.8368853927,-0.3469714522,-1.762132406,-10.64940929,1.211466074,-1191.875,676.6538461538462,-371.625,-7507.201923076923,-3192.8365384615386,3728.0096153846152,5
2024-06-15 13:51:16,0.4935791194,-0.8368853927,-0.3469714522,-1.762132406,-10.64940929,1.211466074,1422.766990291262,196.4368932038835,248.88349514563103,-7365.398058252427,-2675.0679611650485,4199.912621359224,5
2024-06-15 13:51:16,-0.6316346526,-0.2272418737,0.7672467232,-3.27287364,-8.437167168,0.6967126727,2194.386138613861,-277.38613861386136,-26.3960396039604,-7471.049504950495,-1530.881188118812,4416.019801980198,5
2024-06-15 13:51:16,-1.171639562,0.1392772794,-0.8344419003,0.2250549644,-13.33570385,-2.631227732,1415.6509433962265,-791.3018867924528,-456.4433962264151,-7547.88679245283,-1446.9245283018868,4674.688679245283,5
2024-06-15 13:51:16,-1.171639562,0.1392772794,-0.8344419003,0.2250549644,-13.33570385,-2.631227732,1813.8461538461536,-45.5,-1716.0,-6654.269230769231,-2159.1153846153848,4880.538461538462,5
2024-06-15 13:51:16,0.1209513173,-0.2858849466,-0.4312708676,-1.323993564,-10.76193619,-1.015141487,1386.571428571429,865.1428571428571,-946.5714285714286,-6939.285714285715,-1801.571428571429,5151.714285714285,5
2024-06-15 13:51:16,0.3359758854,-0.1197295859,0.8344419003,-2.394201756,-9.81143856,-0.2705447972,1108.5192307692307,774.5384615384615,-1082.0961538461538,-7000.2307692307695,-2129.3653846153848,5133.865384615385,5
2024-06-15 13:51:16,0.3359758854,-0.1197295859,0.8344419003,-2.394201756,-9.81143856,-0.2705447972,496.3529411764706,890.0,-1637.8823529411766,-7232.588235294118,-2319.1176470588234,4807.176470588235,5
2024-06-15 13:51:16,0.3029891551,0.1661553532,0.590095818,-3.303998232,-7.299921036,-0.2178723514,-590.0192307692307,-76.61538461538461,-2378.230769230769,-6349.288461538462,-2921.1153846153848,4617.9807692307695,5
2024-06-15 13:51:16,0.3029891551,0.1661553532,0.590095818,-3.303998232,-7.299921036,-0.2178723514,-640.9807692307693,92.6153846153846,-2339.769230769231,-6913.711538461538,-3176.8846153846152,4717.019230769231,5
2024-06-15 13:51:16,-1.747074604,0.9187413454,-1.334129691,-0.2705447972,-12.10987186,-3.016694069,-673.8,1247.4857142857145,685.6761904761904,-6712.895238095238,-3121.828571428571,3882.152380952381,5
2024-06-15 13:51:17,0.2186897546,0.6108652353,-0.6072000265,-2.525882721,-7.455543995,-0.5482721925,-970.7058823529412,1989.5294117647056,1710.6470588235295,-6854.941176470588,-3118.705882352941,3679.941176470588,5
2024-06-15 13:51:17,0.2186897546,0.6108652353,-0.6072000265,-2.525882721,-7.455543995,-0.5482721925,1228.2866242038217,3608.1592356687897,420.2547770700637,-6940.815286624204,-4046.9745222929937,2993.2101910828023,5
2024-06-15 13:51:17,-0.4251621962,-0.1343903542,-0.1050688252,-1.611297727,-10.28070164,-3.327940464,1386.248407643312,3751.4713375796177,149.5541401273885,-6874.573248407643,-3824.044585987261,3082.3821656050955,5
2024-06-15 13:51:17,-0.4251621962,-0.1343903542,-0.1050688252,-1.611297727,-10.28070164,-3.327940464,1109.4150943396226,3174.990566037736,-887.0849056603773,-7782.669811320755,-3474.490566037736,2804.0377358490564,5
2024-06-15 13:51:17,-0.3530801237,-0.3799581826,-0.2028072625,-0.55784899,-10.80024433,-2.619256735,-654.1359223300971,-1.7378640776698973,882.0873786407767,-7758.04854368932,-3143.5922330097087,2617.631067961165,5
2024-06-15 13:51:17,0.06475171447,-0.7073819637,-0.2614503205,-0.390254885,-9.651026726,-1.8602947,-920.8571428571428,-179.42857142857144,119.42857142857142,-7709.714285714285,-3021.1428571428573,2465.1428571428573,5
2024-06-15 13:51:17,0.06475171447,-0.7073819637,-0.2614503205,-0.390254885,-9.651026726,-1.8602947,-1247.2201834862385,-521.8073394495412,-381.11009174311926,-7791.339449541284,-3103.2844036697247,2589.871559633028,5
2024-06-15 13:51:17,0.1881465018,-0.6291912198,-0.2590068579,0.0287304204,-9.969455719,-2.145204782,-2013.1632653061224,-905.7346938775512,-19.142857142857142,-7505.265306122449,-3206.8979591836733,2543.408163265306,5
2024-06-15 13:51:17,0.1710422635,-0.4300491214,0.0293215327,0.316034615,-10.22563553,-2.257732153,-1575.200956937799,-681.2057416267943,-71.4401913875598,-7418.712918660287,-3374.196172248804,2452.717703349282,5
2024-06-15 13:51:17,0.1710422635,-0.4300491214,0.0293215327,0.316034615,-10.22563553,-2.257732153,-1243.4,-424.06666666666666,-25.6,-7062.4,-3521.4333333333334,2485.766666666667,5
2024-06-15 13:51:18,0.3445279896,0.05131268129,0.3164281845,1.328781962,-10.68292809,-1.235408068,320.29896907216494,-175.03092783505156,-248.4226804123712,-7358.40206185567,-3495.6494845360826,2598.113402061856,5
2024-06-15 13:51:18,0.3445279896,0.05131268129,0.3164281845,1.328781962,-10.68292809,-1.235408068,541.6666666666666,-551.5,1210.5,-7633.666666666667,-3257.5,2845.833333333333,5
2024-06-15 13:51:18,-0.2186897546,1.530828357,-0.03665191308,-0.4692635238,-9.835380554,-0.624886632,514.2156862745098,-558.8529411764706,1338.4411764705883,-7647.392156862745,-3323.676470588235,2854.1666666666665,5
2024-06-15 13:51:18,0.1380555481,1.138652802,0.916297853,-0.6847416759,-9.610325813,-2.420537949,1320.2079207920792,-934.5742574257424,1804.7029702970297,-7588.316831683168,-2515.3069306930693,2783.3168316831684,5
2024-06-15 13:51:18,0.1380555481,1.138652802,0.916297853,-0.6847416759,-9.610325813,-2.420537949,3083.8846153846152,-103.09615384615384,481.4519230769231,-7598.1442307692305,-1753.8942307692307,3116.5576923076924,5
2024-06-15 13:51:18,-0.6377432942,1.921782017,-0.145385921,-0.4644751251,-8.169015884,1.326387763,2071.794117647059,-486.2352941176471,-916.8823529411764,-7917.529411764706,-1247.264705882353,3663.352941176471,5
2024-06-15 13:51:18,-2.155132532,1.171639562,-0.4214970171,0.6895300746,-11.95903778,-7.012616634,79.24528301886792,-659.5283018867924,-763.0,-7994.283018867924,-1135.5849056603774,3632.924528301887,5
2024-06-15 13:51:18,-2.155132532,1.171639562,-0.4214970171,0.6895300746,-11.95903778,-7.012616634,-909.6060606060606,-997.181818181818,-776.060606060606,-7768.787878787879,-1487.4545454545455,3933.6969696969695,5
2024-06-15 13:51:18,0.4190535545,-2.003638029,-0.5974262357,-0.0287304204,-7.457938194,-5.015852451,-232.6509433962264,-222.18867924528303,586.9056603773585,-7698.301886792453,-1371.622641509434,4153.801886792453,5
2024-06-15 13:51:18,0.4190535545,-2.003638029,-0.5974262357,-0.0287304204,-7.457938194,-5.015852451,-497.745283018868,-141.05660377358492,677.4716981132076,-7428.490566037736,-1333.8867924528302,4133.990566037736,5
2024-06-15 13:51:19,0.07086037099,-2.663372517,-0.6963863969,3.847482204,-10.76911926,0.9433154464,-1784.78,-604.94,803.74,-7159.2,-1658.86,4146.66,5
2024-06-15 13:51:19,0.07452555746,0.9224064946,0.1050688252,2.765302896,-9.540893555,-0.8643068075,-1360.950495049505,35.26732673267327,326.3267326732673,-7408.811881188119,-2051.920792079208,4196.336633663366,5
2024-06-15 13:51:19,0.07452555746,0.9224064946,0.1050688252,2.765302896,-9.540893555,-0.8643068075,-727.7281553398059,-519.4271844660194,979.233009708738,-7217.029126213592,-972.8252427184466,3854.912621359224,5
2024-06-15 13:51:19,0.5338962078,0.2419026345,0.1111774743,-0.2035071403,-8.355764389,-6.088454723,-1530.0776699029127,-738.1165048543689,523.8058252427185,-7170.184466019417,-1929.611650485437,4477.116504854369,5
2024-06-15 13:51:19,-0.235793978,-1.363451242,-0.3677408695,2.19308877,-10.92234802,-1.221042871,-658.077922077922,-1312.8181818181818,1332.37012987013,-7861.032467532467,-1418.5584415584417,5449.805194805195,5
2024-06-15 13:51:19,-0.235793978,-1.363451242,-0.3677408695,2.19308877,-10.92234802,-1.221042871,-1098.8823529411766,-465.3725490196079,1599.8039215686274,-6783.509803921569,-613.8627450980392,4713.098039215686,5
2024-06-15 13:51:19,0.3970624208,0.9871582389,1.231504321,2.039859772,-9.667786598,-0.3926490843,-814.4485981308411,692.6168224299065,208.6728971962617,-7257.906542056075,-1133.261682242991,4267.018691588785,5
2024-06-15 13:51:19,0.3970624208,0.9871582389,1.231504321,2.039859772,-9.667786598,-0.3926490843,-133.35,55.14,430.26,-7697.68,-1348.65,4616.02,5
2024-06-15 13:51:19,-0.05619960278,0.8515461683,0.5778785348,-0.2705447972,-7.874529362,-6.284779549,-111.12676056338027,915.4507042253522,781.4084507042254,-7308.852112676056,-699.387323943662,4113.366197183099,5
2024-06-15 13:51:19,-0.4459316432,-0.9346238375,-0.9407324791,-0.8571242094,-7.726089001,-5.248090267,-318.5211267605634,962.4929577464789,598.661971830986,-7573.6760563380285,-788.4366197183099,4087.3802816901407,5
2024-06-15 13:51:20,-0.4459316432,-0.9346238375,-0.9407324791,-0.8571242094,-7.726089001,-5.248090267,-58.77,62.24,-584.72,-7674.33,-461.51,3850.39,5
2024-06-15 13:51:20,-0.02443460934,-0.8515461683,0.1930334121,0.8978256583,-12.33732128,-1.812410712,-313.36538461538464,26.221153846153847,-677.9615384615385,-7777.057692307692,-568.0673076923076,3942.798076923077,5
2024-06-15 13:51:20,0.4422664344,0.9272934198,0.3982841372,-0.586579442,-7.903259754,-4.244919777,-1549.1702127659576,-165.51063829787233,-187.6170212765957,-7788.893617021276,-1304.851063829787,4023.042553191489,5
2024-06-15 13:51:20,0.4422664344,0.9272934198,0.3982841372,-0.586579442,-7.903259754,-4.244919777,-1513.3106796116506,142.38834951456312,-275.3980582524272,-7718.495145631068,-1577.611650485437,3790.941747572816,5
2024-06-15 13:51:20,0.3689626157,-0.3457497358,0.08552113175,-1.204283476,-6.083666325,-7.862558365,-927.8446601941748,357.747572815534,477.0679611650485,-7614.631067961165,-1632.0485436893205,3697.873786407767,5
2024-06-15 13:51:20,0.3689626157,-0.3457497358,0.08552113175,-1.204283476,-6.083666325,-7.862558365,-303.9417475728156,-31.155339805825243,238.242718446602,-7754.980582524272,-1586.5242718446602,3550.6796116504856,5
2024-06-15 13:51:20,-0.2553416789,-0.8674286604,-0.2211332172,-1.120486379,-9.976638794,-3.323152065,1105.673267326733,361.2475247524753,-816.4653465346535,-7638.495049504951,-1439.980198019802,3914.960396039604,5
2024-06-15 13:51:20,0.1673770845,-0.4569272101,0.1185078546,-2.147598982,-9.39484787,-3.926490784,1547.0280373831777,357.1682242990654,-488.5794392523365,-7695.869158878505,-1554.0841121495328,3859.2616822429904,5
2024-06-15 13:51:20,0.1673770845,-0.4569272101,0.1185078546,-2.147598982,-9.39484787,-3.926490784,2070.78,593.84,-612.6,-7418.8,-1188.3,3896.0,5
2024-06-15 13:51:21,0.471587956,1.117883444,1.63589716,-2.054224968,-9.093177795,-4.338293552,1113.1683168316831,21.20792079207922,-163.45544554455444,-8045.207920792079,-832.7128712871288,3757.910891089109,5
2024-06-15 13:51:21,0.471587956,1.117883444,1.63589716,-2.054224968,-9.093177795,-4.338293552,513.0,-472.6,47.1,-7704.9,-832.7,3775.8,5
2024-06-15 13:51:21,-0.7000515461,0.9896016717,-0.1246165112,-0.7829039693,-7.165845871,-7.934384346,-634.2751677852349,-89.14093959731542,348.4161073825503,-7394.234899328859,-1175.013422818792,3748.5973154362414,5
2024-06-15 13:51:21,-0.7000515461,0.9896016717,-0.1246165112,-0.7829039693,-7.165845871,-7.934384346,-556.433962264151,-313.8490566037736,319.3018867924528,-7636.33962264151,-1081.9056603773586,3817.7924528301887,5
2024-06-15 13:51:21,0.06719517708,-0.6866125464,-0.712268889,-2.286462545,-5.772420406,-6.619967937,-800.3076923076924,-524.9230769230769,4.384615384615358,-7453.153846153846,-904.7692307692308,4171.2307692307695,5
2024-06-15 13:51:21,1.170417786,-1.755626678,-1.332907915,-0.8930372596,-11.49456215,-3.308786631,-315.54,81.85,44.13,-7643.38,-1075.86,4151.12,5
2024-06-15 13:51:21,1.170417786,-1.755626678,-1.332907915,-0.8930372596,-11.49456215,-3.308786631,-245.0986842105263,-100.10526315789474,-281.8157894736842,-7733.934210526316,-1239.078947368421,3834.006578947368,5
2024-06-15 13:51:21,-0.06108652428,-0.813672483,0.007330383174,-0.4333505034,-9.83777523,-0.2537853718,1271.6037735849056,393.50943396226415,-691.0377358490566,-7438.283018867924,-1544.698113207547,3915.377358490566,5
2024-06-15 13:51:21,0.9443976879,-0.1111774743,-0.3054326177,-1.59932673,-10.25197124,-1.867477298,11669.805825242718,3238.242718446602,-5543.281553398058,-6902.155339805825,-4591.194174757282,2486.21359223301,5
2024-06-15 13:51:21,0.9443976879,-0.1111774743,-0.3054326177,-1.59932673,-10.25197124,-1.867477298,17684.53846153846,5279.413461538462,-8151.490384615385,-8731.701923076924,-1662.0961538461538,934.0192307692308,5
2024-06-15 13:51:22,-0.145385921,-0.6023131609,-0.08307767659,-2.37744236,-8.142680168,-1.625662923,11528.52606635071,2578.4691943127964,-3942.834123222749,-9002.54028436019,627.4928909952607,1895.8341232227488,5
2024-06-15 13:51:22,-0.145385921,-0.6023131609,-0.08307767659,-2.37744236,-8.142680168,-1.625662923,9427.578199052132,1561.4075829383887,-3012.5023696682465,-8755.620853080569,200.478672985782,2265.5023696682465,5
2024-06-15 13:51:22,-0.04642575979,0.2052507252,0.4667010605,-1.04147768,-9.224859238,-0.1364694983,5832.285714285715,874.4285714285714,-2000.7857142857144,-7965.214285714285,-1223.428571428571,3008.714285714286,5
2024-06-15 13:51:22,-0.8026769161,0.8955284357,0.0171042271,-1.470039845,-7.292738438,-2.482787132,4789.666666666667,980.0,-2093.6666666666665,-7861.333333333333,-856.6666666666666,3496.6666666666665,5
2024-06-15 13:51:22,-0.8026769161,0.8955284357,0.0171042271,-1.470039845,-7.292738438,-2.482787132,3370.811320754717,1102.5566037735848,-1697.9716981132076,-7945.924528301887,-1224.0283018867924,3266.198113207547,5
2024-06-15 13:51:22,0.1930334121,0.004886921961,-0.06108652428,-1.912967205,-9.167398453,-5.501875401,1854.244897959184,769.8979591836735,-1176.0,-7635.326530612245,-997.1836734693876,3264.4489795918366,5
2024-06-15 13:51:22,0.8674286604,-0.8271115422,-0.5937610269,-2.226607561,-9.500192642,-3.045424461,336.7352941176471,1014.5882352941176,-174.20588235294116,-7975.941176470588,-1335.3823529411766,2772.676470588235,5
2024-06-15 13:51:22,0.8674286604,-0.8271115422,-0.5937610269,-2.226607561,-9.500192642,-3.045424461,-1054.3714285714286,423.0857142857143,-899.8285714285714,-7973.628571428571,-2134.7714285714287,2786.457142857143,5
2024-06-15 13:51:22,0.248011291,-0.5571091175,0.08918632567,-0.3471592367,-10.24718285,-0.1125274822,-703.2692307692307,-169.92307692307693,-1191.2692307692307,-8022.192307692308,-2381.730769230769,2923.846153846154,5
2024-06-15 13:51:22,0.248011291,-0.5571091175,0.08918632567,-0.3471592367,-10.24718285,-0.1125274822,624.1651376146789,-30.275229357798164,796.9449541284404,-7329.128440366972,-2284.119266055046,3069.256880733945,5
2024-06-15 13:51:23,1.921782017,0.908967495,0.5510004759,-1.364694953,-10.89601231,1.833958507,812.2385321100917,422.9357798165138,567.5871559633027,-7630.963302752293,-1714.394495412844,2772.926605504588,5
2024-06-15 13:51:23,-1.177748203,-0.4227187634,1.150870085,-4.077325344,-7.682993412,-2.00873518,543.304347826087,488.0,407.1739130434783,-8000.391304347826,-1800.391304347826,2847.3478260869565,5
2024-06-15 13:51:23,-1.177748203,-0.4227187634,1.150870085,-4.077325344,-7.682993412,-2.00873518,28.422222222222217,-132.95555555555552,267.5333333333333,-7904.288888888889,-1825.1777777777777,2743.6,5
2024-06-15 13:51:23,-0.6120869517,-0.814894259,0.3518583775,-3.974374771,-8.532935143,-0.2011129409,-301.0,282.0,-25.6,-7861.28,-1815.44,2744.32,5
2024-06-15 13:51:23,0.0171042271,-0.4080579877,-0.4117231667,-3.730166197,-9.320627213,0.03351882473,-151.92523364485982,-724.4392523364486,508.214953271028,-7898.205607476635,-1576.233644859813,3035.205607476636,5
2024-06-15 13:51:23,0.0171042271,-0.4080579877,-0.4117231667,-3.730166197,-9.320627213,0.03351882473,-731.69,236.74,-370.86,-7947.54,-1853.97,2756.81,5
2024-06-15 13:51:23,0.2333505303,-0.3494149148,0.5522221923,-3.892971992,-8.32463932,0.4716577232,163.0792079207921,-792.8712871287129,57.03960396039604,-7735.851485148515,-1653.6039603960396,3033.792079207921,5
2024-06-15 13:51:23,0.2333505303,-0.3494149148,0.5522221923,-3.892971992,-8.32463932,0.4716577232,-991.2079207920792,639.6138613861386,-406.4356435643565,-7690.722772277228,-1722.2673267326732,2992.019801980198,5
2024-06-15 13:51:23,-0.4092797041,-0.216246292,-0.290771842,-3.974374771,-7.314286232,-0.5458779931,-276.8285714285714,655.2285714285715,0.9714285714285892,-7858.314285714286,-1463.6857142857143,2829.5714285714284,5
2024-06-15 13:51:23,-0.01343903504,-0.3310889602,0.1844813079,-4.642356873,-9.99100399,0.85473001,-125.89215686274508,593.9607843137255,-701.8921568627452,-8178.774509803921,-1691.862745098039,2775.5882352941176,5
2024-06-15 13:51:24,-0.01343903504,-0.3310889602,0.1844813079,-4.642356873,-9.99100399,0.85473001,-337.7169811320755,483.4150943396226,-278.0188679245283,-8079.132075471698,-1702.9433962264152,2494.301886792453,5
2024-06-15 13:51:24,-0.02687807009,-0.4068362415,-0.2138028294,-3.399766445,-9.528923035,0.2705447972,851.0,-844.21,-567.62,-7851.81,-1712.11,2648.53,5
2024-06-15 13:51:24,0.4337143302,-0.5277875662,0.1747074574,-3.995922565,-9.375694275,0.9265560508,428.8080808080808,-435.14141414141415,-354.32323232323233,-7648.737373737374,-2033.313131313132,2776.5858585858587,5
2024-06-15 13:51:24,0.4337143302,-0.5277875662,0.1747074574,-3.995922565,-9.375694275,0.9265560508,446.8962264150944,-337.0188679245283,169.12264150943395,-7705.33962264151,-1754.3207547169811,3195.0471698113206,5
2024-06-15 13:51:24,-0.03665191308,-0.05253441259,0.03787364438,-2.8993783,-7.984662533,1.204283476,-31.17721518987341,108.20253164556962,231.873417721519,-7952.53164556962,-1334.860759493671,3362.6202531645567,5
2024-06-15 13:51:24,-0.03665191308,-0.05253441259,0.03787364438,-2.8993783,-7.984662533,1.204283476,-155.22784810126583,99.9746835443038,243.26582278481013,-7974.683544303797,-1537.392405063291,3346.7974683544303,5
2024-06-15 13:51:24,-0.4996877611,0.1404990107,-0.8515461683,-3.687070608,-10.17535686,0.9816226959,-1349.8148148148148,-246.2962962962963,246.1851851851852,-7596.37037037037,-1845.851851851852,3038.333333333333,5
2024-06-15 13:51:24,-0.006108652335,-0.06352998316,-0.5913175344,-2.240972757,-10.23760605,1.182735682,-1781.8453608247423,-367.5257731958763,732.5773195876288,-7978.546391752578,-1463.4123711340203,3116.3298969072166,5
2024-06-15 13:51:24,-0.006108652335,-0.06352998316,-0.5913175344,-2.240972757,-10.23760605,1.182735682,-1532.990291262136,-257.3398058252427,833.7864077669902,-8050.203883495145,-1243.0,3099.0,5
2024-06-15 13:51:24,0.1698205322,0.6389650702,-0.09285151958,-1.120486379,-10.25915432,1.036689281,-1924.8909090909087,41.763636363636365,935.2545454545456,-8276.945454545454,-1037.7818181818182,2624.454545454545,5
2024-06-15 13:51:25,0.7550294399,2.427578449,1.077566266,-1.422155857,-9.066842079,1.108515382,-2184.7551020408164,-1129.969387755102,1034.3061224489795,-8328.357142857143,-784.0714285714286,2291.3367346938776,5
2024-06-15 13:51:25,0.7550294399,2.427578449,1.077566266,-1.422155857,-9.066842079,1.108515382,-1968.3980582524275,-935.1553398058252,552.8446601941747,-8442.961165048544,-406.990291262136,2525.864077669903,5
2024-06-15 13:51:25,-0.1319468915,2.697580814,-0.1136209369,-2.027888775,-9.184157372,-2.746149302,-2797.587096774193,-943.9096774193548,-239.6451612903226,-8233.703225806452,-934.716129032258,3292.877419354839,5
2024-06-15 13:51:25,0.09285151958,0.3701843321,-0.0415388383,-4.316745758,-9.196128845,-2.296039343,-3014.1052631578946,-290.38596491228066,-620.8245614035088,-7684.122807017544,-2051.245614035088,2952.561403508772,5
2024-06-15 13:51:25,-0.5497786999,0.004886921961,-0.145385921,-3.351882458,-8.508993149,-2.473210335,-1862.0,629.0625,-802.75,-7101.25,-2975.0,2862.625,5
2024-06-15 13:51:25,-0.5497786999,0.004886921961,-0.145385921,-3.351882458,-8.508993149,-2.473210335,-685.6761904761905,978.1333333333332,-132.56190476190477,-7771.771428571428,-3130.038095238095,2871.838095238096,5
2024-06-15 13:51:25,1.017701507,-1.870469332,-1.716531396,-2.279279947,-7.592013359,-5.269638062,-21.792452830188665,354.3018867924528,200.9811320754717,-7965.924528301887,-2846.0943396226417,2917.6603773584907,5
2024-06-15 13:51:25,0.2052507252,-2.227214575,-0.2651155293,-0.08379705995,-13.33570385,2.298433542,-14.235294117647058,-432.8235294117647,312.29411764705884,-7773.588235294118,-2460.823529411765,3004.705882352941,5
2024-06-15 13:51:25,0.2052507252,-2.227214575,-0.2651155293,-0.08379705995,-13.33570385,2.298433542,-346.8979591836735,-423.7755102040816,363.1428571428572,-7640.877551020408,-2502.3469387755104,3180.6326530612246,5
2024-06-15 13:51:26,0.7147123218,-0.4691445231,-0.287106663,1.692700624,-9.794678688,0.0023942017,459.2549019607843,-758.2352941176471,541.5882352941177,-7865.490196078431,-2276.3823529411766,3287.235294117647,5
2024-06-15 13:51:26,0.7147123218,-0.4691445231,-0.287106663,1.692700624,-9.794678688,0.0023942017,903.2075471698112,-360.0377358490566,281.0,-7395.490566037736,-1923.566037735849,3313.245283018868,5
2024-06-15 13:51:26,0.2064724565,0.5729916096,0.25167647,-1.149216771,-10.7284174,-1.89620769,727.3076923076923,-30.0,-48.03846153846154,-7773.096153846154,-1456.5192307692307,3192.576923076923,5
2024-06-15 13:51:26,0.4092797041,0.2431243658,0.008552113548,-1.223437071,-10.34774017,-1.879448295,269.0909090909091,-81.81818181818181,94.0909090909091,-7885.181818181818,-1635.1818181818182,3172.6363636363635,5
2024-06-15 13:51:26,0.4092797041,0.2431243658,0.008552113548,-1.223437071,-10.34774017,-1.879448295,281.5728155339806,174.94174757281553,160.61165048543688,-7778.669902912621,-1188.5825242718447,3241.135922330097,5
2024-06-15 13:51:26,0.1429424733,0.5265658498,0.06841690838,-0.2609679997,-9.469067574,-0.9935936928,-568.4571428571428,240.4,-47.85714285714286,-8037.780952380952,-820.8380952380952,3021.838095238096,5
2024-06-15 13:51:26,-0.9529497623,0.3249803185,-0.389732033,-0.349553436,-10.3453455,-1.18752408,-2595.6,-240.6,369.0,-8633.8,-599.8,2675.4,5
2024-06-15 13:51:26,-0.9529497623,0.3249803185,-0.389732033,-0.349553436,-10.3453455,-1.18752408,-3920.116129032258,-597.3741935483871,804.483870967742,-8981.54193548387,0.8451612903226078,2615.4,5
2024-06-15 13:51:26,0.1832595766,0.05497787148,-0.1783726513,0.1580173075,-10.46745014,-1.659181833,-15290.3,-5920.18,5925.02,-7899.86,-1269.0,1926.98,5
2024-06-15 13:51:26,0.1832595766,0.05497787148,-0.1783726513,0.1580173075,-10.46745014,-1.659181833,-11403.471698113208,-2967.6415094339623,4306.0,-7431.150943396226,-2519.245283018868,4456.867924528302,5
2024-06-15 13:51:27,0.4239404798,-0.1832595766,0.1893682331,0.2418143749,-9.569623947,-1.223437071,-5581.067632850241,-1406.6183574879226,615.1642512077294,-6053.550724637681,-3194.927536231884,5040.178743961353,5
2024-06-15 13:51:27,0.1160643995,-0.1026253626,0.0415388383,0.3758896589,-9.801861763,-1.094150186,-4642.420289855072,-1138.9855072463768,78.44927536231887,-6124.565217391304,-3193.478260869565,5223.753623188406,5
2024-06-15 13:51:27,0.1160643995,-0.1026253626,0.0415388383,0.3758896589,-9.801861763,-1.094150186,-3703.772946859904,-871.3526570048309,-458.2657004830917,-6195.579710144928,-3192.0289855072465,5407.328502415459,5
2024-06-15 13:51:27,-0.1368338168,0.1148426682,0.2614503205,-0.01675941236,-9.744400978,-0.9959878922,2972.1546391752577,1329.6082474226805,-541.2268041237113,-6576.587628865979,-2675.618556701031,5593.082474226804,5
2024-06-15 13:51:27,0.06108652428,0.7183775306,0.432492584,-0.6871358752,-10.0460701,0.04070143029,1870.1538461538464,2363.0,484.38461538461536,-6814.461538461538,-1419.923076923077,3475.7692307692305,5
2024-06-15 13:51:27,0.06108652428,0.7183775306,0.432492584,-0.6871358752,-10.0460701,0.04070143029,438.05825242718447,2695.330097087379,-179.60194174757282,-8749.233009708738,-1701.3495145631068,1678.2038834951456,5
2024-06-15 13:51:27,-0.5998696685,0.5937610269,0.4862487316,-3.737348795,-9.085995674,-2.367865562,2657.8846153846152,483.9807692307693,-1006.8269230769232,-9176.134615384615,-2075.1153846153848,2208.826923076923,5
2024-06-15 13:51:27,-0.5998696685,0.5937610269,0.4862487316,-3.737348795,-9.085995674,-2.367865562,2177.5,184.21,37.120000000000005,-6967.77,-1422.82,2372.85,5
2024-06-15 13:51:27,-0.02076941915,-1.346346974,1.439198494,-4.27125597,-11.37485218,-4.103661537,1410.5555555555557,534.8981481481482,-86.89814814814815,-7032.018518518518,-1488.611111111111,2553.75,5
2024-06-15 13:51:27,0.3310889602,-1.203404546,0.8918632865,-3.584120035,-7.096413612,0.8307880163,998.5943396226417,696.8584905660377,-326.16037735849056,-7530.367924528302,-1777.2264150943397,2627.707547169812,5
2024-06-15 13:51:28,0.3310889602,-1.203404546,0.8918632865,-3.584120035,-7.096413612,0.8307880163,1059.7272727272727,-39.0,290.45454545454544,-8203.0,-1425.0,2459.5454545454545,5
2024-06-15 13:51:28,-0.4117231667,-0.6939429045,0.004886921961,-5.382165432,-6.780379295,-0.2609679997,263.1442307692308,-362.7884615384616,-134.625,-7963.163461538462,-1629.7403846153843,2691.817307692308,5
2024-06-15 13:51:28,-0.3604104817,-0.6707300544,-0.5656611919,-4.71657753,-8.149862289,-0.2920926213,-194.23076923076923,-218.9230769230769,526.3846153846154,-8203.23076923077,-1563.7692307692307,2776.3846153846152,5
2024-06-15 13:51:28,-0.3604104817,-0.6707300544,-0.5656611919,-4.71657753,-8.149862289,-0.2920926213,-191.5925925925926,-349.5925925925926,391.6296296296296,-7998.62962962963,-1438.1851851851852,2948.814814814815,5
2024-06-15 13:51:28,-0.2235766798,-0.2577851415,-0.08429940045,-5.31512785,-10.22802925,0.383072257,83.30731707317074,-434.7463414634146,278.9756097560976,-8015.20487804878,-1285.4682926829269,3370.7756097560978,5
2024-06-15 13:51:28,-0.2235766798,-0.2577851415,-0.08429940045,-5.31512785,-10.22802925,0.383072257,34.039024390243895,-429.3804878048781,376.5365853658536,-7915.69268292683,-1072.2975609756097,3508.336585365854,5
2024-06-15 13:51:28,0.1441642046,-0.3078760803,0.2211332172,-5.451597214,-9.469067574,-0.9457096457,-889.1063829787234,-1107.709219858156,614.3687943262412,-7712.758865248227,-903.8297872340426,3683.3971631205673,5
2024-06-15 13:51:28,0.3152064681,-0.3115412891,-0.3665191531,-4.278438568,-4.522646904,0.5937620401,-655.063829787234,-847.4255319148936,803.0212765957447,-7743.255319148936,-878.2978723404256,4109.63829787234,5
2024-06-15 13:51:28,0.3152064681,-0.3115412891,-0.3665191531,-4.278438568,-4.522646904,0.5937620401,6.9090909090909065,110.8080808080808,285.26262626262627,-7739.929292929293,-695.4242424242424,4115.414141414141,5
2024-06-15 13:51:28,0.483805269,0.5094616413,-0.8784242272,-5.166687489,-10.05804157,0.1292868853,327.6831683168317,57.52475247524752,231.87128712871288,-7786.009900990099,-766.0693069306931,4137.564356435643,5
2024-06-15 13:51:29,0.2919935882,0.01343903504,-0.3445279896,-3.038241863,-9.339780807,0.1771709323,194.7142857142857,-245.3904761904762,-739.0285714285715,-7416.638095238095,-417.4476190476191,4059.7238095238095,5
2024-06-15 13:51:29,0.2919935882,0.01343903504,-0.3445279896,-3.038241863,-9.339780807,0.1771709323,-322.1862745098039,-343.37254901960785,-696.4705882352941,-8011.686274509804,-159.38235294117646,4069.1666666666665,5
2024-06-15 13:51:29,-0.1954768747,0.09651670605,-0.1918116808,-2.552218914,-9.504981041,-0.758961916,-137.44660194174756,-226.70873786407768,-854.4660194174758,-7249.349514563107,-1370.9805825242718,4376.582524271845,5
2024-06-15 13:51:29,-0.1954768747,0.09651670605,-0.1918116808,-2.552218914,-9.504981041,-0.758961916,1275.235294117647,1140.8823529411766,-1556.2549019607843,-7188.441176470588,-1481.6666666666667,3992.9607843137255,5
2024-06-15 13:51:29,-0.2614503205,-0.09162978828,-0.228463605,-2.109291792,-9.737217903,-0.8044517636,1998.764705882353,1529.1176470588234,-2081.745098039216,-7532.558823529412,-1548.3333333333333,3789.0392156862745,5
2024-06-15 13:51:29,-0.2186897546,-0.1087340117,-0.2492330223,-2.26970315,-10.14902115,-1.367089152,982.0,869.1165048543689,-1118.7961165048544,-7897.660194174758,-1361.4271844660193,3521.7184466019417,5
2024-06-15 13:51:29,-0.2186897546,-0.1087340117,-0.2492330223,-2.26970315,-10.14902115,-1.367089152,813.1333333333333,-285.0952380952381,-989.9714285714284,-7347.028571428571,-1818.4857142857145,3466.828571428572,5
2024-06-15 13:51:29,0.08307767659,-0.1331686229,0.1600466967,-1.132457376,-11.69328117,-0.0359130241,806.0,93.97087378640776,-637.7961165048544,-7919.281553398058,-1633.3398058252428,3557.097087378641,5
2024-06-15 13:51:29,1.249830246,1.916895151,1.067792416,-0.0287304204,-9.540893555,0.4261679053,574.0769230769231,213.6153846153846,-374.9038461538461,-7628.826923076923,-1595.2307692307693,3765.980769230769,5
2024-06-15 13:51:29,1.249830246,1.916895151,1.067792416,-0.0287304204,-9.540893555,0.4261679053,-48.398058252427184,-279.3495145631068,-438.8834951456311,-7600.951456310679,-1426.4854368932038,3575.7184466019417,5
2024-06-15 13:51:30,1.213178396,3.450166941,-0.2174680233,-0.7924807668,-9.490615845,-2.834734917,81.96226415094338,-48.0188679245283,-193.0566037735849,-7375.962264150943,-1445.754716981132,3909.77358490566,5
2024-06-15 13:51:30,1.213178396,3.450166941,-0.2174680233,-0.7924807668,-9.490615845,-2.834734917,-605.74,-548.58,-814.78,-7889.06,-1320.56,3728.92,5
2024-06-15 13:51:30,0.5717698932,3.348763227,-1.728748679,0.3351882398,-6.926425457,-0.4955997467,-1089.5,-349.13461538461536,-859.9230769230769,-7444.596153846154,-2059.019230769231,3781.826923076923,5
2024-06-15 13:51:30,-0.9871582389,2.375044107,-1.805717707,5.360617638,-12.9334774,-5.415684223,-953.8823529411764,-497.1764705882353,-330.6470588235294,-7535.176470588235,-2123.764705882353,3974.8823529411766,5
2024-06-15 13:51:30,-0.9871582389,2.375044107,-1.805717707,5.360617638,-12.9334774,-5.415684223,-479.7142857142857,-239.4,251.51428571428573,-7068.028571428571,-2331.057142857143,3971.171428571429,5
2024-06-15 13:51:30,-0.1270599663,1.372003317,-0.616973877,2.624045134,-8.851364136,-0.7517793179,118.95145631067962,637.495145631068,-638.1165048543689,-7188.0679611650485,-2254.621359223301,3787.456310679612,5
2024-06-15 13:51:30,0.5375614166,0.09773843735,-0.7220427394,5.152322292,-9.825803757,-3.306392431,-326.15384615384613,234.5,-994.2211538461538,-7716.9807692307695,-2199.0,3582.980769230769,5
2024-06-15 13:51:30,0.5375614166,0.09773843735,-0.7220427394,5.152322292,-9.825803757,-3.306392431,-87.41509433962264,-2.35849056603773,175.2075471698113,-7915.471698113208,-1960.0566037735848,3618.641509433962,5
2024-06-15 13:51:30,4.091575623,-4.493524551,0.1979203373,8.243236542,-9.62469101,-4.757278919,-325.485549132948,-295.2658959537572,794.2774566473988,-7833.57225433526,-1995.7167630057804,3876.763005780346,5
2024-06-15 13:51:30,4.091575623,-4.493524551,0.1979203373,9.009381294,-8.236053467,5.037400246,-227.2196531791908,-703.3583815028902,1180.9826589595375,-7824.901734104046,-2069.7052023121387,3765.202312138728,5
2024-06-15 13:51:31,5.271767139,-2.067167997,3.813020945,9.009381294,-8.236053467,5.037400246,431.6060606060606,428.3030303030303,752.939393939394,-6884.545454545455,-2202.151515151515,4090.303030303032,5
2024-06-15 13:51:31,2.405587435,0.2565633953,2.141693592,3.390189648,-1.254561663,6.830657482,-1380.74,-597.42,1325.5,-7853.52,-810.8,3718.72,5
2024-06-15 13:51:31,2.405587435,0.2565633953,2.141693592,3.390189648,-1.254561663,6.830657482,-1933.2135922330096,-895.7572815533981,1585.9417475728155,-7280.155339805825,-1850.009708737864,4216.417475728155,5
2024-06-15 13:51:31,0.01221730467,-0.5473352671,0.1356120855,-0.01197100803,-5.892130375,9.119514465,-965.3203883495146,188.4660194174757,738.3592233009708,-7214.533980582524,-1882.495145631068,4107.291262135922,5
2024-06-15 13:51:31,-0.3616322279,-0.1123992056,0.1918116808,-0.4860229492,-4.027047157,9.126696587,-1350.0654205607475,407.8130841121495,131.74766355140187,-7299.682242990654,-1564.018691588785,3912.794392523365,5
2024-06-15 13:51:31,-0.3616322279,-0.1123992056,0.1918116808,-0.4860229492,-4.027047157,9.126696587,-1203.3364485981308,598.4672897196261,169.13084112149534,-7383.794392523365,-1264.9532710280373,3902.5140186915887,5
2024-06-15 13:51:31,0.4532620013,-0.6023131609,0.4581489265,-0.05506663769,-5.621585369,8.434772491,-1599.08,221.14,861.5,-7820.14,-1020.18,3940.02,5
2024-06-15 13:51:31,-0.2846632004,-0.4605923891,0.9969320893,-0.3303998411,-6.691793919,7.134721279,-1779.73786407767,121.03883495145632,549.6310679611651,-7453.970873786407,-1214.5339805825242,3920.650485436893,5
2024-06-15 13:51:31,-0.2846632004,-0.4605923891,0.9969320893,-0.3303998411,-6.691793919,7.134721279,-1761.4311926605506,-249.8165137614679,-107.27522935779815,-7568.614678899083,-1166.0825688073394,4053.8256880733934,5
2024-06-15 13:51:31,0.161268428,-1.044579625,1.376890302,0.3256114423,-6.35421133,7.740454197,-1731.9052631578948,-1006.978947368421,-254.02105263157893,-7388.547368421053,-1212.2,4180.9473684210525,5
2024-06-15 13:51:32,0.161268428,-1.044579625,1.376890302,0.3256114423,-6.35421133,7.740454197,-1353.0943396226414,-781.2075471698113,208.5471698113208,-7492.811320754717,-1642.6037735849056,4046.924528301887,5
2024-06-15 13:51:32,-0.03298672289,-0.01343903504,0.3054326177,1.67115283,-6.030993938,7.759607792,-759.981308411215,-842.6168224299065,-751.9626168224299,-7533.92523364486,-1723.9065420560748,4293.271028037383,5
2024-06-15 13:51:32,-0.6633996367,0.1539380401,-0.07574728876,-0.9002198577,-7.12993288,6.660669327,-458.7848101265823,-648.4303797468355,-45.41772151898735,-6990.886075949367,-1803.0,4413.2405063291135,5
2024-06-15 13:51:32,-0.6633996367,0.1539380401,-0.07574728876,-0.9002198577,-7.12993288,6.660669327,-517.6455696202531,-430.7088607594937,-351.746835443038,-6857.341772151899,-2003.0,4656.278481012659,5
2024-06-15 13:51:32,-0.1832595766,-0.616973877,0.2028072625,-0.3423708379,-7.637503624,6.390124321,772.0891089108911,318.3960396039604,-494.3366336633664,-7152.079207920792,-1687.7722772277227,4609.702970297029,5
2024-06-15 13:51:32,-0.1832595766,-0.616973877,0.2028072625,-0.3423708379,-7.637503624,6.390124321,212.9607843137255,527.5098039215686,10.274509803921577,-7206.235294117647,-1616.3921568627452,4508.745098039216,5
2024-06-15 13:51:32,-0.5436700583,-0.7586946487,0.4728097022,-0.6703764796,-9.165003777,7.024587631,509.1919191919192,865.6161616161617,-226.88888888888889,-7079.232323232323,-2216.777777777778,4271.686868686868,5
2024-06-15 13:51:32,0.6133087277,-0.2602286041,0.7745771408,0.1675941199,-7.977479935,6.301538944,1547.8653846153843,929.1634615384615,-341.0769230769231,-7247.336538461538,-2489.701923076923,4127.288461538462,5
2024-06-15 13:51:32,0.6133087277,-0.2602286041,0.7745771408,0.1675941199,-7.977479935,6.301538944,1580.7920792079208,795.5940594059406,72.8019801980198,-7341.059405940594,-1768.6039603960396,3844.4158415841584,5
2024-06-15 13:51:32,0.9101892114,0.01343903504,0.5668829679,-0.09337386489,-6.912060261,6.481103897,909.970588235294,802.8529411764706,-85.7843137254902,-7368.107843137255,-1532.9117647058824,3772.450980392157,5
2024-06-15 13:51:33,-0.1282816976,0.1893682331,-0.9737191796,0.9121908545,-6.679822922,7.632715225,65.52941176470588,1198.6470588235295,323.8235294117647,-7864.941176470588,-1430.470588235294,3005.1176470588234,5
2024-06-15 13:51:33,-0.1282816976,0.1893682331,-0.9737191796,0.9121908545,-6.679822922,7.632715225,625.8365384615385,1258.6153846153843,-132.40384615384616,-7860.634615384615,-1464.2884615384614,2788.855769230769,5
2024-06-15 13:51:33,-0.3005456924,0.05497787148,-0.5180137157,-0.9265560508,-6.639121532,8.410830498,477.11650485436894,683.4757281553398,-609.0776699029126,-8278.436893203883,-1660.3980582524273,2528.495145631068,5
2024-06-15 13:51:33,-0.3005456924,0.05497787148,-0.5180137157,-0.9265560508,-6.639121532,8.410830498,-111.63207547169812,-55.08490566037736,-173.6509433962264,-8217.688679245282,-1436.1132075471698,2580.301886792453,5
2024-06-15 13:51:33,-0.4948008358,0.4691445231,0.0720821023,-0.356736064,-6.526593685,7.02937603,-714.3,-830.44,215.96,-8213.1,-1606.2,2777.12,5
2024-06-15 13:51:33,0.1783726513,-0.1698205322,-0.1808161139,-0.1891419291,-8.054094315,8.171410561,-1487.0361445783133,-1391.8313253012047,854.9518072289156,-7744.048192771084,-1531.566265060241,3213.5662650602408,5
2024-06-15 13:51:33,-0.1111774743,0.3310889602,0.6243042946,-1.474828243,-6.746860504,8.678980827,-933.2093023255812,-849.8372093023256,649.5116279069767,-7720.325581395349,-1522.1162790697674,3632.3953488372094,5
2024-06-15 13:51:33,-1.328021049,1.143539786,1.584584475,-3.359065056,-8.054094315,7.280767441,-647.7647058823529,-301.5882352941176,551.5294117647059,-7604.764705882353,-1567.0,3701.0,5
2024-06-15 13:51:33,-1.328021049,1.143539786,1.584584475,-3.359065056,-8.054094315,7.280767441,-294.5660377358491,-236.50943396226413,460.4905660377359,-7588.509433962264,-1548.2830188679245,3498.962264150943,5
2024-06-15 13:51:34,-1.049466491,0.2956587672,1.470963478,-3.952826977,-6.68700552,2.827552319,-100.9375,-206.0208333333333,1519.40625,-7641.489583333333,-829.75,3540.364583333333,5
2024-06-15 13:51:34,-1.049466491,0.2956587672,1.470963478,-3.952826977,-6.68700552,2.827552319,-446.3398058252427,-193.88349514563103,641.1553398058252,-7967.038834951456,-853.9902912621359,3549.9223300970875,5
2024-06-15 13:51:34,-0.4202753007,-0.2199114859,0.2785545588,-5.341464043,-6.562506676,3.447650433,-470.5145631067961,-278.20388349514565,-535.8737864077669,-7646.961165048544,-848.5825242718447,3547.116504854369,5
2024-06-15 13:51:34,0.4141666293,0.125838235,-0.1014036313,-5.623979568,-5.664681435,4.419696331,-851.495145631068,-169.1747572815534,-1373.3495145631068,-7598.796116504855,-1009.6116504854368,3533.0485436893205,5
2024-06-15 13:51:34,0.4141666293,0.125838235,-0.1014036313,-5.623979568,-5.664681435,4.419696331,2.9363057324840725,-1.2101910828025453,-1704.8407643312105,-7644.993630573248,-1440.3057324840763,3494.6751592356686,5
2024-06-15 13:51:34,0.6487388611,0.2406809032,-0.2394591719,-5.370194435,-7.496245384,3.375824451,691.551724137931,-52.793103448275865,-707.0344827586207,-7945.068965517241,-1154.5862068965516,3525.5172413793102,5
2024-06-15 13:51:34,0.9175195694,0.08185594529,-0.1075122803,-5.595249176,-5.31512785,4.888959885,-268.40425531914894,-84.36170212765957,-335.8510638297872,-7629.851063829788,-1265.340425531915,3702.340425531914,5
2024-06-15 13:51:34,0.9175195694,0.08185594529,-0.1075122803,-5.595249176,-5.31512785,4.888959885,-407.970297029703,-459.1881188118812,-293.65346534653463,-7265.009900990099,-2349.2178217821784,3839.811881188119,5
2024-06-15 13:51:34,0.3042109013,0.3433062732,-0.08429940045,-6.411672115,-6.050147533,3.890577793,1739.72,245.52,-989.4,-7102.12,-2930.48,3998.64,5
2024-06-15 13:51:34,0.3042109013,0.3433062732,-0.08429940045,-6.411672115,-6.050147533,3.890577793,4202.0,497.56,-1145.68,-7685.04,-1062.4,3583.88,5
2024-06-15 13:51:35,0.9810495973,-0.06841690838,0.02076941915,-5.612008572,-5.54018259,5.71974802,464.30769230769226,-229.44230769230768,118.57692307692308,-7777.576923076923,-492.75961538461536,3879.2115384615386,5
2024-06-15 13:51:35,-0.1160643995,-0.03665191308,-0.05864306539,-5.832275391,-6.423643112,5.556941986,-2769.145631067961,-207.58252427184465,458.7669902912621,-7609.436893203883,-1241.4660194174758,3767.5631067961167,5
2024-06-15 13:51:35,-0.1160643995,-0.03665191308,-0.05864306539,-5.832275391,-6.423643112,5.556941986,-2913.0995850622407,-224.55186721991703,411.67634854771785,-7354.078838174274,-2119.2365145228214,3501.92531120332,5
2024-06-15 13:51:35,-0.3359758854,-0.04764748737,0.04642575979,-5.449203014,-6.363788128,4.896142483,-2693.597510373444,37.68879668049794,500.0580912863071,-7559.473029045643,-2035.4190871369287,3491.551867219917,5
2024-06-15 13:51:35,0.07574728876,0.8038986921,-0.1478293836,-5.365406036,-5.027823448,6.864176273,-2474.095435684648,299.92946058091286,588.4398340248963,-7764.867219917012,-1951.6016597510368,3481.1784232365144,5
2024-06-15 13:51:35,0.07574728876,0.8038986921,-0.1478293836,-5.365406036,-5.027823448,6.864176273,-1293.8173076923076,-366.00961538461536,378.0384615384616,-7719.663461538462,-1771.4423076923076,3700.394230769231,5
2024-06-15 13:51:35,0.02076941915,0.125838235,-0.1600466967,-6.330269337,-8.372523308,1.106121182,-1175.548076923077,-866.9711538461538,-118.11538461538464,-7686.009615384615,-2115.673076923077,3539.817307692308,5
2024-06-15 13:51:35,0.02076941915,0.125838235,-0.1600466967,-6.330269337,-8.372523308,1.106121182,-1833.8191489361704,-1249.968085106383,-445.0,-7717.106382978724,-1790.3297872340424,3656.563829787234,5
2024-06-15 13:51:35,-0.5216789246,-0.02565634064,0.2113593817,-5.57848978,-6.076483727,3.852270603,-798.4615384615385,-290.0,110.46153846153848,-7329.846153846154,-2308.230769230769,3473.846153846154,5
2024-06-15 13:51:35,0.8124507666,0.25167647,1.123992085,-4.331110954,-3.301604033,3.303998232,-666.3207547169811,-492.90566037735846,781.8301886792453,-7562.603773584906,-1846.264150943396,3880.5471698113206,5
2024-06-15 13:51:36,0.8124507666,0.25167647,1.123992085,-4.331110954,-3.301604033,3.303998232,-524.5961538461538,-392.8173076923077,841.5384615384615,-7503.7307692307695,-2015.8557692307693,3845.182692307693,5
2024-06-15 13:51:36,1.047023058,-2.045176744,-3.428175688,-3.232172251,-5.920860767,2.207453966,18.181818181818187,-188.0909090909091,486.0909090909091,-7663.363636363636,-1951.090909090909,4327.181818181818,5
2024-06-15 13:51:36,-3.30478096,-0.1539380401,-2.591290474,-4.465186119,-15.53836918,4.826710701,230.125,-794.4583333333334,270.45833333333337,-7229.041666666667,-1515.2083333333333,4501.833333333333,5
2024-06-15 13:51:36,-3.30478096,-0.1539380401,-2.591290474,-4.465186119,-15.53836918,4.826710701,569.8571428571429,-553.2285714285714,60.54285714285714,-7198.257142857143,-1485.2571428571428,4773.171428571429,5
2024-06-15 13:51:36,1.26815629,0.6108652353,1.425759435,-2.683900118,-11.90636539,4.19464159,419.79,-581.52,-209.25,-7191.27,-1834.81,4788.0,5
2024-06-15 13:51:36,1.26815629,0.6108652353,1.425759435,-1.491587639,-6.229712963,2.7533319,630.1730769230769,-222.17307692307693,-290.2307692307692,-7222.076923076923,-1519.6057692307693,4831.346153846154,5
2024-06-15 13:51:36,1.353677392,0.1551597714,1.653001308,-1.491587639,-6.229712963,2.7533319,636.9038461538462,-178.90384615384616,-282.53846153846155,-7202.846153846154,-1543.1634615384614,4844.807692307692,5
2024-06-15 13:51:36,-2.590068579,-0.9529497623,-0.8625417352,-1.441309452,-8.164227486,1.295263171,564.5,-1.5,-204.0,-7000.5,-1576.0,4909.0,5
2024-06-15 13:51:36,-2.590068579,-0.9529497623,-0.8625417352,-1.441309452,-8.164227486,1.295263171,86.70103092783505,1573.298969072165,-486.62886597938143,-7019.0,-1811.628865979381,4315.39175257732,5
2024-06-15 13:51:36,0.3371976018,-0.9175195694,-0.7721336484,-2.794033289,-11.39640045,3.174711466,1882.9803921568628,3872.078431372549,130.66666666666669,-7632.196078431372,-1748.862745098039,3004.9411764705883,5
2024-06-15 13:51:37,0.2700024247,-1.14231801,0.4703662395,-2.624045134,-10.89122391,1.589749932,6.346153846153868,1199.6538461538462,970.6923076923076,-8710.692307692309,-1126.6538461538462,2783.8076923076924,5
2024-06-15 13:51:37,0.2700024247,-1.14231801,0.4703662395,-2.624045134,-10.89122391,1.589749932,-924.9320388349514,-193.8446601941748,1325.5728155339807,-8201.009708737864,-1017.9708737864078,2486.631067961165,5
2024-06-15 13:51:37,-0.1392772794,-1.41720736,0.9517280459,-1.826775908,-8.724471092,0.6847416759,-707.0,160.75,587.75,-8096.25,-875.75,2927.25,5
2024-06-15 13:51:37,-1.285260439,-1.047023058,0.1185078546,-1.589749932,-9.35654068,0.6129156351,-721.7941176470588,191.8588235294117,525.2529411764706,-8253.017647058823,-750.7588235294118,2891.8529411764707,5
2024-06-15 13:51:37,-1.285260439,-1.047023058,0.1185078546,-1.589749932,-9.35654068,0.6129156351,-736.5,264.8,452.9,-8268.9,-933.7,2859.5,5
2024-06-15 13:51:37,-0.08307767659,-0.4276056588,-0.0293215327,-2.432508945,-10.22563553,0.739808321,79.03846153846153,-6.5,-16.384615384615387,-8259.403846153846,-799.8269230769231,2843.019230769231,5
2024-06-15 13:51:37,-0.2528982162,-0.4263839424,0.007330383174,-2.430114746,-9.212887764,0.5075707436,-91.63636363636364,-544.0909090909091,-39.54545454545455,-7886.909090909091,-917.4545454545456,2870.909090909091,5
2024-06-15 13:51:37,-0.2528982162,-0.4263839424,0.007330383174,-2.430114746,-9.212887764,0.5075707436,79.86138613861387,-492.73267326732673,-1128.1881188118812,-8041.40594059406,-1423.7326732673268,2722.653465346534,5
2024-06-15 13:51:37,-0.2150245607,-0.4178318381,-0.1478293836,-3.289633036,-10.42674828,-0.7326257229,2051.803921568628,-404.65686274509807,-2437.2254901960787,-8212.196078431372,-1177.921568627451,3194.735294117647,5
2024-06-15 13:51:38,-0.1368338168,-0.5619960427,-0.01466076635,-2.200271368,-8.77235508,0.03830722719,947.1923076923076,-847.3846153846154,-728.3076923076923,-8269.961538461539,-1556.1923076923076,3038.6153846153848,5
2024-06-15 13:51:38,-0.216246292,-0.06475171447,0.04764748737,-2.408566952,-9.998186111,-0.5770025849,589.5555555555555,-756.2592592592592,-93.51851851851848,-8253.0,-1603.074074074074,3017.111111111112,5
2024-06-15 13:51:38,-0.216246292,-0.06475171447,0.04764748737,-2.408566952,-9.998186111,-0.5770025849,947.7083333333334,244.375,679.625,-7736.229166666667,-1433.0833333333333,3516.75,5
2024-06-15 13:51:38,0.4764748812,0.3054326177,0.2235766798,-2.161964178,-9.375694275,-0.7062895298,451.9056603773585,31.537735849056617,895.688679245283,-7572.084905660377,-1309.9716981132076,3635.320754716981,5
2024-06-15 13:51:38,0.4764748812,0.3054326177,0.2235766798,-2.161964178,-9.375694275,-0.7062895298,-238.46534653465343,-52.46534653465346,238.7821782178218,-7851.247524752475,-1443.217821782178,3694.445544554456,5
2024-06-15 13:51:38,-0.1050688252,0.574213326,-0.09285151958,-2.418143749,-9.220070839,-0.356736064,609.8571428571429,-211.8,547.5809523809523,-7878.0,-1356.2285714285715,3479.828571428572,5
2024-06-15 13:51:38,0.3335324228,0.8747590184,0.00122173049,-2.892195702,-10.19211674,-0.7781155705,1334.1176470588234,101.29411764705884,-230.8235294117647,-7612.35294117647,-1111.1176470588234,3510.470588235294,5
2024-06-15 13:51:38,0.3335324228,0.8747590184,0.00122173049,-2.892195702,-10.19211674,-0.7781155705,1223.4285714285716,372.54285714285714,103.94285714285712,-7959.514285714285,-390.4285714285714,3580.885714285714,5
2024-06-15 13:51:38,0.3494149148,0.9517280459,0.1295034289,-3.040636063,-9.536105156,-0.5530605912,591.56,46.03,-308.93,-7902.75,-678.2,3869.9,5
2024-06-15 13:51:38,0.3494149148,0.9517280459,0.1295034289,-3.040636063,-9.536105156,-0.5530605912,2552.2523364485983,206.3738317757009,-1382.9906542056074,-7924.8317757009345,-1032.140186915888,3534.5233644859813,5
2024-06-15 13:51:39,0.4960225821,0.9150761366,0.0171042271,-2.782062292,-9.378087997,-0.8619126081,3135.564356435644,-512.5148514851485,-1128.1683168316831,-7869.059405940594,-933.2673267326732,3659.257425742576,5
2024-06-15 13:51:39,0.9114109278,1.004262447,-0.2675589919,-3.390189648,-10.17056847,-0.9337386489,2294.5209580838323,-991.2275449101796,-187.48502994011977,-7381.922155688623,-855.3532934131737,3786.688622754491,5
2024-06-15 13:51:39,0.9114109278,1.004262447,-0.2675589919,-3.390189648,-10.17056847,-0.9337386489,2064.5808383233534,-780.4491017964071,-180.2994011976048,-7364.556886227545,-864.934131736527,3817.22754491018,5
2024-06-15 13:51:39,0.2089159191,0.6951646209,-0.1930334121,-2.020706177,-8.815450668,0.7541735172,-383.7029702970297,-189.8019801980198,-338.6930693069307,-7472.60396039604,-527.4059405940594,4146.772277227723,5
2024-06-15 13:51:39,0.3506366611,0.4899139404,-0.2761110961,-1.323993564,-9.983820915,1.118092179,-479.4705882352941,-206.7058823529412,-268.6862745098039,-7493.098039215686,-499.80392156862746,4406.529411764706,5
2024-06-15 13:51:39,0.3506366611,0.4899139404,-0.2761110961,-1.323993564,-9.983820915,1.118092179,627.2912621359224,-123.97087378640776,-756.5242718446602,-7672.883495145631,-428.9126213592233,4199.281553398058,5
2024-06-15 13:51:39,0.4337143302,0.6438519955,-0.5754350424,-2.087743998,-10.51054573,2.60010314,1436.3846153846157,-927.9615384615385,-595.3076923076923,-7860.846153846154,-510.61538461538464,4112.461538461538,5
2024-06-15 13:51:39,0.4337143302,0.6438519955,-0.5754350424,-2.087743998,-10.51054573,2.60010314,1389.909090909091,-1751.2828282828282,-274.5151515151515,-6981.959595959596,-460.77777777777777,4704.767676767677,5
2024-06-15 13:51:39,0.6499606371,-0.4764748812,0.02565634064,-2.7509377,-8.755595207,1.862688899,-589.4423076923077,61.01923076923077,-91.65384615384616,-7020.769230769231,-952.2692307692308,4819.442307692308,5
2024-06-15 13:51:39,-0.1148426682,-0.3103195429,0.1685988009,-0.3136404157,-10.47702694,1.850717902,-611.5576923076923,-38.01923076923077,175.65384615384613,-7059.2307692307695,-1315.7307692307693,4741.557692307692,5
2024-06-15 13:51:40,-0.1148426682,-0.3103195429,0.1685988009,-0.3136404157,-10.47702694,1.850717902,383.34653465346537,286.84158415841586,1066.247524752475,-7309.475247524752,-291.7326732673268,4820.722772277228,5
2024-06-15 13:51:40,0.2272418737,-0.1832595766,-0.06841690838,-1.120486379,-9.643844604,1.496376038,-43.47619047619048,349.48571428571427,895.4190476190477,-6829.942857142857,526.4857142857143,5147.457142857143,5
2024-06-15 13:51:40,0.1075122803,-0.1539380401,-0.1600466967,-0.6200982332,-9.531316757,2.217030764,-864.1176470588235,1268.549019607843,1090.3529411764707,-6872.235294117647,277.3529411764706,4889.882352941177,5
2024-06-15 13:51:40,0.1075122803,-0.1539380401,-0.1600466967,-0.6200982332,-9.531316757,2.217030764,-921.5631067961164,1814.3398058252428,1390.5825242718447,-7863.291262135922,164.09708737864077,4499.553398058252,5
2024-06-15 13:51:40,0.1001819,0.3824016452,-0.1783726513,0.0718260482,-9.756371498,2.23139596,-1050.3673469387754,1072.857142857143,-486.6122448979592,-7726.326530612245,178.75510204081633,3792.734693877551,5
2024-06-15 13:51:40,0.1001819,0.3824016452,-0.1783726513,0.1197100878,-9.181763649,3.112462282,-854.0761904761905,656.1904761904761,-322.45714285714286,-7829.504761904762,157.52380952380952,3753.5238095238096,5
2024-06-15 13:51:40,0.2895501256,0.9615018964,-0.4019493461,0.1197100878,-9.181763649,3.112462282,-908.875,-378.375,-244.875,-7991.125,-166.25,3882.25,5
2024-06-15 13:51:40,-1.247386813,0.712268889,-0.4593706727,-1.206677675,-9.40681839,1.391031146,-1173.79,-805.1,-354.43,-7856.1,-237.05,3918.46,5
2024-06-15 13:51:40,-1.247386813,0.712268889,-0.4593706727,-1.206677675,-9.40681839,1.391031146,-804.2912621359224,-972.8737864077668,-214.4660194174757,-7713.126213592233,-278.63106796116506,3966.776699029126,5
2024-06-15 13:51:40,-0.5424483418,0.09407325089,0.228463605,-1.031900883,-10.02452278,0.107739076,-596.5049504950496,-417.1089108910891,-554.4554455445544,-7301.079207920792,-554.6336633663366,4235.584158415842,5
2024-06-15 13:51:41,-1.177748203,-0.3310889602,-0.06719517708,0.1628057212,-10.47702694,-1.41018486,-1013.201612903226,-80.56451612903226,-522.2983870967741,-7498.548387096775,-508.0887096774193,4419.790322580645,5
2024-06-15 13:51:41,-1.177748203,-0.3310889602,-0.06719517708,0.1628057212,-10.47702694,-1.41018486,-1135.3790322580644,7.338709677419359,-575.1209677419355,-7438.870967741936,-577.8467741935484,4386.725806451613,5
2024-06-15 13:51:41,-0.05375614017,-0.3433062732,-0.1197295859,0.0359130241,-9.828198433,-1.426944256,-1257.5564516129032,95.24193548387098,-627.9435483870968,-7379.193548387097,-647.6048387096774,4353.6612903225805,5
2024-06-15 13:51:41,-0.05375614017,-0.3433062732,-0.1197295859,0.3351882398,-10.31422138,-0.8116343617,308.2211538461538,663.8846153846154,-1276.7788461538462,-7450.3942307692305,-1440.2884615384614,4027.269230769231,5
2024-06-15 13:51:41,0.07452555746,-0.007330383174,0.109955743,0.3351882398,-10.31422138,-0.8116343617,475.8144329896907,243.9381443298969,-474.1443298969072,-7409.60824742268,-1194.1546391752577,4048.886597938144,5
2024-06-15 13:51:41,0.2638937831,-0.04520402849,0.1136209369,-0.8044517636,-10.42435455,-0.6105214357,359.53465346534654,517.1188118811881,-324.8217821782178,-7338.871287128712,-1506.4851485148515,3745.4653465346537,5
2024-06-15 13:51:41,0.2638937831,-0.04520402849,0.1136209369,-0.8044517636,-10.42435455,-0.6105214357,318.6470588235294,-25.088235294117645,-686.0882352941177,-7696.735294117647,-1506.9117647058824,3837.029411764706,5
2024-06-15 13:51:41,0.1160643995,-0.5546656251,0.2015855312,-0.7565677166,-10.73081207,-0.691924274,26.65714285714286,-224.8857142857143,-408.8857142857143,-7675.6,-1623.1714285714286,3881.028571428572,5
2024-06-15 13:51:41,0.1233947799,-0.7147123218,0.4239404798,-1.498770237,-8.343792915,-1.692700624,515.8316831683169,248.27722772277227,105.76237623762376,-7431.574257425743,-1560.5445544554457,3832.524752475248,5
2024-06-15 13:51:41,0.1233947799,-0.7147123218,0.4239404798,-1.498770237,-8.343792915,-1.692700624,278.97196261682245,-268.95327102803736,365.7663551401869,-7585.897196261682,-1322.5607476635514,3816.794392523365,5
2024-06-15 13:51:42,-1.161865711,-0.8686503768,-0.03787364438,-1.862688899,-10.48181534,-3.883395195,76.16822429906543,-164.2803738317757,542.4018691588785,-7575.616822429906,-1178.6355140186915,4096.2336448598135,5
2024-06-15 13:51:42,0.5876523852,-0.9150761366,-0.1490511149,-1.067813993,-9.33020401,-1.019929886,-611.0882352941177,-500.02941176470586,-266.0,-7365.85294117647,-1266.7941176470588,4156.676470588235,5
2024-06-15 13:51:42,0.5876523852,-0.9150761366,-0.1490511149,-1.067813993,-9.33020401,-1.019929886,-717.9417475728155,-491.1067961165049,-317.6601941747573,-7415.456310679611,-1620.6504854368932,4007.504854368932,5
2024-06-15 13:51:42,0.3824016452,0.03054326214,0.09773843735,-1.070208192,-10.33816338,-0.7182605267,-935.1730769230768,-1522.173076923077,712.3076923076924,-7662.442307692308,-1041.75,4405.096153846154,5
2024-06-15 13:51:42,0.3824016452,0.03054326214,0.09773843735,-1.070208192,-10.33816338,-0.7182605267,-2019.0288461538464,-2054.951923076923,1131.0096153846157,-6958.134615384615,-1431.1153846153843,4571.903846153846,5
2024-06-15 13:51:42,0.1295034289,0.3078760803,-0.1001819,-2.059013367,-9.557653427,-0.8140285611,-1316.2222222222222,-706.4444444444445,81.57777777777778,-6865.666666666667,-1618.1333333333332,4962.111111111111,5
2024-06-15 13:51:42,0.4874704778,0.2272418737,-0.03176499158,-1.975216389,-9.289502144,-1.206677675,-1424.057142857143,-312.45714285714286,-245.25714285714287,-6868.628571428571,-1517.2857142857142,4921.4857142857145,5
2024-06-15 13:51:42,0.4874704778,0.2272418737,-0.03176499158,-1.975216389,-9.289502144,-1.206677675,-2025.1538461538464,-388.61538461538464,-543.7692307692307,-6895.307692307692,-2066.3846153846152,4915.076923076923,5
2024-06-15 13:51:42,-0.1050688252,0.1111774743,-0.1380555481,-2.310404539,-10.12029076,-0.9911994934,-975.0650887573964,401.9112426035503,36.78698224852072,-6957.284023668639,-2573.4615384615386,4780.07100591716,5
2024-06-15 13:51:42,-0.1050688252,0.1111774743,-0.1380555481,-2.310404539,-10.12029076,-0.9911994934,-665.0059171597634,661.0828402366864,78.79881656804734,-6967.934911242603,-2565.769230769231,4532.733727810651,5
2024-06-15 13:51:43,0.1343903542,0.01343903504,-0.1026253626,-1.628057122,-10.04846478,-0.7422025204,-1562.8979591836735,-208.3877551020408,40.224489795918366,-7307.959183673469,-2131.30612244898,4419.673469387755,5
2024-06-15 13:51:43,0.1490511149,0.2492330223,-0.1282816976,-1.874659896,-9.409213066,-1.33835876,-329.3529411764706,20.960784313725483,-1029.3921568627452,-6896.0,-2719.156862745098,4418.196078431372,5
2024-06-15 13:51:43,0.4703662395,0.0,-0.009773843922,-1.230619669,-8.6957407,0.2394201756,875.0714285714286,873.6530612244898,-711.5816326530612,-7067.428571428572,-2643.1020408163267,4114.61224489796,5
2024-06-15 13:51:43,0.4703662395,0.0,-0.009773843922,-1.230619669,-8.6957407,0.2394201756,-695.1666666666666,-233.8235294117647,-94.49019607843138,-7459.049019607844,-2682.764705882353,3848.1666666666665,5
2024-06-15 13:51:43,1.033583999,0.538783133,-0.1087340117,-0.6871358752,-10.44829655,0.4261679053,753.3396226415094,590.3584905660377,1004.4716981132076,-6948.66037735849,-2587.037735849057,4043.77358490566,5
2024-06-15 13:51:43,1.033583999,0.538783133,-0.1087340117,-0.6871358752,-10.44829655,0.4261679053,2298.97,1984.8,40.13,-7414.18,-1690.5,4027.27,5
2024-06-15 13:51:43,0.441044718,0.1673770845,-0.01343903504,-1.07739079,-9.409213066,1.252167463,989.0181818181818,1901.418181818182,129.8090909090909,-7709.018181818182,-1420.0545454545454,3731.7,5
2024-06-15 13:51:43,0.441044718,0.1673770845,-0.01343903504,-1.07739079,-9.409213066,1.252167463,-984.36,1312.28,1296.08,-7384.56,-2100.0,2975.72,5
2024-06-15 13:51:43,0.3188716471,-0.1478293836,0.09896016866,-1.458068848,-10.30943298,1.508347034,-761.377358490566,1701.9056603773586,1440.377358490566,-8051.132075471698,-1780.1509433962265,2965.830188679245,5
2024-06-15 13:51:43,0.9822713137,-0.1954768747,0.1930334121,-0.5051765442,-10.21605873,4.891354084,95.63981042654028,319.2890995260664,1077.8815165876777,-8712.388625592417,-484.0616113744076,2592.383886255924,5
2024-06-15 13:51:44,0.9822713137,-0.1954768747,0.1930334121,-0.5051765442,-10.21605873,4.891354084,-422.3696682464455,83.74407582938389,721.957345971564,-8431.81990521327,-437.14218009478674,2461.5781990521327,5
2024-06-15 13:51:44,-0.7220427394,1.313360333,0.3872885704,-1.922544003,-8.877699852,5.255272865,-940.3791469194314,-151.8009478672986,366.0331753554502,-8151.251184834124,-390.22274881516586,2330.7725118483413,5
2024-06-15 13:51:44,-0.6597344875,0.9834930301,-0.1942551434,-2.22900176,-9.488221169,0.4213795066,-1238.0083333333332,-124.46666666666668,102.32916666666668,-8273.875,-560.4166666666666,2342.8875,5
2024-06-15 13:51:44,-0.6597344875,0.9834930301,-0.1942551434,-2.22900176,-9.488221169,0.4213795066,-1513.8416666666667,-71.13333333333334,-152.25416666666666,-8436.375,-752.0833333333333,2369.1375,5
2024-06-15 13:51:44,-1.031140566,-1.330464482,0.02443460934,-2.93768549,-9.026140213,-0.7086837292,-1069.0,-367.57142857142856,-208.28571428571428,-8078.857142857143,-1407.0,2342.428571428572,5
2024-06-15 13:51:44,-1.031140566,-1.330464482,0.02443460934,-2.93768549,-9.026140213,-0.7086837292,-25.203883495145647,-1024.621359223301,12.81553398058253,-7491.407766990291,-1634.2038834951456,2736.446601941748,5
2024-06-15 13:51:44,-0.9578366876,-0.48014009,-0.03298672289,-1.642422318,-10.3501339,2.844311714,-459.55882352941177,-1127.5,-385.2058823529412,-7760.0,-1452.5,3289.264705882353,5
2024-06-15 13:51:44,0.106290549,-0.05009094998,-0.07574728876,-1.951274395,-9.923966408,1.089361787,-842.4953271028037,-1253.1028037383178,-374.58878504672896,-7618.355140186916,-1189.4392523364486,3651.3177570093458,5
2024-06-15 13:51:44,0.106290549,-0.05009094998,-0.07574728876,-1.951274395,-9.923966408,1.089361787,-1245.0693641618498,-1216.4161849710983,-252.0,-7335.127167630058,-1843.670520231214,4171.369942196532,5
2024-06-15 13:51:44,-0.1979203373,0.2125810981,-0.008552113548,-2.111685991,-9.308655739,0.3974374831,-1221.3699421965318,-974.2196531791908,-352.0,-7175.0115606936415,-2081.242774566474,4178.306358381503,5
2024-06-15 13:51:45,0.48014009,0.2113593817,0.338419348,-1.690306425,-10.9008007,2.911349297,-1136.6601941747572,-585.5825242718447,-609.8155339805825,-7336.242718446602,-2047.7475728155337,3985.2718446601934,5
2024-06-15 13:51:45,0.48014009,0.2113593817,0.338419348,-1.690306425,-10.9008007,2.911349297,-733.4615384615385,-451.96153846153845,-305.8461538461538,-7179.846153846154,-2384.25,3947.576923076923,5
2024-06-15 13:51:45,-1.198517561,1.134987593,1.210734963,-3.38300705,-8.729259491,0.316034615,-55.577319587628864,-523.5670103092783,-167.22680412371133,-7237.958762886598,-2962.144329896907,4412.2474226804125,5
2024-06-15 13:51:45,-1.050688267,1.3842206,-0.6976081133,-3.53384161,-4.156333923,0.3016694188,411.6571428571429,-1155.704761904762,-158.6952380952381,-7247.7904761904765,-2690.352380952381,4635.352380952381,5
2024-06-15 13:51:45,-1.050688267,1.3842206,-0.6976081133,-3.53384161,-4.156333923,0.3016694188,1971.6504854368927,-469.6990291262136,-66.46601941747574,-6717.825242718447,-2155.019417475728,4548.766990291262,5
2024-06-15 13:51:45,-0.1343903542,0.2125810981,-0.5094616413,-2.621650934,-14.37718105,-7.702147007,1373.3444976076555,896.6459330143541,-343.3636363636364,-6977.732057416268,-1654.933014354067,4891.138755980861,5
2024-06-15 13:51:45,-0.1343903542,0.2125810981,-0.5094616413,-2.621650934,-14.37718105,-7.702147007,-19.854368932038824,1246.2815533980583,-55.79611650485437,-7052.097087378641,-1622.0776699029127,4546.582524271845,5
2024-06-15 13:51:45,1.233947754,-1.848478198,-0.6988298297,-2.473210335,-8.597578049,-1.855506301,-502.17021276595744,607.3191489361702,-30.255319148936174,-7117.744680851064,-2055.6382978723404,4090.978723404255,5
2024-06-15 13:51:45,-0.4422664344,-0.8478809595,0.08185594529,0.6464344859,-7.596801758,1.685518026,-729.0188679245283,631.3584905660377,-385.9811320754717,-7255.207547169812,-2299.3207547169814,4322.603773584906,5
2024-06-15 13:51:45,-0.4422664344,-0.8478809595,0.08185594529,0.6464344859,-7.596801758,1.685518026,288.28712871287127,608.059405940594,-540.019801980198,-7120.564356435643,-2519.1782178217823,3995.029702970297,5
2024-06-15 13:51:46,0.4178318381,-0.8332201838,-0.4911356568,-1.582567334,-9.174580574,0.1364694983,70.85714285714286,537.0,334.4,-7162.714285714285,-2216.8,4107.142857142857,5
2024-06-15 13:51:46,0.4178318381,-0.8332201838,-0.4911356568,-1.386242747,-9.828198433,0.1675941199,-275.5,379.0,61.0,-7152.5,-2483.5,3812.5,5
2024-06-15 13:51:46,1.050688267,-0.5180137157,0.3359758854,-1.386242747,-9.828198433,0.1675941199,-180.31372549019608,165.8235294117647,-145.31372549019608,-7471.725490196079,-2447.5686274509803,3937.529411764706,5
2024-06-15 13:51:46,-0.4740314186,-0.3200933933,-0.2247984111,-0.1197100878,-10.29267311,1.740584612,-798.7227722772277,-303.7623762376238,-179.03960396039605,-7362.584158415842,-2235.09900990099,3868.069306930693,5
2024-06-15 13:51:46,-1.229060888,-0.08918632567,-0.2113593817,-0.03351882473,-9.995792389,-0.7326257229,-1157.1333333333334,-5.400000000000006,338.3904761904762,-7484.171428571429,-2552.4380952380952,3691.676190476191,5
2024-06-15 13:51:46,-1.229060888,-0.08918632567,-0.2113593817,-0.03351882473,-9.995792389,-0.7326257229,-1092.0588235294117,238.8823529411765,178.05882352941177,-7486.117647058823,-2840.8823529411766,3613.8823529411766,5
2024-06-15 13:51:46,-0.7550294399,0.1673770845,-0.2309070677,-0.3711012602,-9.792284966,-1.929726601,-382.9142857142857,565.8571428571429,-53.88571428571427,-7645.457142857143,-2594.9714285714285,3276.114285714286,5
2024-06-15 13:51:46,-0.7550294399,0.1673770845,-0.2309070677,-0.3711012602,-9.792284966,-1.929726601,-611.046511627907,145.51162790697674,189.5174418604651,-7741.325581395349,-2503.9127906976746,3371.1744186046512,5
2024-06-15 13:51:46,0.2076941878,0.2199114859,0.1563815027,0.2274491638,-11.40118885,-1.594538331,-1014.780487804878,-1129.560975609756,-950.5121951219512,-7553.780487804878,-2990.7804878048782,3715.9756097560976,5
2024-06-15 13:51:46,3.231477261,1.411098719,0.9944885969,0.3615244627,-12.02128696,1.321599364,799.945054945055,-1373.010989010989,-7.230769230769226,-7131.120879120879,-2383.153846153846,4143.131868131868,5
2024-06-15 13:51:47,3.231477261,1.411098719,0.9944885969,0.3615244627,-12.02128696,1.321599364,-14.740384615384611,-250.94230769230768,428.25961538461536,-7118.259615384615,-2349.576923076923,4115.971153846154,5
2024-06-15 13:51:47,0.08674286306,1.601688623,0.5766568184,-2.640804529,-4.680664539,1.491587639,-675.0970873786408,374.7281553398058,-183.79611650485435,-7271.223300970873,-2604.398058252428,3956.456310679612,5
2024-06-15 13:51:47,0.08674286306,1.601688623,0.5766568184,-2.640804529,-4.680664539,1.491587639,-85.03703703703704,1484.5185185185185,-541.5185185185185,-6684.407407407408,-3123.0,3489.962962962963,5
2024-06-15 13:51:47,-3.409849882,1.02991879,-1.58947134,0.5554547906,-11.8680582,-5.614402771,130.73267326732673,2177.920792079208,-906.7821782178218,-6675.19801980198,-3075.6930693069307,3349.39603960396,5
2024-06-15 13:51:47,-0.3616322279,-0.908967495,-0.3652974069,-1.786074519,-11.3173914,-2.248155355,32.66336633663366,1432.1584158415842,-585.3762376237623,-7891.039603960396,-3094.970297029703,2505.8217821782177,5
2024-06-15 13:51:47,-0.3616322279,-0.908967495,-0.3652974069,-1.786074519,-11.3173914,-2.248155355,-605.6538461538462,-47.34615384615385,1051.2692307692307,-7767.346153846154,-3069.230769230769,2376.076923076923,5
2024-06-15 13:51:47,1.406211853,-0.1685988009,0.08185594529,-0.3998316824,-9.3685112,0.7565677166,-724.9038461538462,-1054.826923076923,1489.2692307692307,-8030.615384615385,-3016.471153846154,2657.980769230769,5
2024-06-15 13:51:47,0.6866125464,0.02076941915,-0.1637118906,-0.8379706144,-8.434772491,-0.7517793179,297.3960396039604,-1272.0891089108911,939.4752475247524,-6708.653465346535,-3249.762376237624,3328.831683168317,5
2024-06-15 13:51:47,0.6866125464,0.02076941915,-0.1637118906,-0.8379706144,-8.434772491,-0.7517793179,1678.4368932038835,597.6019417475728,346.50485436893206,-7480.126213592233,-2000.0582524271845,3381.8058252427186,5
2024-06-15 13:51:47,0.08429940045,-0.05375614017,-0.1954768747,-0.5841852427,-10.17056847,0.8643068075,-183.0970873786408,-457.7087378640777,625.2135922330096,-7377.912621359223,-2119.485436893204,3590.116504854369,5
2024-06-15 13:51:48,0.08429940045,-0.05375614017,-0.1954768747,-0.5841852427,-10.17056847,0.8643068075,-287.20388349514565,571.8349514563107,325.37864077669906,-7718.873786407767,-1814.47572815534,3269.21359223301,5
2024-06-15 13:51:48,-1.357342601,-0.6707300544,-0.6218608022,0.5506663918,-11.77229023,1.407790542,-1297.1634615384614,327.65384615384613,66.97115384615384,-7953.4807692307695,-1857.923076923077,3030.221153846154,5
2024-06-15 13:51:48,-0.2724458873,-0.1026253626,0.2382374406,0.1436520964,-10.44590187,-0.3687070608,-1334.0,275.6666666666667,-169.0,-7699.0,-1779.6666666666667,2934.6666666666665,5
2024-06-15 13:51:48,-0.2724458873,-0.1026253626,0.2382374406,0.1436520964,-10.44590187,-0.3687070608,-901.2929292929292,422.979797979798,-408.1515151515151,-7734.313131313132,-2303.3232323232323,2748.6666666666665,5
2024-06-15 13:51:48,0.4068362415,-0.1527163088,0.1221730486,-0.1723825186,-9.478644371,-1.321599364,-218.3793103448276,728.8045977011494,-61.60919540229885,-8003.264367816092,-2192.1954022988507,2627.586206896552,5
2024-06-15 13:51:48,-0.1588249654,-0.1233947799,0.106290549,-0.117315881,-9.562441826,-0.8427590132,282.8,-24.428571428571445,-159.37142857142857,-8289.457142857143,-2215.885714285714,2481.7714285714287,5
2024-06-15 13:51:48,-0.1588249654,-0.1233947799,0.106290549,-0.117315881,-9.562441826,-0.8427590132,683.4100000000001,-1269.25,-209.32,-7863.31,-2370.37,2738.08,5
2024-06-15 13:51:48,-0.04031710699,0.09651670605,0.09773843735,-0.1580173075,-10.25436592,-0.1436520964,1058.883495145631,-809.0485436893204,-1054.9514563106795,-7342.116504854369,-2567.466019417476,3022.883495145631,5
2024-06-15 13:51:48,-0.04031710699,0.09651670605,0.09773843735,-0.1580173075,-10.25436592,-0.1436520964,1122.6831683168316,-559.9207920792079,-1579.6633663366338,-7399.009900990099,-2353.5544554455446,3299.19801980198,5
2024-06-15 13:51:48,-0.03298672289,0.3359758854,-0.08552113175,-0.3854664862,-9.579200745,-0.4333505034,253.05769230769224,365.2980769230769,-820.3557692307693,-7150.211538461538,-1533.9903846153843,3302.875,5
2024-06-15 13:51:49,0.0,0.7757988572,-0.106290549,0.2011129409,-10.30464458,0.06703764945,-3804.835051546392,84.39175257731958,-5142.154639175258,-7221.19587628866,-3450.103092783505,3251.4329896907216,5
2024-06-15 13:51:49,0.0,0.7757988572,-0.106290549,0.2011129409,-10.30464458,0.06703764945,-1790.1132075471698,1344.264150943396,-3277.528301886792,-6839.207547169812,-4429.094339622641,2852.075471698113,5
2024-06-15 13:51:49,0.0,0.9334021211,-0.4068362415,0.3208230138,-9.852140427,0.2777273953,818.5339805825242,1498.5436893203882,1008.766990291262,-6886.592233009709,-4809.077669902913,2815.3106796116504,5
2024-06-15 13:51:49,0.4141666293,0.6743952036,-0.3115412891,0.6488286853,-10.3309803,0.653617084,1636.6666666666667,724.125,2007.5833333333333,-7727.125,-3760.5,2850.7916666666665,5
2024-06-15 13:51:49,0.4141666293,0.6743952036,-0.3115412891,0.6488286853,-10.3309803,0.653617084,823.3714285714286,-1029.895238095238,1624.3333333333333,-7368.390476190476,-3043.9904761904763,3074.8190476190475,5
2024-06-15 13:51:49,0.4019493461,0.5986479521,0.05253441259,1.221042871,-9.794678688,0.5554547906,879.4705882352941,-1264.264705882353,1873.578431372549,-7238.245098039216,-3372.0,3562.6666666666665,5
2024-06-15 13:51:49,0.4019493461,0.5986479521,0.05253441259,1.221042871,-9.794678688,0.5554547906,-194.66666666666663,-731.3333333333334,2902.333333333333,-7361.333333333333,-1757.3333333333333,3918.6666666666665,5
2024-06-15 13:51:49,0.1148426682,-0.008552113548,0.2174680233,0.2513911724,-9.799467087,0.7038952708,-1628.529411764706,-611.7058823529412,2240.764705882353,-7711.823529411765,-1509.0588235294117,3762.705882352941,5
2024-06-15 13:51:49,0.6866125464,0.2553416789,1.000597239,0.9241618514,-12.43069553,1.209071875,-930.2380952380952,232.23809523809524,1141.3333333333333,-7435.714285714285,-1684.095238095238,3527.428571428572,5
2024-06-15 13:51:49,0.6866125464,0.2553416789,1.000597239,0.9241618514,-12.43069553,1.209071875,-793.9708737864078,434.2330097087379,-589.6504854368932,-7669.194174757282,-1566.9126213592233,3247.242718446602,5
2024-06-15 13:51:50,1.246165156,0.4789183438,1.706757545,-3.002328873,-9.399636269,3.490746021,-1132.3106796116506,172.07766990291262,-1381.0194174757282,-7909.990291262135,-1844.0485436893205,3025.097087378641,5
2024-06-15 13:51:50,-0.5803219676,-0.5656611919,-0.5913175344,-3.397372246,-2.015917778,1.850717902,-1351.873786407767,1875.9320388349515,-4551.970873786408,-7124.388349514563,-2083.669902912621,3121.029126213592,5
2024-06-15 13:51:50,-0.5803219676,-0.5656611919,-0.5913175344,-3.397372246,-2.015917778,1.850717902,-770.9090909090909,1068.9272727272728,-2289.018181818182,-8378.854545454546,-3030.490909090909,2386.6363636363635,5
2024-06-15 13:51:50,0.09040805697,-0.4141666293,1.037249207,-5.188235283,-14.17367363,2.142810583,-567.8787878787879,733.169696969697,-1856.290909090909,-8240.672727272728,-3280.1878787878786,2341.181818181818,5
2024-06-15 13:51:50,0.09040805697,-0.4141666293,1.037249207,-5.188235283,-14.17367363,2.142810583,-108.44444444444446,-814.2888888888888,1097.3333333333337,-7555.444444444444,-3667.222222222222,2248.822222222222,5
2024-06-15 13:51:50,-1.02991879,-1.0995574,1.001819015,-3.677493811,-7.867346764,1.644816518,279.4117647058824,-1121.1764705882354,1543.6764705882354,-7466.882352941177,-3612.441176470588,2261.6176470588234,5
2024-06-15 13:51:50,-1.969429493,-0.9028588533,-1.364672899,-2.159569979,-5.123591423,0.672770679,1205.5643564356435,-402.13861386138615,-126.04950495049502,-6657.089108910891,-3671.009900990099,3269.772277227723,5
2024-06-15 13:51:50,-1.969429493,-0.9028588533,-1.364672899,-2.159569979,-5.123591423,0.672770679,-310.51020408163265,624.4489795918367,23.734693877551024,-8025.122448979592,-3026.3469387755104,2326.387755102041,5
2024-06-15 13:51:50,-0.8991936445,0.3469714522,-0.1991420686,-3.184288263,-8.238448143,0.3088520169,-797.0285714285715,-619.1714285714286,175.4857142857143,-7451.457142857143,-3279.228571428572,2520.228571428572,5
2024-06-15 13:51:50,0.3494149148,0.08307767659,-0.2186897546,-1.52510643,-9.979032516,0.04309562966,293.03960396039605,-555.6237623762377,504.4455445544554,-7697.267326732674,-2860.1782178217823,2860.772277227723,5
2024-06-15 13:51:51,0.3494149148,0.08307767659,-0.2186897546,-1.52510643,-9.979032516,0.04309562966,-888.8058252427185,-569.8155339805826,736.0291262135922,-7619.126213592233,-2537.1553398058254,2589.359223300971,5
2024-06-15 13:51:51,-0.4789183438,0.4862487316,0.1038470939,-1.759738207,-10.30703831,-0.9816226959,-245.63736263736263,-916.7142857142856,-382.1208791208791,-7290.10989010989,-3544.4065934065934,2911.901098901099,5
2024-06-15 13:51:51,-0.4789183438,0.4862487316,0.1038470939,-1.759738207,-10.30703831,-0.9816226959,1987.2941176470588,750.5098039215686,-782.3333333333334,-7154.833333333333,-3290.36274509804,2850.4901960784314,5
2024-06-15 13:51:51,0.05864306539,0.5094616413,0.2370157093,-2.303221941,-9.409213066,-1.379060149,1604.529411764706,726.5882352941177,61.29411764705884,-7861.235294117647,-2647.235294117647,2767.294117647059,5
2024-06-15 13:51:51,0.8894197941,0.5510004759,0.8173376918,-2.202665567,-11.26471901,-0.8164227605,515.3786407766991,-274.4174757281553,312.3495145631068,-7573.135922330097,-2504.747572815534,2826.252427184466,5
2024-06-15 13:51:51,0.8894197941,0.5510004759,0.8173376918,-2.202665567,-11.26471901,-0.8164227605,198.31683168316832,-1622.0594059405942,750.6633663366337,-7794.386138613861,-2829.4158415841584,2999.7821782178216,5
2024-06-15 13:51:51,0.8539896011,0.8197811842,0.2895501256,-3.945644379,-5.851428986,0.787692368,209.0194174757281,-1751.9223300970873,1298.2815533980583,-6885.893203883496,-2510.116504854369,3635.970873786408,5
2024-06-15 13:51:51,1.904677868,0.2797762752,-0.9651671052,-2.494758129,-11.11867237,-1.304839969,183.4230769230769,663.8076923076924,-782.7884615384615,-7269.759615384615,-2519.4326923076924,3812.875,5
2024-06-15 13:51:51,1.904677868,0.2797762752,-0.9651671052,-2.494758129,-11.11867237,-1.304839969,419.88,1175.6,-499.56,-7385.96,-2236.12,3596.6,5
2024-06-15 13:51:51,3.293785334,-0.5180137157,-0.4105014503,-2.121262789,-9.31823349,4.61362648,-557.0843373493976,1329.789156626506,-400.8072289156627,-7433.481927710844,-2618.373493975904,3033.8132530120483,5
2024-06-15 13:51:52,3.293785334,-0.5180137157,-0.4105014503,-2.121262789,-9.31823349,4.61362648,-541.4216867469879,1268.94578313253,-508.03614457831327,-7615.409638554217,-2791.867469879518,2997.0662650602408,5
2024-06-15 13:51:52,2.24187541,-0.4398229718,-0.04276056588,-1.771709204,-6.727706909,8.147468567,165.22,-450.8,-433.74,-7973.56,-2559.9,3119.4,5
2024-06-15 13:51:52,0.531452775,0.03176499158,0.1563815027,-1.436521053,-4.122815132,8.360552788,-309.3333333333333,-201.66666666666663,714.1481481481482,-7668.814814814815,-2636.333333333333,2968.3888888888887,5
2024-06-15 13:51:52,0.531452775,0.03176499158,0.1563815027,-1.436521053,-4.122815132,8.360552788,-957.6363636363636,-408.22222222222223,1485.1616161616162,-7669.929292929293,-2300.989898989899,3148.747474747475,5
2024-06-15 13:51:52,-3.092199802,0.4886921942,0.196698606,-1.685518026,-6.349422932,6.770802498,-1020.5904761904762,-728.952380952381,1702.3904761904762,-7945.933333333333,-2389.295238095238,3124.0761904761903,5
2024-06-15 13:51:52,-4.806287766,0.3078760803,-0.829554975,-0.85473001,-6.596025467,1.108515382,-1050.1142857142856,-976.5714285714286,1971.9142857142856,-7392.6,-1954.057142857143,3127.885714285714,5
2024-06-15 13:51:52,-4.806287766,0.3078760803,-0.829554975,-0.85473001,-6.596025467,1.108515382,-533.84,7.439999999999998,1772.52,-7370.96,-1531.4,3018.76,5
2024-06-15 13:51:52,2.866179705,-0.1514945775,-0.07941248268,0.3663128614,-10.93910789,-10.60152531,-161.54368932038835,216.747572815534,2111.1553398058254,-8023.621359223301,-1123.4466019417475,3339.650485436893,5
2024-06-15 13:51:52,2.866179705,-0.1514945775,-0.07941248268,0.3663128614,-10.93910789,-10.60152531,-815.1456310679612,269.0970873786408,-24.64077669902912,-7602.067961165048,-979.495145631068,3279.26213592233,5
2024-06-15 13:51:52,2.124589205,-1.120326877,1.279151797,-3.82593441,-9.047688484,-3.19625926,-515.4757281553398,93.1747572815534,-670.6990291262136,-8036.902912621359,-1275.4271844660193,3563.621359223301,5
2024-06-15 13:51:53,3.853338003,0.4459316432,0.3799581826,-1.438915253,-5.724536419,-0.6584054828,170.61224489795916,-903.4285714285714,-1351.0204081632653,-7805.081632653061,-1560.1020408163265,4024.897959183673,5
2024-06-15 13:51:53,3.853338003,0.4459316432,0.3799581826,-1.438915253,-5.724536419,-0.6584054828,686.1228070175439,-1053.122807017544,-1956.80701754386,-7089.894736842105,-1759.9649122807018,4318.631578947368,5
2024-06-15 13:51:53,2.155132532,-0.6902777553,0.6805039048,-2.480392933,-8.190564156,1.031900883,733.0833333333334,-352.79166666666663,-1812.7916666666667,-7373.697916666667,-2628.34375,4588.708333333333,5
2024-06-15 13:51:53,-0.1380555481,-0.6365215778,0.590095818,-3.488351822,-8.446743965,3.016694069,218.50980392156865,265.72549019607845,-1449.9411764705883,-6716.294117647059,-2360.6666666666665,3890.823529411765,5
2024-06-15 13:51:53,-0.1380555481,-0.6365215778,0.590095818,-3.488351822,-8.446743965,3.016694069,413.6862745098039,973.0490196078432,-1095.549019607843,-7090.098039215686,-2848.833333333333,3719.970588235294,5
2024-06-15 13:51:53,0.6951646209,-0.3066543639,0.3078760803,-3.928884983,-5.221754074,4.977545261,570.7307692307693,1048.6826923076924,-502.74038461538464,-7536.086538461538,-2837.875,3542.346153846154,5
2024-06-15 13:51:53,0.6951646209,-0.3066543639,0.3078760803,-3.928884983,-5.221754074,4.977545261,-386.54,825.85,-843.1800000000001,-7605.96,-1931.76,3217.97,5
2024-06-15 13:51:53,-0.684169054,0.0354301855,0.08429940045,-4.788403511,-9.516951561,2.8993783,159.697247706422,1111.2935779816514,-852.2844036697247,-7310.431192660551,-2821.7247706422017,2986.1284403669724,5
2024-06-15 13:51:53,0.1869247705,-0.2419026345,0.4031710625,-4.599261284,-7.20654726,4.426878929,1095.0523255813953,1818.5,-959.9011627906976,-7207.941860465116,-3078.2441860465115,2735.139534883721,5
2024-06-15 13:51:53,0.1869247705,-0.2419026345,0.4031710625,-4.599261284,-7.20654726,4.426878929,1277.0290697674418,1968.5,-738.3895348837209,-7383.523255813953,-3160.8023255813955,2853.7441860465115,5
2024-06-15 13:51:54,1.781283021,-0.216246292,0.3090978265,-5.650316238,-7.824251175,5.363011837,-685.8131868131868,-1122.7912087912089,521.7472527472528,-7657.131868131868,-3333.824175824176,2833.6593406593406,5
2024-06-15 13:51:54,-3.220481634,0.574213326,1.136209369,-1.019929886,-8.968679428,5.475539207,364.265306122449,-705.530612244898,699.1224489795918,-7405.34693877551,-2877.204081632653,2844.938775510204,5
2024-06-15 13:51:54,-3.220481634,0.574213326,1.136209369,-1.019929886,-8.968679428,5.475539207,347.873786407767,-190.7961165048544,9.524271844660197,-7781.330097087379,-2733.621359223301,3066.2912621359224,5
2024-06-15 13:51:54,-1.668883801,-0.1160643995,-2.288301229,-3.624821424,-4.065354347,0.4692635238,831.8301886792453,-200.18867924528303,151.8679245283019,-7671.226415094339,-2470.735849056604,3323.622641509434,5
2024-06-15 13:51:54,-1.668883801,-0.1160643995,-2.288301229,-3.624821424,-4.065354347,0.4692635238,759.3267326732673,-365.5247524752475,-821.5742574257425,-7369.980198019802,-2052.19801980198,3614.29702970297,5
2024-06-15 13:51:54,-0.0354301855,-0.7318165898,0.7012733221,-1.285686255,-12.76827812,5.255272865,-12.415841584158414,357.6237623762376,-268.7029702970297,-7478.227722772277,-2403.4950495049507,3271.5148514851485,5
2024-06-15 13:51:54,-0.0354301855,-0.7318165898,0.7012733221,-1.285686255,-12.76827812,5.255272865,-590.9902912621359,-211.9417475728156,-1623.0,-7929.611650485437,-2496.0485436893205,3228.9514563106795,5
2024-06-15 13:51:54,0.4605923891,0.06719517708,1.323134065,0.5746083856,-9.136273384,1.838746905,483.0943396226416,-2185.981132075472,-523.2075471698113,-7688.528301886792,-2766.679245283018,3579.943396226415,5
2024-06-15 13:51:54,-1.222952247,-0.4434881806,0.05986479297,-1.651999116,-8.530540466,1.209071875,972.46,-1946.58,-501.82,-6733.48,-3094.4,4308.4400000000005,5
2024-06-15 13:51:55,-1.222952247,-0.4434881806,0.05986479297,-1.651999116,-8.530540466,1.209071875,1250.9906542056074,-1425.8504672897195,-786.4579439252336,-6950.009345794392,-2962.551401869159,4574.205607476635,5
2024-06-15 13:51:55,1.849699974,-0.6462954283,-0.1661553532,-2.887407303,-9.806650162,4.012681961,1987.142857142857,-174.85714285714286,557.2857142857143,-6749.0,-2127.285714285714,5066.571428571428,5
2024-06-15 13:51:55,1.849699974,-0.6462954283,-0.1661553532,-2.887407303,-9.806650162,4.012681961,130.7714285714286,283.3142857142857,768.2,-6989.1809523809525,-1198.8666666666666,5019.742857142857,5
2024-06-15 13:51:55,3.857003212,-0.2040289938,0.2186897546,-1.517923832,-5.305551052,7.048529625,-1910.5643564356435,124.88118811881188,167.6039603960396,-6710.188118811881,-2127.524752475248,4625.80198019802,5
2024-06-15 13:51:55,0.3982841372,0.08063421398,0.3872885704,-0.605733037,-5.631162167,8.755595207,-1847.6601941747567,818.5242718446602,187.7766990291262,-6850.582524271845,-2838.1553398058254,4477.533980582524,5
2024-06-15 13:51:55,0.3982841372,0.08063421398,0.3872885704,-0.605733037,-5.631162167,8.755595207,-814.7014925373135,779.3880597014926,413.2089552238806,-7270.014925373134,-2240.074626865672,4376.014925373134,5
2024-06-15 13:51:55,-1.804495931,-0.3066543639,0.3115412891,-1.209071875,-4.077325344,8.291120529,-579.4285714285714,186.48571428571427,-83.1,-7508.971428571429,-1980.8,4072.1285714285714,5
2024-06-15 13:51:55,-1.308473349,-0.06597344577,0.1478293836,-1.960851192,-8.540117264,5.334281445,-1030.450980392157,1.0196078431372513,686.313725490196,-7329.549019607844,-2394.274509803922,3990.254901960785,5
2024-06-15 13:51:55,-1.308473349,-0.06597344577,0.1478293836,-1.960851192,-8.540117264,5.334281445,-1044.9607843137255,301.1470588235294,1135.7058823529412,-7237.882352941177,-2258.156862745098,3783.872549019608,5
2024-06-15 13:51:55,-1.604132175,0.5265658498,0.01343903504,-1.426944256,-9.507374763,4.632780075,-1057.0588235294117,657.2352941176471,1339.764705882353,-7093.64705882353,-2016.117647058824,3895.705882352941,5
2024-06-15 13:51:56,-1.604132175,0.5265658498,0.01343903504,-1.426944256,-9.507374763,4.632780075,-726.622641509434,-309.35849056603774,1595.7924528301887,-7866.056603773585,-2030.509433962264,4274.415094339623,5
2024-06-15 13:51:56,-0.5717698932,0.7208209634,-0.1111774743,-1.537077546,-9.454702377,2.612074137,-571.9278350515464,-12.2680412371134,1770.9175257731958,-7308.381443298969,-1609.3917525773195,4323.144329896907,5
2024-06-15 13:51:56,0.4691445231,0.9749409556,-0.1588249654,-2.22900176,-9.344569206,2.042253971,-1176.153488372093,301.16279069767444,2031.1906976744183,-7147.813953488372,-1025.2697674418605,3856.9767441860463,5
2024-06-15 13:51:56,0.4691445231,0.9749409556,-0.1588249654,-2.22900176,-9.344569206,2.042253971,-1146.386046511628,545.3488372093022,2197.237209302325,-7568.744186046511,-1069.9209302325582,4022.093023255814,5
2024-06-15 13:51:56,0.4972442985,0.7012733221,-0.1649336219,-2.671929121,-9.58638382,1.941697598,-798.7,273.4,917.1,-7939.4,-975.0,4047.15,5
2024-06-15 13:51:56,-0.4105014503,0.7745771408,-0.07819075137,-3.909731388,-9.320627213,1.948880196,-154.66666666666666,1288.1176470588234,1480.078431372549,-7658.019607843137,-329.7450980392157,3881.3333333333335,5
2024-06-15 13:51:56,-0.4105014503,0.7745771408,-0.07819075137,-3.909731388,-9.320627213,1.948880196,65.14285714285714,1133.952380952381,222.1809523809524,-8472.4,71.04761904761905,3904.3714285714286,5
2024-06-15 13:51:56,-0.0109955743,0.5277875662,-0.1478293836,-3.27287364,-9.718064308,2.837129116,279.42857142857144,829.1904761904761,-559.7238095238096,-8212.4,275.8095238095238,3641.5142857142855,5
2024-06-15 13:51:56,-0.0109955743,0.5277875662,-0.1478293836,-3.27287364,-9.718064308,2.837129116,-726.6470588235294,1018.0,-1178.6960784313726,-7421.71568627451,-231.9803921568628,2943.843137254902,5
2024-06-15 13:51:56,1.672549009,-0.07819075137,-0.2712241709,-2.63841033,-8.913613319,3.323152065,-39.28301886792451,1031.6792452830189,-1334.622641509434,-7808.320754716981,-706.6037735849056,2229.3396226415093,5
2024-06-15 13:51:57,-1.613906026,0.8820894361,-0.6133087277,-1.417367458,-4.367023945,6.909666061,1012.5,318.83333333333337,-1911.5,-8767.666666666666,-1130.0,1804.5,5
2024-06-15 13:51:57,-1.613906026,0.8820894361,-0.6133087277,-1.417367458,-4.367023945,6.909666061,1601.8910891089108,83.11881188118812,-424.5544554455446,-9448.861386138617,-972.3762376237624,1963.950495049505,5
2024-06-15 13:51:57,0.5949827433,-0.6365215778,-0.9688322544,-0.538695395,-14.7985611,2.04704237,1620.9805825242718,-1053.0679611650485,-895.6019417475728,-8038.766990291262,-978.8252427184466,2169.883495145631,5
2024-06-15 13:51:57,-1.081231475,-0.6633996367,0.2504547536,-0.4046200812,-8.796297073,3.466804028,828.7961165048544,-514.873786407767,-582.9708737864078,-7831.495145631068,-1279.9029126213593,2506.864077669903,5
2024-06-15 13:51:57,-1.081231475,-0.6633996367,0.2504547536,-0.4046200812,-8.796297073,3.466804028,565.9252336448599,-354.4579439252336,-311.1588785046729,-8018.813084112149,-1251.9158878504672,2628.457943925234,5
2024-06-15 13:51:57,0.6023131609,-0.4483750761,0.145385921,0.009576806799,-9.911994934,2.640804529,-117.72413793103448,-1134.3793103448277,126.72413793103448,-7806.264367816092,-1249.551724137931,2833.735632183908,5
2024-06-15 13:51:57,0.6023131609,-0.4483750761,0.145385921,0.009576806799,-9.911994934,2.640804529,491.0,-759.0,887.9333333333334,-7638.666666666667,-953.1333333333332,3313.133333333333,5
2024-06-15 13:51:57,0.2663372457,-0.3750712574,0.161268428,-0.2035071403,-9.612719536,1.855506301,856.4285714285714,-281.1904761904762,927.7142857142856,-7623.285714285715,-919.095238095238,3395.3809523809523,5
2024-06-15 13:51:57,-0.248011291,-0.4190535545,0.1527163088,-0.624886632,-9.646238327,3.325546265,839.2857142857143,-123.57142857142858,729.1428571428571,-7721.857142857143,-915.2857142857144,3550.1428571428573,5
2024-06-15 13:51:57,-0.248011291,-0.4190535545,0.1527163088,-0.624886632,-9.646238327,3.325546265,1586.6382978723404,786.0957446808511,992.8829787234042,-7709.659574468085,-678.7234042553191,3202.553191489362,5
2024-06-15 13:51:58,-1.331686258,-0.4996877611,0.03787364438,-0.3806780577,-9.030928612,0.8116343617,1654.782178217822,1280.3465346534654,1975.009900990099,-8264.485148514852,825.4554455445544,3095.267326732673,5
2024-06-15 13:51:58,1.79472208,0.1747074574,-0.1661553532,0.9241618514,-10.43153667,2.482787132,851.4455445544554,656.1881188118812,1584.3960396039604,-8522.039603960397,1069.9405940594058,2773.8514851485147,5
2024-06-15 13:51:58,1.79472208,0.1747074574,-0.1661553532,0.9241618514,-10.43153667,2.482787132,708.5096153846154,-659.3461538461538,-307.08653846153845,-8643.759615384615,1564.4615384615386,2775.2115384615386,5
2024-06-15 13:51:58,0.9285151958,0.6291912198,-0.3665191531,-1.170764685,-7.115567684,3.033453465,285.1523809523809,-1122.2190476190476,-1046.6190476190477,-8320.019047619047,1714.5809523809523,2811.285714285714,5
2024-06-15 13:51:58,0.9285151958,0.6291912198,-0.3665191531,-1.170764685,-7.115567684,3.033453465,-1501.26213592233,-1546.1359223300972,-1059.9611650485438,-7984.776699029127,1483.7961165048544,3189.757281553398,5
2024-06-15 13:51:58,8.107403755,-0.1490511149,-1.326799273,0.3327940404,-10.87925243,1.039083481,-3692.3714285714286,-1624.9714285714283,-1799.1142857142856,-7698.0,238.25714285714287,3712.171428571429,5
2024-06-15 13:51:58,0.06597344577,0.1221730486,0.3249803185,1.757344007,-5.75805521,9.327810287,-3164.144329896907,-924.8144329896908,-2227.4123711340208,-7069.0,-934.7938144329896,3757.350515463917,5
2024-06-15 13:51:58,0.06597344577,0.1221730486,0.3249803185,1.757344007,-5.75805521,9.327810287,-1561.0,391.0,-2073.0,-7141.5,-1918.5,3758.0,5
2024-06-15 13:51:58,-8.069529533,0.07696902007,-0.1026253626,1.496376038,-7.556100368,4.285621166,-167.63366336633658,957.3663366336634,-1683.5841584158416,-7155.722772277228,-2039.683168316832,3845.60396039604,5
2024-06-15 13:51:58,1.262047648,0.1307251602,1.578475833,-0.04070143029,-8.458714485,-6.059724331,1034.4117647058824,1047.843137254902,-1121.4019607843138,-7989.5,-1534.578431372549,3301.549019607843,5
2024-06-15 13:51:59,1.262047648,0.1307251602,1.578475833,-0.04070143029,-8.458714485,-6.059724331,539.3921568627451,416.0686274509804,-163.1764705882353,-7996.264705882353,-1569.137254901961,3584.127450980392,5
2024-06-15 13:51:59,1.192408919,-0.3909537494,0.3469714522,-0.7158663273,-8.513781548,-4.508281708,244.7799043062201,-84.12918660287082,263.66985645933016,-7823.626794258374,-1651.0861244019138,3637.349282296651,5
2024-06-15 13:51:59,-0.05375614017,-0.1624901593,0.6389650702,-1.517923832,-8.710105896,-3.8642416,243.3444976076555,-221.92822966507177,511.51674641148327,-7625.540669856459,-1642.952153110048,3676.583732057417,5
2024-06-15 13:51:59,-0.05375614017,-0.1624901593,0.6389650702,-1.517923832,-8.710105896,-3.8642416,-570.82,-903.66,323.36,-7825.26,-788.74,3739.88,5
2024-06-15 13:51:59,-0.3848451078,-0.2528982162,-0.1893682331,-1.680729628,-8.379706383,-4.541800499,-977.0560747663552,-708.196261682243,214.41121495327104,-7490.971962616823,-1267.7570093457944,4099.981308411215,5
2024-06-15 13:51:59,-0.3848451078,-0.2528982162,-0.1893682331,-1.680729628,-8.379706383,-4.541800499,-500.8865979381444,94.76288659793816,-55.81443298969072,-7736.422680412371,-1311.041237113402,4145.618556701031,5
2024-06-15 13:51:59,0.3848451078,-0.4813618064,0.3469714522,-2.853888512,-7.694964409,-5.379771233,-580.6,101.4,320.0,-7403.6,-1282.6,4032.6,5
2024-06-15 13:51:59,0.58276546,0.00122173049,-0.1295034289,-3.153163671,-8.58081913,-3.904942989,50.44230769230768,41.75,-145.49038461538464,-7381.865384615385,-1452.3653846153843,4172.240384615385,5
2024-06-15 13:51:59,0.58276546,0.00122173049,-0.1295034289,-3.153163671,-8.58081913,-3.904942989,425.7281553398058,-28.67961165048544,-149.2135922330097,-7466.990291262135,-1474.873786407767,4154.631067961165,5
2024-06-15 13:51:59,-0.8051204085,0.0171042271,-0.1392772794,-2.11647439,-9.25358963,-4.230554581,233.0196078431373,254.15686274509804,-143.72549019607845,-7744.686274509804,-1283.3333333333333,4148.196078431372,5
2024-06-15 13:52:00,-0.8051204085,0.0171042271,-0.1392772794,-2.487575531,-8.530540466,-3.552995205,455.5687203791469,109.70142180094788,-519.2132701421801,-7951.469194312796,-1262.3838862559242,3823.2511848341233,5
2024-06-15 13:52:00,-0.4007275999,0.1685988009,0.5473352671,-2.487575531,-8.530540466,-3.552995205,308.17535545023696,-15.417061611374407,-451.4407582938389,-7962.369668246445,-1180.39336492891,3818.9857819905214,5
2024-06-15 13:52:00,0.1026253626,0.7061602473,0.1991420686,-4.352658749,-6.129156113,-5.437232018,-441.72,-265.47,-192.71,-7720.31,-992.63,3879.05,5
2024-06-15 13:52:00,0.1026253626,0.7061602473,0.1991420686,-4.352658749,-6.129156113,-5.437232018,-249.14,326.06,-290.48,-7674.06,-1345.24,4062.02,5
2024-06-15 13:52:00,0.1197295859,0.0232128799,-0.2382374406,-2.106897593,-8.626308441,-5.506663799,-571.5544554455446,122.84158415841584,-200.04950495049505,-7692.9009900990095,-1452.7128712871288,3764.7425742574255,5
2024-06-15 13:52:00,0.2138028294,0.06841690838,0.3127630055,-4.003105164,-7.84340477,-4.675876141,-263.71844660194176,-570.2815533980582,216.747572815534,-7799.563106796117,-1207.0776699029127,3859.669902912621,5
2024-06-15 13:52:00,0.2138028294,0.06841690838,0.3127630055,-4.003105164,-7.84340477,-4.675876141,5.346153846153847,-149.84615384615384,-156.84615384615384,-7369.038461538462,-1382.923076923077,3850.538461538461,5
2024-06-15 13:52:00,0.1050688252,0.09162978828,-0.3078760803,-3.16034627,-7.345410824,-5.252878666,242.62376237623764,499.5841584158416,27.86138613861386,-7333.40594059406,-1181.9108910891089,3804.524752475248,5
2024-06-15 13:52:00,-0.3628539443,-0.1808161139,0.2138028294,-2.027888775,-10.01973438,-4.934449673,293.4766355140187,506.4579439252336,295.94392523364485,-7669.747663551402,-1560.140186915888,3749.3271028037375,5
2024-06-15 13:52:00,-0.3628539443,-0.1808161139,0.2138028294,-2.027888775,-10.01973438,-4.934449673,141.14018691588785,-247.74766355140184,190.3364485981309,-7944.514018691589,-1374.1588785046729,3782.03738317757,5
