Timestamp,Gyro_x_x,Gyro_y_x,Gyro_z_x,Acc_x_x,Acc_y_x,Acc_z_x,Gyro_x_y,Gyro_y_y,Gyro_z_y,Acc_x_y,Acc_y_y,Acc_z_y,combined_action_num
15-06-2024 11:28,0.172263995,0.058643065,-0.047647487,-0.883460403,-9.694122314,1.139639974,52.72222222222222,-6.472222222,74.53472222222223,-8229.534722,1496.0,-672.0,11
15-06-2024 11:28,-0.039095376,0.02321288,-0.065973446,-0.804451764,-9.88805294,1.125274777,57.65714285714286,-38.31428571,83.85714285714286,-8229.657143,1513.0857142857142,-679.2285714,11
15-06-2024 11:28,0.04642576,-0.017104227,-0.018325957,-0.756567717,-10.02212811,1.173158884,37.0431654676259,-124.3453237,64.81294964028777,-8208.0,1530.8848920863309,-682.1007194,11
15-06-2024 11:28,0.025656341,0.004886922,0.013439035,-0.737414122,-9.99100399,1.185129881,39.20143884892087,58.3884892086331,55.460431654676256,-8208.0,1525.1294964028775,-687.1366906,11
15-06-2024 11:28,0.025656341,0.004886922,0.013439035,-0.737414122,-9.99100399,1.185129881,30.227272727272727,98.9090909090909,98.5340909090909,-8208.852273,1522.375,-680.3068182,11
15-06-2024 11:28,0.299323976,-0.029321533,-0.073303826,-0.59615624,-9.761159897,1.59693253,26.69047619047619,20.30952380952381,61.07142857142857,-8206.404762,1691.095238095238,-685.5714286,11
15-06-2024 11:28,0.299323976,-0.029321533,-0.073303826,-0.59615624,-9.761159897,1.59693253,39.86516853932584,-117.6966292,50.69662921348315,-8224.224719,1504.4719101123596,-691.1123596,11
15-06-2024 11:28,0.101403631,-0.05375614,-0.006108652,-0.691924274,-9.821015358,1.37427175,77.91954022988506,32.34482758620689,70.85057471264368,-8215.574713,1524.7931034482758,-701.3563218,11
15-06-2024 11:29,0.230907068,-0.178372651,-0.007330383,-0.919373453,-8.413225174,1.59693253,58.48888888888889,91.74444444444444,72.95555555555555,-8211.533333,1516.5555555555557,-686.3444444,11
15-06-2024 11:29,0.230907068,-0.178372651,-0.007330383,-0.919373453,-8.413225174,1.59693253,52.04651162790698,-93.39534884,81.72093023255815,-8203.976744,1771.4883720930234,-702.3488372,11
15-06-2024 11:29,-0.052534413,-0.039095376,-0.035430186,-0.624886632,-9.768342972,2.317587137,34.88372093023256,73.83720930232558,87.83720930232558,-8196.232558,1815.4883720930231,-710.8837209,11
15-06-2024 11:29,-0.052534413,-0.039095376,-0.035430186,-0.624886632,-9.768342972,2.317587137,12.4,95.6,54.4,-8202.4,1744.6,-683.2,11
15-06-2024 11:29,-0.0842994,0.052534413,0.052534413,-0.620098233,-9.39484787,2.109291792,20.921348314606742,116.51685393258428,21.97752808988764,-8204.224719,1497.3370786516855,-666.8314607,11
15-06-2024 11:29,-0.0842994,0.052534413,0.052534413,-0.620098233,-9.39484787,2.109291792,64.93333333333334,110.77777777777776,56.8,-8231.644444,1487.2888888888888,-661.9111111,11
15-06-2024 11:29,-0.291993588,-0.004886922,-0.147829384,-0.526724398,-9.751583099,1.642422318,74.84210526315789,73.15789473684211,80.42105263157895,-8207.710526,1524.1315789473683,-675.4210526,11
15-06-2024 11:29,-0.287106663,0.037873644,-0.064751714,-0.404620081,-10.09156036,0.730231524,72.21052631578948,75.78947368421052,79.10526315789474,-8207.052632,1522.157894736842,-674.1052632,11
15-06-2024 11:29,-0.287106663,0.037873644,-0.064751714,-0.404620081,-10.09156036,0.730231524,12.093023255813954,-104.8255814,7.860465116279069,-8236.651163,1507.953488372093,-671.2674419,11
15-06-2024 11:29,-0.054977871,-0.012217305,-0.057421334,-0.143652096,-10.12747288,1.206677675,27.651685393258425,108.75280898876404,12.651685393258427,-8250.52809,1468.7752808988764,-668.2696629,11
15-06-2024 11:29,-0.141720742,0.025656341,-0.006108652,-0.14844051,-9.969455719,0.859518409,30.099447513812155,102.42541436464089,56.6243093922652,-8216.049724,1469.624309392265,-685.4475138,11
15-06-2024 11:29,-0.701273322,0.074525557,0.02687807,-0.270544797,-10.0412817,-0.586579442,95.1931818181818,90.70454545454544,84.22727272727273,-8229.738636,1482.4772727272727,-659.9318182,11
15-06-2024 11:29,-0.701273322,0.074525557,0.02687807,-0.270544797,-10.0412817,-0.586579442,97.0,72.44444444444444,72.06666666666666,-8229.333333,1506.5555555555557,-670.9555556,11
15-06-2024 11:29,-0.711047173,-0.07696902,0.036651913,-0.138863698,-10.24718285,-0.969651699,82.64367816091954,86.7816091954023,72.67816091954023,-8213.62069,1516.2298850574712,-651.1494253,11
15-06-2024 11:29,-0.216246292,-0.10751228,-0.040317107,-0.227449164,-9.591172218,-0.663193882,35.33695652173913,-114.6847826,65.21739130434783,-8227.184783,1505.1521739130435,-647.0652174,11
15-06-2024 11:29,-0.216246292,-0.10751228,-0.040317107,-0.227449164,-9.591172218,-0.663193882,26.55555555555556,111.55555555555556,60.73333333333333,-8240.177778,1470.111111111111,-647.8444444,11
15-06-2024 11:29,-0.206472457,0.04642576,0.028099801,-0.165199921,-10.25436592,-1.805228114,29.011494252873565,-65.79310345,86.29885057471265,-8224.471264,1505.7471264367816,-647.5287356,11
15-06-2024 11:29,-0.136833817,0.034208454,0.009773844,-0.292092621,-9.821015358,-2.042253971,24.59550561797753,-83.17977528,68.48314606741573,-8219.05618,1499.943820224719,-664.1910112,11
15-06-2024 11:29,0.129503429,0.057421334,0.112399206,-0.244208574,-9.670180321,-2.324769735,78.93023255813954,89.11627906976744,77.87209302325581,-8229.837209,1498.9883720930231,-668.0697674,11
15-06-2024 11:29,0.129503429,0.057421334,0.112399206,-0.244208574,-9.670180321,-2.324769735,82.1685393258427,98.3932584269663,92.80898876404494,-8212.573034,1521.1011235955057,-652.0,11
15-06-2024 11:29,-0.006108652,0.028099801,0.140499011,-0.177170932,-9.861717224,-2.102109194,26.255172413793105,-123.9034483,91.5793103448276,-8215.765517,1580.7862068965517,-642.0,11
15-06-2024 11:29,0.340862811,0.037873644,0.02321288,-0.438138902,-9.651026726,-2.264914751,23.49655172413793,-108.7310345,82.61379310344827,-8207.489655,1761.4758620689654,-642.0,11
15-06-2024 11:29,0.340862811,0.037873644,0.02321288,-0.438138902,-9.651026726,-2.264914751,-277.7294118,-111.1294118,58.8,-8225.094118,1502.5176470588235,-675.3647059,11
15-06-2024 11:29,0.21013765,-0.002443461,0.035430186,-0.524330199,-9.732429504,-1.577778935,17.0,123.45454545454544,40.72727272727273,-8211.272727,1516.8181818181818,-709.0,11
15-06-2024 11:29,0.21013765,-0.002443461,0.035430186,-0.524330199,-9.732429504,-1.577778935,15.589041095890412,-123.2123288,60.67123287671233,-8213.575342,1494.082191780822,-686.9178082,11
15-06-2024 11:29,0.201585531,-0.021991149,-0.004886922,-0.541089594,-9.854534149,-1.436521053,64.21875,119.5625,98.96875,-8228.96875,1506.75,-687.78125,11
15-06-2024 11:29,-0.004886922,0.00122173,-0.073303826,-0.562637389,-9.751583099,-1.333570361,-270.6136364,116.8409090909091,65.31818181818181,-8208.068182,1830.886363636364,-692.8636364,11
15-06-2024 11:29,-0.004886922,0.00122173,-0.073303826,-0.562637389,-9.751583099,-1.333570361,-303.0444444,-110.4222222,-274.8444444,-8210.488889,1771.3555555555556,-670.1777778,11
15-06-2024 11:29,0.065973446,-0.02687807,-0.041538838,-0.450109929,-10.0508585,-1.285686255,-213.3820225,-97.61797753,-48.04494382,-8224.58427,1467.8988764044943,-701.0449438,11
15-06-2024 11:29,0.564439476,0.007330383,0.021991149,-0.521935999,-9.885659218,-0.993593693,-280.0,116.78651685393258,26.157303370786515,-8232.191011,1440.6067415730338,-688.8764045,11
15-06-2024 11:29,0.564439476,0.007330383,0.021991149,-0.521935999,-9.885659218,-0.993593693,13.538461538461538,111.2087912087912,73.25274725274726,-8212.186813,1465.5604395604396,-672.8351648,11
15-06-2024 11:29,0.19058995,-0.010995574,0.025656341,-0.476446152,-10.06761837,-0.272938997,18.873563218390807,1.632183908045974,51.94252873563218,-8212.103448,1498.9310344827586,-680.0229885,11
15-06-2024 11:29,0.19058995,-0.010995574,0.025656341,-0.476446152,-10.06761837,-0.272938997,-265.7272727,-123.6363636,15.636363636363637,-8235.454545,1455.2727272727273,-686.8181818,11
15-06-2024 11:29,0.217468023,-0.024434609,-0.04642576,-0.548272193,-9.940725327,-0.011971008,54.422222222222224,107.32222222222222,45.25555555555555,-8225.533333,1444.4666666666667,-693.4666667,11
15-06-2024 11:29,0.052534413,-0.002443461,-0.010995574,-0.454898328,-9.823410034,0.153228909,52.58139534883721,90.55813953488372,69.46511627906978,-8205.697674,1444.5581395348838,-680.5581395,11
15-06-2024 11:29,0.052534413,-0.002443461,-0.010995574,-0.454898328,-9.823410034,0.153228909,76.55555555555556,114.46666666666668,98.28888888888888,-8220.733333,1471.8444444444444,-680.3777778,11
15-06-2024 11:29,-0.030543262,-0.007330383,0.007330383,-0.356736064,-9.943120003,0.105344877,68.62937062937063,96.11888111888112,63.55244755244755,-8213.552448,1455.958041958042,-689.5804196,11
15-06-2024 11:29,-0.035430186,-0.00122173,0.020769419,-0.466869324,-10.19211674,0.01436521,79.11888111888112,81.43356643356643,89.42657342657343,-8239.426573,1455.258741258741,-682.5874126,11
15-06-2024 11:29,-0.035430186,-0.00122173,0.020769419,-0.466869324,-10.19211674,0.01436521,60.41860465116279,102.19767441860463,92.2906976744186,-8221.744186,1490.093023255814,-674.8023256,11
15-06-2024 11:29,0.019547688,0.003665192,-0.00122173,-0.531512797,-10.0556469,0.14844051,77.0,119.4,95.8,-8220.8,1479.4,-672.6,11
15-06-2024 11:29,0.019547688,0.003665192,-0.00122173,-0.531512797,-10.0556469,0.14844051,77.0,120.45263157894738,90.01052631578948,-8230.8,1477.821052631579,-663.6526316,11
15-06-2024 11:29,0.030543262,-0.007330383,-0.003665192,-0.433350503,-9.974244118,0.10295067,56.10526315789474,101.15789473684212,110.10526315789474,-8219.736842,1508.8947368421052,-678.3684211,11
15-06-2024 11:29,0.042760566,-0.003665192,-0.008552114,-0.390254885,-10.00297451,0.263362199,40.29655172413793,-0.586206897,94.60689655172412,-8205.772414,1527.2344827586207,-690.6137931,11
15-06-2024 11:29,0.042760566,-0.003665192,-0.008552114,-0.390254885,-10.00297451,0.263362199,35.368421052631575,-114.8421053,54.73684210526316,-8224.052632,1517.6842105263158,-690.7368421,11
15-06-2024 11:29,-0.003665192,-0.002443461,-0.014660766,-0.40940848,-10.05804157,0.318428814,20.04819277108433,97.43373493975903,27.09638554216868,-8242.421687,1486.3373493975903,-681.5060241,11
15-06-2024 11:29,-0.058643065,-0.006108652,0.024434609,-0.438138902,-10.12029076,-0.04070143,58.57142857142857,88.5,18.88095238095238,-8207.190476,1501.8333333333333,-679.9285714,11
15-06-2024 11:29,-0.058643065,-0.006108652,0.024434609,-0.438138902,-10.12029076,-0.04070143,32.833333333333336,-86.0,40.0,-8219.166667,1449.5,-660.6666667,11
15-06-2024 11:29,0.061086524,-0.00122173,0.00122173,-0.495599747,-9.967061996,0.181959331,61.7752808988764,49.89887640449439,59.831460674157306,-8229.438202,1462.112359550562,-667.7078652,11
15-06-2024 11:29,0.061086524,-0.00122173,0.00122173,-0.495599747,-9.967061996,0.181959331,62.84883720930232,112.59302325581396,71.55813953488372,-8220.77907,1497.813953488372,-681.5232558,11
15-06-2024 11:29,0.035430186,-0.00122173,-0.006108652,-0.385466486,-10.04846478,0.179565132,83.66292134831461,-5.359550562,-135.6404494,-8213.617978,1515.7640449438202,-701.2359551,11
15-06-2024 11:29,0.031764992,0.017104227,-0.042760566,-0.469263524,-10.03409958,0.407014281,32.6,-106.3052632,-263.3052632,-8219.968421,1475.115789473684,-691.5789474,11
15-06-2024 11:29,0.031764992,0.017104227,-0.042760566,-0.469263524,-10.03409958,0.407014281,64.8875,-120.8,26.325,-8240.625,1448.6875,-692.7375,11
15-06-2024 11:29,-0.101403631,-0.024434609,0.015882496,-0.294486821,-10.07480049,0.110133275,23.60465116279069,75.20930232558139,111.76744186046513,-8240.348837,1459.953488372093,-692.4651163,11
15-06-2024 11:29,-0.101403631,-0.024434609,0.015882496,-0.294486821,-10.07480049,0.110133275,40.83068783068783,79.91534391534391,93.46031746031746,-8224.89418,1473.312169312169,-694.0,11
15-06-2024 11:29,0.025656341,0.00122173,-0.008552114,-0.387860686,-9.959878922,0.119710088,58.82010582010582,88.91005291005291,63.3015873015873,-8211.137566,1483.8941798941798,-694.0,11
15-06-2024 11:29,0.017104227,-0.007330383,-0.029321533,-0.359130263,-10.12986755,0.20350714,69.67307692307692,112.2051282051282,64.36538461538461,-8242.673077,1449.1089743589744,-685.6730769,11
15-06-2024 11:29,0.017104227,-0.007330383,-0.029321533,-0.359130263,-10.12986755,0.20350714,67.75,84.0,54.75,-8240.75,1449.75,-683.75,11
15-06-2024 11:29,-0.04642576,0.020769419,-0.02321288,-0.270544797,-10.03409958,0.241814375,74.89655172413794,96.55172413793105,48.793103448275865,-8225.172414,1462.1379310344828,-669.862069,11
15-06-2024 11:29,-0.127059966,-0.017104227,0.019547688,-0.313640416,-9.895236015,0.107739076,32.56521739130435,0.3913043478260931,35.95652173913044,-8216.478261,1443.304347826087,-685.3043478,11
15-06-2024 11:29,-0.127059966,-0.017104227,0.019547688,-0.313640416,-9.895236015,0.107739076,22.68181818181818,-29.90909091,16.863636363636363,-8245.772727,1436.5,-677.0909091,11
15-06-2024 11:29,0.017104227,-0.00122173,-0.003665192,-0.311246216,-10.07480049,0.01436521,29.0,89.61111111111111,75.44444444444444,-8226.888889,1509.0,-680.3888889,11
15-06-2024 11:29,0.113620937,-0.012217305,-0.007330383,-0.227449164,-10.14902115,0.002394202,76.97402597402598,107.88311688311688,62.75324675324676,-8246.792208,1416.3766233766237,-693.5064935,11
15-06-2024 11:29,0.113620937,-0.012217305,-0.007330383,-0.227449164,-10.14902115,0.002394202,117.3846153846154,42.79120879120879,50.175824175824175,-8256.384615,1642.3186813186812,-684.7472527,11
15-06-2024 11:29,0.041538838,0.002443461,-0.014660766,-0.306457818,-10.10353088,0.339976639,-88.43010753,-252.4731183,109.59139784946235,-8236.483871,1433.4301075268818,-891.3978495,11
15-06-2024 11:29,0.041538838,0.002443461,-0.014660766,-0.306457818,-10.10353088,0.339976639,-102.8072289,29.373493975903614,121.50602409638554,-8220.60241,1453.0481927710844,-862.6385542,11
15-06-2024 11:29,0.045204028,-0.006108652,-0.007330383,-0.191536129,-9.967061996,0.493205547,42.4,53.22352941176471,68.48235294117647,-8228.647059,1461.129411764706,-842.2941176,11
15-06-2024 11:29,-0.025656341,-0.003665192,0.004886922,-0.227449164,-10.10353088,0.421379507,23.163043478260867,-99.59782609,59.81521739130434,-8231.793478,1445.9782608695652,-841.3804348,11
15-06-2024 11:29,-0.025656341,-0.003665192,0.004886922,-0.227449164,-10.10353088,0.421379507,-120.5505618,-96.71910112,-123.6516854,-8241.685393,1459.0,-885.4494382,11
15-06-2024 11:29,0.003665192,-0.002443461,-0.00122173,-0.225054964,-10.11550236,0.509964943,8.701149425287356,-94.87356322,-77.10344828,-8225.586207,1434.551724137931,-741.137931,11
15-06-2024 11:29,0.003665192,-0.002443461,-0.00122173,-0.225054964,-10.11550236,0.509964943,21.24468085106383,-68.23404255,52.96808510638297,-8220.925532,1487.8297872340424,-666.8404255,11
15-06-2024 11:29,0.002443461,0.00122173,0.0,-0.241814375,-10.06522369,0.390254885,50.9873417721519,-122.6329114,85.27848101265823,-8237.341772,1484.0,-671.556962,11
15-06-2024 11:29,0.150272846,0.006108652,-0.032986723,-0.193930343,-10.06522369,0.682347477,74.03370786516854,89.53932584269663,75.0561797752809,-8222.213483,1507.7752808988764,-657.988764,11
15-06-2024 11:29,0.150272846,0.006108652,-0.032986723,-0.193930343,-10.06522369,0.682347477,45.23741007194245,87.0,61.54676258992806,-8228.618705,1502.3093525179856,-894.381295,11
15-06-2024 11:29,-0.122173049,-0.02321288,0.032986723,-0.217872351,-10.12986755,0.469263524,46.86046511627907,83.96511627906978,63.33720930232558,-8223.348837,1494.953488372093,-890.8255814,11
15-06-2024 11:29,-0.010995574,-0.008552114,-0.010995574,-0.179565132,-10.06282997,0.407014281,-76.13333333,-49.51111111,62.51111111111111,-8221.666667,1489.0,-645.0444444,11
15-06-2024 11:29,-0.010995574,-0.008552114,-0.010995574,-0.179565132,-10.06282997,0.407014281,0.4868421052631579,-112.2434211,79.5657894736842,-8235.0,1501.217105263158,-665.7565789,11
15-06-2024 11:29,-0.021991149,-0.004886922,0.021991149,-0.311246216,-10.00297451,0.533906996,1.8026315789473684,-112.9013158,72.98684210526315,-8235.0,1504.5065789473683,-665.0986842,11
15-06-2024 11:29,-0.021991149,-0.004886922,0.021991149,-0.311246216,-10.00297451,0.533906996,45.91566265060241,27.385542168674704,67.07228915662651,-8240.144578,1465.0843373493976,-658.3253012,11
15-06-2024 11:29,-0.047647487,0.0,0.009773844,-0.342370838,-9.988609314,0.347159237,96.75581395348836,109.22093023255816,106.48837209302326,-8244.802326,1503.8023255813953,-659.4651163,11
15-06-2024 11:29,0.012217305,-0.002443461,-0.003665192,-0.351947635,-10.02452278,0.426167905,74.75862068965517,68.0,88.25287356321839,-8221.011494,1521.8735632183907,-862.2643678,11
15-06-2024 11:29,0.012217305,-0.002443461,-0.003665192,-0.351947635,-10.02452278,0.426167905,28.43820224719101,112.8314606741573,44.30337078651685,-8222.831461,1530.0337078651685,-884.3707865,11
15-06-2024 11:29,-0.015882496,0.00122173,-0.002443461,-0.253785372,-9.995792389,0.380678058,-11.14117647,121.43529411764706,-248.6705882,-8228.623529,1473.529411764706,-641.1411765,11
15-06-2024 11:29,0.028099801,0.013439035,-0.012217305,-0.301669419,-9.933543205,0.466869324,43.01098901098901,96.0,80.4065934065934,-8249.472527,1478.7472527472528,-655.5824176,11
15-06-2024 11:29,0.028099801,0.013439035,-0.012217305,-0.301669419,-9.933543205,0.466869324,-52.01123596,93.26966292134831,71.02247191011236,-8218.146067,1495.573033707865,-732.988764,11
15-06-2024 11:29,-0.012217305,-0.018325957,0.010995574,-0.251391172,-10.02212811,0.438138902,-148.4204545,18.818181818181813,51.31818181818182,-8214.943182,1473.3181818181818,-889.8409091,11
15-06-2024 11:29,-0.012217305,-0.018325957,0.010995574,-0.251391172,-10.02212811,0.438138902,9.539325842696629,-106.505618,54.47191011235955,-8230.303371,1455.9213483146068,-885.0898876,11
15-06-2024 11:29,-0.028099801,-0.010995574,0.013439035,-0.222660765,-10.11310768,0.416591108,51.52272727272727,32.25,64.29545454545455,-8237.75,1464.25,-810.4318182,11
15-06-2024 11:29,-0.042760566,-0.00122173,-0.009773844,-0.277727395,-9.995792389,0.426167905,64.7159090909091,112.04545454545456,86.47727272727273,-8218.238636,1479.284090909091,-834.3863636,11
15-06-2024 11:29,-0.042760566,-0.00122173,-0.009773844,-0.277727395,-9.995792389,0.426167905,53.74025974025974,-9.603896104,81.38311688311688,-8221.077922,1487.6948051948052,-773.4220779,11
15-06-2024 11:29,-0.017104227,-0.003665192,-0.00122173,-0.234631762,-10.05804157,0.287304193,66.57142857142857,98.53571428571428,53.96428571428572,-8253.964286,1451.107142857143,-851.2857143,11
15-06-2024 11:29,-0.017104227,-0.003665192,-0.00122173,-0.282515794,-10.01733971,0.402225882,49.61176470588235,66.95294117647059,87.61176470588235,-8209.211765,1499.929411764706,-887.7529412,11
15-06-2024 11:29,0.02687807,-0.006108652,0.020769419,-0.282515794,-10.01733971,0.402225882,38.775,68.5875,75.9875,-8214.6625,1496.65,-879.65,11
15-06-2024 11:29,0.118507855,0.004886922,-0.007330383,-0.301669419,-10.13944435,0.433350503,37.525,-67.0375,70.3625,-8212.7875,1489.15,-872.15,11
15-06-2024 11:29,0.118507855,0.004886922,-0.007330383,-0.301669419,-10.13944435,0.433350503,43.68817204301075,-104.2795699,76.84946236559139,-8228.731183,1489.2903225806451,-892.1505376,11
15-06-2024 11:29,-0.013439035,0.007330383,-0.036651913,-0.18435353,-9.940725327,0.577002585,36.14117647058824,2.352941176470594,70.14117647058823,-8226.482353,1490.070588235294,-650.5176471,11
15-06-2024 11:29,-0.017104227,-0.018325957,0.006108652,-0.222660765,-10.18972206,0.44532153,26.876404494382022,-108.8764045,74.35955056179775,-8228.966292,1497.9213483146068,-670.0449438,11
15-06-2024 11:29,-0.017104227,-0.018325957,0.006108652,-0.222660765,-10.18972206,0.44532153,33.95555555555556,64.5,46.25555555555555,-8226.6,1476.977777777778,-666.4666667,11
15-06-2024 11:29,0.012217305,-0.004886922,0.006108652,-0.301669419,-9.866505623,0.497993946,42.73033707865169,99.34831460674158,109.3258426966292,-8232.292135,1483.8314606741574,-665.1460674,11
15-06-2024 11:29,-0.010995574,0.008552114,0.006108652,-0.328005642,-9.983820915,0.48362875,50.07608695652174,95.71739130434784,66.3913043478261,-8230.119565,1477.8804347826087,-872.1304348,11
15-06-2024 11:29,0.00122173,-0.003665192,0.00122173,-0.385466486,-10.0604353,0.390254885,55.26436781609196,109.16091954022988,68.816091954023,-8234.977011,1503.367816091954,-650.2068966,11
15-06-2024 11:29,0.00122173,-0.003665192,0.00122173,-0.385466486,-10.0604353,0.390254885,40.52173913043478,109.65217391304348,67.6086956521739,-8217.043478,1499.0869565217392,-660.173913,11
15-06-2024 11:29,0.064751714,-0.003665192,-0.015882496,-0.344765037,-9.825803757,0.423773706,22.8953488372093,-123.3372093,70.84883720930233,-8231.186047,1510.186046511628,-664.4069767,11
15-06-2024 11:29,0.05375614,0.00122173,-0.014660766,-0.272938997,-9.993397713,0.512359142,37.95555555555556,12.122222222222234,53.22222222222222,-8233.266667,1506.8222222222223,-666.0888889,11
15-06-2024 11:29,0.05375614,0.00122173,-0.014660766,-0.272938997,-9.993397713,0.512359142,31.08450704225352,88.64788732394366,52.78873239436619,-8241.126761,1486.8169014084508,-650.1267606,11
15-06-2024 11:29,-0.073303826,-0.009773844,-0.004886922,-0.256179571,-10.00536919,0.507570744,39.05128205128205,82.1025641025641,65.64102564102564,-8233.179487,1494.5641025641023,-657.3589744,11
15-06-2024 11:29,-0.073303826,-0.009773844,-0.004886922,-0.256179571,-10.00536919,0.507570744,67.19318181818181,105.0681818181818,49.70454545454545,-8227.738636,1489.8181818181818,-659.0795455,11
15-06-2024 11:29,-0.063529983,0.006108652,0.028099801,-0.328005642,-9.959878922,0.430956304,49.47191011235955,100.06741573033707,45.1123595505618,-8220.157303,1472.426966292135,-649.2696629,11
15-06-2024 11:29,-0.004886922,0.004886922,-0.00122173,-0.342370838,-10.0508585,0.33518824,46.098591549295776,106.48591549295774,57.0,-8235.316901,1460.3661971830986,-644.6338028,11
15-06-2024 11:29,-0.004886922,0.004886922,-0.00122173,-0.342370838,-10.0508585,0.33518824,32.27710843373494,96.0,75.34939759036145,-8219.795181,1492.3493975903614,-648.8795181,11
15-06-2024 11:29,0.025656341,0.004886922,-0.017104227,-0.366312861,-10.06282997,0.462080926,24.852272727272727,-54.27272727,42.5,-8215.295455,1466.5568181818182,-721.9431818,11
15-06-2024 11:29,-0.013439035,0.003665192,0.003665192,-0.246602774,-10.06282997,0.328005642,49.266666666666666,88.97777777777777,70.06666666666666,-8230.444444,1455.1777777777777,-643.5333333,11
15-06-2024 11:29,-0.013439035,0.003665192,0.003665192,-0.246602774,-10.06282997,0.328005642,46.43181818181818,92.04545454545456,54.95454545454545,-8209.136364,1470.5227272727273,-891.6136364,11
15-06-2024 11:29,-0.008552114,-0.007330383,0.014660766,-0.253785372,-10.00536919,0.344765037,54.71590909090909,111.95454545454544,17.613636363636367,-8217.465909,1464.8863636363635,-798.1022727,11
15-06-2024 11:29,-0.008552114,-0.007330383,0.014660766,-0.253785372,-10.00536919,0.344765037,58.6,117.93333333333334,-61.26666667,-8240.933333,1468.4666666666667,-890.4666667,11
15-06-2024 11:29,0.029321533,-0.003665192,0.004886922,-0.359130263,-10.05804157,0.430956304,41.63953488372093,-127.1511628,81.88372093023256,-8235.604651,1446.3023255813953,-857.3604651,11
15-06-2024 11:29,0.036651913,0.007330383,0.015882496,-0.421379507,-10.01973438,0.466869324,60.59550561797753,119.3370786516854,105.50561797752808,-8232.067416,1465.5505617977528,-651.5955056,11
15-06-2024 11:29,0.036651913,0.007330383,0.015882496,-0.421379507,-10.01973438,0.466869324,34.07142857142857,125.17857142857144,66.71428571428571,-8235.178571,1460.2857142857142,-655.7857143,11
15-06-2024 11:29,0.017104227,-0.003665192,-0.025656341,-0.272938997,-10.0317049,0.51954174,63.41304347826087,86.26086956521739,84.1304347826087,-8245.869565,1457.0652173913045,-848.6304348,11
15-06-2024 11:29,-0.029321533,0.00122173,-0.002443461,-0.260968,-10.00058079,0.478840351,46.40229885057471,107.59770114942528,75.95402298850574,-8233.264368,1482.9540229885058,-715.6896552,11
15-06-2024 11:29,-0.029321533,0.00122173,-0.002443461,-0.260968,-10.00058079,0.478840351,36.43396226415094,61.880503144654085,60.06289308176101,-8227.345912,1458.2201257861636,-891.0,11
15-06-2024 11:29,0.036651913,-0.008552114,0.009773844,-0.241814375,-10.02212811,0.495599747,40.20754716981132,-88.43396226,70.75471698113208,-8236.150943,1445.6415094339625,-891.0,11
15-06-2024 11:29,0.036651913,-0.008552114,0.009773844,-0.241814375,-10.02212811,0.495599747,49.48314606741573,110.51685393258428,99.0,-8226.741573,1475.629213483146,-651.4044944,11
15-06-2024 11:29,-0.009773844,0.007330383,-0.007330383,-0.282515794,-9.916783333,0.414196909,57.27586206896552,120.82758620689656,95.6896551724138,-8228.034483,1493.8275862068965,-652.0,11
15-06-2024 11:29,0.030543262,0.003665192,0.002443461,-0.294486821,-9.976638794,0.404620081,35.91823899371069,3.981132075471692,73.26415094339623,-8230.257862,1500.9182389937107,-666.9119497,11
15-06-2024 11:29,0.030543262,0.003665192,0.002443461,-0.294486821,-9.976638794,0.404620081,-179.4166667,-7.0,54.958333333333336,-8241.666667,1457.7083333333333,-652.0,11
15-06-2024 11:29,-0.018325957,-0.006108652,0.004886922,-0.294486821,-9.938331604,0.493205547,-101.5217391,57.29347826086956,120.55434782608695,-8222.195652,1543.391304347826,-876.7065217,11
15-06-2024 11:29,-0.018325957,-0.006108652,0.004886922,-0.294486821,-9.938331604,0.493205547,8.571428571428571,-98.28571429,36.142857142857146,-8213.857143,1506.0,-861.2857143,11
15-06-2024 11:29,-0.058643065,0.00122173,0.017104227,-0.258573771,-10.07001209,0.426167905,10.4,-81.7,39.1,-8237.6,1489.1,-872.3,11
15-06-2024 11:29,-0.003665192,0.00122173,-0.007330383,-0.237025961,-9.969455719,0.423773706,11.590909090909092,-8.954545455,49.95454545454545,-8247.863636,1500.090909090909,-651.7272727,11
15-06-2024 11:29,-0.003665192,0.00122173,-0.007330383,-0.237025961,-9.969455719,0.423773706,3.0,-4.119565217,38.35869565217392,-8224.934783,1492.3369565217392,-659.0,11
15-06-2024 11:29,0.037873644,0.002443461,-0.002443461,-0.351947635,-10.06282997,0.48362875,11.546511627906977,-113.8372093,34.23255813953488,-8227.77907,1471.686046511628,-663.3837209,11
15-06-2024 11:29,0.004886922,-0.006108652,0.010995574,-0.29688102,-9.971850395,0.466869324,51.58695652173913,52.260869565217405,22.043478260869563,-8238.130435,1457.0217391304348,-659.2826087,11
15-06-2024 11:29,0.004886922,-0.006108652,0.010995574,-0.29688102,-9.971850395,0.466869324,50.305882352941175,78.97647058823529,55.45882352941177,-8257.729412,1441.5882352941176,-648.5764706,11
15-06-2024 11:29,-0.008552114,-0.008552114,0.006108652,-0.232237563,-10.08198357,0.512359142,49.04545454545455,67.2159090909091,73.32954545454545,-8221.079545,1472.0,-890.2727273,11
15-06-2024 11:29,-0.008552114,-0.008552114,0.006108652,-0.232237563,-10.08198357,0.512359142,6.54054054054054,-117.7905405,38.66216216216216,-8222.675676,1455.4594594594594,-886.7635135,11
15-06-2024 11:29,0.002443461,0.006108652,0.006108652,-0.275333196,-10.10592556,0.44532153,17.35135135135135,46.398648648648646,31.905405405405403,-8236.189189,1444.6486486486488,-882.0337838,11
15-06-2024 11:29,0.02687807,-0.00122173,0.006108652,-0.232237563,-9.943120003,0.505176544,38.795180722891565,97.74698795180724,54.80722891566265,-8234.975904,1439.4698795180725,-892.7108434,11
15-06-2024 11:29,0.02687807,-0.00122173,0.006108652,-0.232237563,-9.943120003,0.505176544,59.59090909090909,3.0795454545454533,76.7840909090909,-8220.784091,1452.3636363636365,-786.0340909,11
15-06-2024 11:29,0.0,-0.002443461,0.006108652,-0.328005642,-10.04846478,0.392649084,51.627906976744185,1.0930232558139463,53.06976744186046,-8236.930233,1449.4651162790697,-648.0,11
15-06-2024 11:29,0.004886922,-0.006108652,0.00122173,-0.37110126,-9.995792389,0.469263524,73.81538461538462,79.26153846153846,79.33846153846154,-8244.146154,1450.746153846154,-646.5923077,11
15-06-2024 11:29,0.004886922,-0.006108652,0.00122173,-0.37110126,-9.995792389,0.469263524,72.38636363636364,77.72727272727273,90.0,-8236.340909,1462.5227272727273,-774.0681818,11
15-06-2024 11:29,-0.006108652,0.002443461,-0.003665192,-0.356736064,-10.07001209,0.526724398,65.57142857142857,110.28571428571428,89.57142857142857,-8226.857143,1465.7142857142858,-878.1428571,11
15-06-2024 11:29,-0.006108652,0.002443461,-0.003665192,-0.356736064,-10.07001209,0.526724398,64.13138686131387,-54.95620438,84.37226277372262,-8226.145985,1456.160583941606,-871.6131387,11
15-06-2024 11:29,0.017104227,-0.002443461,-0.003665192,-0.342370838,-9.955090523,0.48362875,75.52356020942409,116.23560209424085,92.99476439790575,-8232.240838,1452.9005235602094,-871.8062827,11
15-06-2024 11:29,0.00122173,-0.007330383,0.008552114,-0.404620081,-10.07001209,0.452504128,58.42105263157895,103.47368421052632,95.10526315789474,-8235.842105,1475.9473684210527,-871.3684211,11
15-06-2024 11:29,0.00122173,-0.007330383,0.008552114,-0.404620081,-10.07001209,0.452504128,33.146067415730336,-117.5955056,63.58426966292135,-8236.460674,1503.4494382022472,-720.1348315,11
15-06-2024 11:29,-0.006108652,-0.00122173,0.002443461,-0.320823014,-9.938331604,0.474051923,19.727272727272727,106.8181818181818,45.90909090909091,-8240.863636,1464.409090909091,-747.0909091,11
15-06-2024 11:29,-0.008552114,-0.007330383,-0.00122173,-0.316034615,-10.09156036,0.536301196,35.44444444444444,117.37777777777778,90.5111111111111,-8235.466667,1491.4888888888888,-645.9333333,11
15-06-2024 11:29,-0.008552114,-0.007330383,-0.00122173,-0.316034615,-10.09156036,0.536301196,25.13953488372093,-124.8604651,66.11627906976744,-8227.534884,1475.1162790697674,-892.0,11
15-06-2024 11:29,0.004886922,-0.002443461,0.006108652,-0.411802679,-10.0269165,0.462080926,41.21176470588235,-120.1058824,72.55294117647058,-8239.976471,1468.1176470588234,-885.7882353,11
15-06-2024 11:29,0.004886922,-0.002443461,0.006108652,-0.411802679,-10.0269165,0.462080926,41.3125,-112.5625,89.03125,-8227.96875,1474.59375,-685.71875,11
15-06-2024 11:29,-0.002443461,-0.002443461,0.006108652,-0.282515794,-9.967061996,0.462080926,63.04705882352941,92.25882352941176,71.21176470588236,-8235.929412,1491.2823529411764,-658.0941176,11
15-06-2024 11:29,0.006108652,-0.002443461,0.007330383,-0.342370838,-9.974244118,0.493205547,66.34246575342466,96.67123287671232,76.32876712328768,-8225.342466,1501.0,-808.4315068,11
15-06-2024 11:29,0.006108652,-0.002443461,0.007330383,-0.342370838,-9.974244118,0.493205547,30.204819277108435,91.46987951807228,66.33734939759036,-8233.843373,1482.8072289156626,-876.8072289,11
15-06-2024 11:29,0.017104227,-0.003665192,0.010995574,-0.325611442,-9.988609314,0.565031588,40.2,85.3,95.3,-8236.7,1503.5,-815.9,11
15-06-2024 11:29,0.017104227,-0.003665192,0.010995574,-0.325611442,-9.988609314,0.565031588,12.846153846153848,-117.6153846,51.76923076923077,-8219.615385,1518.076923076923,-701.3846154,11
15-06-2024 11:29,0.061086524,0.002443461,-0.003665192,-0.294486821,-10.0412817,0.452504128,9.641025641025642,-113.7692308,51.12820512820513,-8215.769231,1515.5128205128206,-863.5641026,11
15-06-2024 11:29,0.039095376,-0.00122173,-0.007330383,-0.304063618,-10.0508585,0.536301196,34.23809523809524,-121.952381,23.761904761904763,-8252.047619,1472.7142857142858,-802.8095238,11
15-06-2024 11:29,0.039095376,-0.00122173,-0.007330383,-0.304063618,-10.0508585,0.536301196,69.34831460674157,89.2247191011236,52.831460674157306,-8236.483146,1459.808988764045,-885.6179775,11
15-06-2024 11:29,-0.056199603,-0.015882496,0.003665192,-0.277727395,-9.99100399,0.603338838,77.81818181818181,95.8181818181818,68.5909090909091,-8230.590909,1485.7727272727273,-678.0,11
15-06-2024 11:29,-0.036651913,-0.004886922,0.010995574,-0.330399841,-10.09874249,0.495599747,31.48314606741573,122.71910112359552,66.03370786516854,-8223.089888,1493.9550561797753,-890.2134831,11
15-06-2024 11:29,-0.036651913,-0.004886922,0.010995574,-0.330399841,-10.09874249,0.495599747,26.26595744680851,-6.840425532,23.78723404255319,-8249.776596,1460.840425531915,-888.1808511,11
15-06-2024 11:29,0.012217305,0.0,0.00122173,-0.337582439,-10.00058079,0.531512797,2.155844155844156,88.25974025974025,42.31168831168832,-8230.207792,1455.753246753247,-880.2337662,11
15-06-2024 11:29,0.012217305,0.0,0.00122173,-0.337582439,-10.00058079,0.531512797,60.2,-111.9,67.9,-8225.3,1447.1,-886.4,11
15-06-2024 11:29,0.00122173,-0.003665192,-0.004886922,-0.313640416,-10.08198357,0.509964943,62.40909090909091,108.7840909090909,63.38636363636363,-8237.761364,1439.0227272727273,-748.4431818,11
15-06-2024 11:29,0.019547688,-0.00122173,0.010995574,-0.294486821,-9.969455719,0.562637389,85.50602409638554,82.07228915662651,78.56626506024097,-8228.987952,1437.0240963855422,-883.4819277,11
15-06-2024 11:29,0.019547688,-0.00122173,0.010995574,-0.294486821,-9.969455719,0.562637389,89.20652173913044,91.84782608695652,91.05434782608695,-8231.847826,1446.695652173913,-875.5869565,11
15-06-2024 11:29,0.010995574,-0.003665192,0.004886922,-0.328005642,-10.09874249,0.466869324,82.0,111.61842105263158,87.59210526315789,-8245.026316,1489.4473684210527,-880.9605263,11
15-06-2024 11:29,0.002443461,-0.002443461,-0.00122173,-0.29688102,-10.02452278,0.603338838,63.515337423312886,78.51533742331289,57.42944785276074,-8240.91411,1486.0368098159508,-873.8220859,11
15-06-2024 11:29,0.002443461,-0.002443461,-0.00122173,-0.29688102,-10.02452278,0.603338838,43.05882352941177,89.82352941176471,70.82352941176471,-8230.647059,1475.6470588235295,-854.5294118,11
15-06-2024 11:29,-0.034208454,-0.004886922,-0.00122173,-0.320823014,-10.06761837,0.517147541,20.9,-106.2,75.6,-8237.8,1468.8,-864.4,11
15-06-2024 11:29,-0.034208454,-0.004886922,-0.00122173,-0.320823014,-10.06761837,0.517147541,51.7887323943662,-105.9014085,90.66197183098592,-8246.788732,1466.225352112676,-884.5633803,11
15-06-2024 11:29,0.052534413,-0.009773844,-0.002443461,-0.328005642,-9.904812813,0.622492433,56.71830985915493,-111.5352113,88.54929577464789,-8251.71831,1467.6338028169014,-888.084507,11
15-06-2024 11:29,0.010995574,-0.003665192,-0.002443461,-0.239420176,-9.995792389,0.66798228,41.7752808988764,115.48314606741572,87.51685393258427,-8227.741573,1491.741573033708,-872.0337079,11
15-06-2024 11:29,0.010995574,-0.003665192,-0.002443461,-0.239420176,-9.995792389,0.66798228,39.146067415730336,-120.1573034,83.24157303370787,-8233.617978,1495.5449438202247,-869.4606742,11
15-06-2024 11:29,-0.047647487,0.0,-0.002443461,-0.289698392,-10.01733971,0.59615624,49.25842696629213,-115.6629213,69.19662921348315,-8230.247191,1487.1179775280898,-870.5842697,11
15-06-2024 11:29,-0.00122173,-0.00122173,0.009773844,-0.33279404,-9.861717224,0.524330199,19.27848101265823,-41.96202532,87.16455696202532,-8232.721519,1488.6582278481012,-887.164557,11
15-06-2024 11:29,-0.00122173,-0.00122173,0.009773844,-0.33279404,-9.861717224,0.524330199,12.72222222222222,-124.4333333,52.3,-8212.155556,1506.0,-681.6777778,11
15-06-2024 11:29,-0.007330383,-0.003665192,0.006108652,-0.320823014,-10.08677197,0.533906996,24.81176470588236,-104.0,55.04705882352941,-8230.023529,1475.023529411765,-644.1176471,11
15-06-2024 11:29,-0.007330383,-0.003665192,0.006108652,-0.320823014,-10.08677197,0.533906996,50.17977528089887,109.561797752809,94.31460674157304,-8248.955056,1478.438202247191,-894.9213483,11
15-06-2024 11:29,0.002443461,-0.008552114,0.00122173,-0.239420176,-9.988609314,0.531512797,57.9,90.66666666666669,100.22222222222224,-8220.888889,1511.7777777777778,-890.4333333,11
15-06-2024 11:29,-0.006108652,-0.00122173,0.006108652,-0.320823014,-10.04846478,0.459686726,30.9,42.400000000000006,77.7,-8229.6,1526.2,-885.6,11
15-06-2024 11:29,-0.006108652,-0.00122173,0.006108652,-0.320823014,-10.04846478,0.459686726,17.91011235955056,-18.60674157,29.820224719101123,-8221.382022,1502.4831460674156,-882.0674157,11
15-06-2024 11:29,0.083077677,0.003665192,-0.004886922,-0.220266551,-10.05804157,0.517147541,1.5232558139534884,97.7093023255814,45.94186046511628,-8236.813953,1475.6627906976744,-892.3372093,11
15-06-2024 11:29,0.039095376,-0.00122173,-0.025656341,-0.258573771,-9.976638794,0.648828685,12.955555555555556,29.24444444444444,42.06666666666667,-8218.4,1473.2888888888888,-642.2888889,11
15-06-2024 11:29,0.039095376,-0.00122173,-0.025656341,-0.258573771,-9.976638794,0.648828685,17.23926380368098,123.85889570552148,42.282208588957054,-8236.09816,1460.6196319018404,-799.7668712,11
15-06-2024 11:29,-0.058643065,-0.015882496,0.017104227,-0.268150598,-10.12268448,0.474051923,16.012269938650306,122.01840490797548,45.96319018404908,-8233.030675,1460.006134969325,-644.5521472,11
15-06-2024 11:29,-0.058643065,-0.015882496,0.017104227,-0.268150598,-10.12268448,0.474051923,54.87709497206704,89.02234636871509,64.46927374301676,-8239.938547,1459.4078212290503,-889.8156425,11
15-06-2024 11:29,-0.06963864,0.0,0.019547688,-0.284909993,-9.998186111,0.533906996,52.91566265060241,108.07228915662652,79.91566265060241,-8230.048193,1483.8915662650602,-882.9518072,11
15-06-2024 11:29,0.0842994,0.010995574,-0.009773844,-0.351947635,-9.988609314,0.565031588,50.8957055214724,105.8957055214724,43.0,-8230.957055,1465.1656441717791,-876.0,11
15-06-2024 11:29,0.0842994,0.010995574,-0.009773844,-0.351947635,-9.988609314,0.565031588,50.282208588957054,105.28220858895706,43.0,-8224.822086,1460.2576687116564,-876.0,11
15-06-2024 11:29,0.018325957,0.007330383,-0.018325957,-0.292092621,-9.962273598,0.660799682,28.977011494252874,101.22988505747126,40.59770114942529,-8212.793103,1476.5862068965516,-875.2068966,11
15-06-2024 11:29,0.018325957,0.007330383,-0.018325957,-0.292092621,-9.962273598,0.660799682,7.775280898876405,-96.74157303,53.89887640449438,-8229.337079,1443.494382022472,-871.5280899,11
15-06-2024 11:29,-0.047647487,-0.02321288,0.02687807,-0.265756398,-10.09634876,0.624886632,50.0,-109.125,80.125,-8243.875,1441.375,-737.75,11
15-06-2024 11:29,-0.067195177,0.002443461,0.020769419,-0.325611442,-10.0508585,0.40940848,61.0,48.0,89.0,-8239.5,1453.0,-644.75,11
15-06-2024 11:29,-0.067195177,0.002443461,0.020769419,-0.325611442,-10.0508585,0.40940848,91.438202247191,90.0,106.14606741573034,-8228.730337,1481.247191011236,-688.3483146,11
15-06-2024 11:29,0.041538838,0.014660766,-0.007330383,-0.256179571,-10.02931118,0.548272193,74.5,106.5,97.0,-8239.0,1480.5,-879.0,11
15-06-2024 11:29,-0.02321288,-0.006108652,0.00122173,-0.237025961,-10.08437729,0.521935999,50.62068965517241,89.06896551724138,45.172413793103445,-8243.275862,1469.551724137931,-845.7241379,11
15-06-2024 11:29,-0.02321288,-0.006108652,0.00122173,-0.237025961,-10.08437729,0.521935999,-22.57142857,-118.2857143,36.85714285714285,-8216.428571,1472.428571428571,-864.5714286,11
15-06-2024 11:29,-0.09285152,-0.021991149,0.018325957,-0.18435353,-9.950302124,0.538695395,-265.1182796,-89.07526882,43.82795698924731,-8216.612903,1466.2903225806451,-795.4623656,11
15-06-2024 11:29,-0.09285152,-0.021991149,0.018325957,-0.18435353,-9.950302124,0.538695395,11.804878048780488,-97.86585366,64.42682926829268,-8237.597561,1445.2439024390244,-650.402439,11
15-06-2024 11:29,-0.041538838,-0.003665192,0.021991149,-0.325611442,-9.943120003,0.411802679,44.8936170212766,0.9574468085106388,83.34042553191489,-8235.12766,1452.8617021276596,-656.5212766,11
15-06-2024 11:29,0.020769419,-0.002443461,0.00122173,-0.282515794,-10.00058079,0.536301196,72.37267080745342,90.35403726708074,90.32298136645964,-8226.639752,1473.0434782608695,-733.8198758,11
15-06-2024 11:29,0.020769419,-0.002443461,0.00122173,-0.282515794,-10.00058079,0.536301196,84.17391304347827,96.56521739130434,87.21739130434783,-8218.565217,1486.0869565217392,-879.7826087,11
15-06-2024 11:29,0.019547688,0.007330383,-0.019547688,-0.282515794,-10.04846478,0.562637389,52.72413793103448,110.93103448275862,42.06896551724138,-8230.0,1474.1379310344828,-649.0344828,11
15-06-2024 11:29,-0.009773844,0.013439035,-0.015882496,-0.179565132,-9.955090523,0.641646028,61.8,67.93333333333334,109.33333333333331,-8227.066667,1482.7111111111112,-886.6222222,11
15-06-2024 11:29,-0.009773844,0.013439035,-0.015882496,-0.179565132,-9.955090523,0.641646028,19.41566265060241,98.49397590361446,83.56024096385542,-8225.156627,1498.4156626506024,-885.4156627,11
15-06-2024 11:29,-0.008552114,-0.012217305,0.02321288,-0.33518824,-10.02452278,0.502782345,7.56043956043956,-103.1208791,51.06593406593407,-8227.868132,1492.7032967032967,-848.0879121,11
15-06-2024 11:29,-0.008552114,-0.012217305,0.02321288,-0.33518824,-10.02452278,0.502782345,19.79310344827586,-55.25287356,54.14942528735632,-8243.724138,1460.5632183908046,-663.4022989,11
15-06-2024 11:29,0.020769419,-0.003665192,0.0,-0.306457818,-10.0317049,0.66798228,88.87777777777778,71.58888888888889,83.05555555555556,-8227.944444,1461.411111111111,-648.9444444,11
15-06-2024 11:29,-0.002443461,-0.002443461,0.003665192,-0.316034615,-10.07719517,0.512359142,64.0,79.5,84.0,-8223.0,1482.5,-766.5,11
15-06-2024 11:29,-0.002443461,-0.002443461,0.003665192,-0.316034615,-10.07719517,0.512359142,54.18681318681319,104.74725274725274,64.78021978021978,-8239.56044,1490.098901098901,-874.1648352,11
15-06-2024 11:29,0.014660766,-0.003665192,-0.003665192,-0.244208574,-9.923966408,0.588973641,26.477272727272727,112.1590909090909,93.0340909090909,-8229.488636,1489.6022727272727,-882.9545455,11
15-06-2024 11:29,-0.002443461,-0.003665192,-0.003665192,-0.292092621,-10.07958889,0.553060591,-242.9325843,-86.7752809,49.550561797752806,-8211.022472,1491.2696629213483,-884.0,11
15-06-2024 11:29,-0.002443461,-0.003665192,-0.003665192,-0.292092621,-10.07958889,0.553060591,-290.8666667,-65.22222222,35.15555555555556,-8210.955556,1458.7333333333331,-646.4,11
15-06-2024 11:29,0.00122173,-0.00122173,-0.002443461,-0.265756398,-10.0364933,0.541089594,26.75,-106.2954545,35.20454545454545,-8251.25,1423.340909090909,-661.2045455,11
15-06-2024 11:29,0.00122173,-0.00122173,-0.002443461,-0.265756398,-10.0364933,0.541089594,47.60227272727273,120.9431818181818,86.86363636363636,-8235.840909,1441.284090909091,-663.5795455,11
15-06-2024 11:29,0.013439035,-0.004886922,0.003665192,-0.361524463,-10.00776291,0.574608386,70.8,111.1,114.5,-8226.4,1474.9,-669.7,11
15-06-2024 11:29,0.032986723,-0.008552114,0.013439035,-0.308852017,-10.19690514,0.514753342,69.65555555555555,96.25555555555556,92.07777777777778,-8224.588889,1472.888888888889,-756.9666667,11
15-06-2024 11:29,0.032986723,-0.008552114,0.013439035,-0.308852017,-10.19690514,0.514753342,64.975,93.8875,53.425,-8239.4,1498.575,-890.7125,11
15-06-2024 11:29,-0.02687807,0.0,-0.00122173,-0.265756398,-10.07001209,0.538695395,56.225,104.5125,-97.825,-8229.4,1499.825,-890.0875,11
15-06-2024 11:29,-0.02687807,0.0,-0.00122173,-0.265756398,-10.07001209,0.538695395,28.06024096385542,-99.06024096,54.06024096385542,-8233.674699,1500.7349397590365,-891.7349398,11
15-06-2024 11:29,-0.008552114,-0.003665192,0.013439035,-0.339976639,-10.05325317,0.521935999,-14.66292135,-98.58426966,58.69662921348315,-8227.629213,1464.573033707865,-671.8539326,11
15-06-2024 11:29,-0.012217305,-0.00122173,0.002443461,-0.349553436,-9.967061996,0.526724398,57.07594936708861,110.24050632911391,78.76582278481013,-8234.316456,1478.6898734177216,-679.0759494,11
15-06-2024 11:29,-0.012217305,-0.00122173,0.002443461,-0.349553436,-9.967061996,0.526724398,74.21176470588236,106.9529411764706,78.45882352941176,-8217.564706,1488.3058823529411,-662.0705882,11
15-06-2024 11:29,0.012217305,-0.003665192,0.007330383,-0.265756398,-9.921571732,0.514753342,68.34883720930233,85.59302325581396,58.91860465116279,-8232.837209,1493.0348837209303,-699.4186047,11
15-06-2024 11:29,-0.006108652,-0.003665192,-0.004886922,-0.282515794,-9.988609314,0.533906996,65.80459770114942,102.39080459770116,84.41379310344827,-8223.597701,1503.1954022988505,-886.8045977,11
15-06-2024 11:29,-0.006108652,-0.003665192,-0.004886922,-0.282515794,-9.988609314,0.533906996,34.82222222222222,109.13333333333333,46.73333333333333,-8210.2,1498.1555555555556,-895.5777778,11
15-06-2024 11:29,-0.006108652,-0.003665192,-0.003665192,-0.299275219,-10.07719517,0.462080926,-134.3595506,-96.19101124,60.8876404494382,-8218.921348,1479.6629213483145,-649.5842697,11
15-06-2024 11:29,-0.006108652,-0.003665192,-0.003665192,-0.299275219,-10.07719517,0.462080926,38.4367816091954,-98.43678161,74.42528735632185,-8250.505747,1476.8620689655172,-676.2873563,11
15-06-2024 11:29,0.015882496,-0.006108652,0.00122173,-0.275333196,-9.974244118,0.514753342,53.723404255319146,105.95744680851064,90.02127659574468,-8227.489362,1498.276595744681,-681.9787234,11
15-06-2024 11:29,0.006108652,-0.002443461,0.002443461,-0.272938997,-9.971850395,0.507570744,45.75581395348837,96.84883720930232,86.90697674418604,-8224.0,1514.3953488372092,-663.5465116,11
15-06-2024 11:29,0.006108652,-0.002443461,0.002443461,-0.272938997,-9.971850395,0.507570744,42.93181818181818,116.9090909090909,74.31818181818181,-8206.227273,1510.0681818181818,-650.1818182,11
15-06-2024 11:29,-0.017104227,-0.002443461,-0.00122173,-0.248996973,-10.06522369,0.481234551,32.0,101.86516853932584,74.17977528089888,-8222.404494,1505.0,-653.7977528,11
15-06-2024 11:29,0.007330383,-0.00122173,-0.002443461,-0.330399841,-10.06282997,0.521935999,27.655555555555555,104.15555555555557,46.16666666666666,-8225.166667,1502.7333333333331,-651.1888889,11
15-06-2024 11:29,0.007330383,-0.00122173,-0.002443461,-0.330399841,-10.06282997,0.521935999,-220.0617978,-113.8426966,37.0,-8232.404494,1456.1573033707866,-655.5786517,11
15-06-2024 11:29,0.00122173,-0.004886922,-0.00122173,-0.287304193,-10.06522369,0.569819987,-72.30898876,-117.2134831,37.0,-8238.022472,1452.7865168539329,-653.8932584,11
15-06-2024 11:29,0.00122173,-0.004886922,-0.00122173,-0.287304193,-10.06522369,0.569819987,63.11627906976744,93.13953488372093,66.04651162790698,-8238.325581,1475.093023255814,-660.0465116,11
15-06-2024 11:29,0.021991149,-0.00122173,0.002443461,-0.256179571,-9.986215591,0.536301196,63.81818181818182,92.27272727272728,67.54545454545455,-8233.0,1480.7272727272727,-887.5454545,11
15-06-2024 11:29,-0.007330383,-0.007330383,-0.002443461,-0.280121595,-9.974244118,0.533906996,57.977777777777774,117.44444444444444,51.87777777777778,-8227.677778,1479.0,-641.7666667,11
15-06-2024 11:29,-0.007330383,-0.007330383,-0.002443461,-0.280121595,-9.974244118,0.533906996,33.523809523809526,99.45578231292517,43.55102040816327,-8249.047619,1457.5034013605443,-888.0204082,11
15-06-2024 11:29,0.095294975,0.02687807,-0.064751714,-0.280121595,-10.10592556,0.617704034,44.2,107.4,74.4,-8230.8,1472.4,-892.8,11
15-06-2024 11:29,0.095294975,0.02687807,-0.064751714,-0.313640416,-9.945513725,0.656011283,60.0,-101.5730337,74.0,-8232.786517,1463.2921348314608,-890.8202247,11
15-06-2024 11:29,-0.096516706,-0.02687807,0.045204028,-0.313640416,-9.945513725,0.656011283,77.86206896551724,105.75862068965516,77.55172413793103,-8241.0,1461.5172413793102,-893.6551724,11
15-06-2024 11:29,-0.051312681,-0.007330383,0.004886922,-0.284909993,-10.04846478,0.495599747,90.6629213483146,83.73033707865169,92.3370786516854,-8228.573034,1482.7303370786517,-883.4831461,11
15-06-2024 11:29,-0.051312681,-0.007330383,0.004886922,-0.284909993,-10.04846478,0.495599747,88.10344827586206,116.82758620689656,87.10344827586206,-8225.586207,1498.655172413793,-888.0689655,11
15-06-2024 11:29,0.018325957,-0.002443461,-0.00122173,-0.246602774,-9.938331604,0.608127236,29.662921348314605,-120.247191,64.07865168539325,-8230.359551,1494.2696629213483,-889.8314607,11
15-06-2024 11:29,-0.078190751,-0.002443461,0.012217305,-0.299275219,-10.09395409,0.48362875,36.90909090909091,-124.0909091,27.09090909090909,-8227.0,1473.3636363636365,-882.6363636,11
15-06-2024 11:29,-0.078190751,-0.002443461,0.012217305,-0.299275219,-10.09395409,0.48362875,19.43181818181818,-72.26136364,84.02272727272728,-8230.727273,1473.5681818181818,-708.5113636,11
15-06-2024 11:29,0.07696902,0.019547688,-0.032986723,-0.304063618,-9.983820915,0.624886632,54.875,126.0,74.125,-8221.375,1467.0,-652.0,11
15-06-2024 11:29,0.07696902,0.019547688,-0.032986723,-0.304063618,-9.983820915,0.624886632,67.73626373626374,-107.7252747,89.64835164835165,-8221.956044,1486.5384615384614,-646.1318681,11
15-06-2024 11:29,-0.13072516,-0.035430186,0.015882496,-0.090979666,-10.47223854,0.74459672,54.43478260869565,-105.6521739,96.82608695652172,-8229.347826,1492.8260869565215,-663.0434783,11
15-06-2024 11:29,-0.109955743,0.004886922,0.024434609,-0.29688102,-9.957485199,0.48362875,70.35502958579882,90.97633136094674,73.62130177514793,-8226.64497,1490.1301775147929,-653.9112426,11
15-06-2024 11:29,-0.109955743,0.004886922,0.024434609,-0.29688102,-9.957485199,0.48362875,72.72189349112426,97.48520710059172,77.76331360946746,-8224.278107,1504.3313609467457,-653.3195266,11
15-06-2024 11:29,0.124616511,0.021991149,-0.052534413,-0.287304193,-10.11789608,0.612915635,41.02247191011236,-124.4044944,55.550561797752806,-8224.853933,1508.876404494382,-642.4044944,11
15-06-2024 11:29,-0.037873644,-0.015882496,0.054977871,-0.311246216,-9.919178009,0.694318473,17.6,92.91111111111113,64.66666666666667,-8250.4,1497.6666666666667,-761.2888889,11
15-06-2024 11:29,-0.037873644,-0.015882496,0.054977871,-0.311246216,-9.919178009,0.694318473,5.851851851851852,118.62962962962963,47.44444444444444,-8210.740741,1510.6296296296296,-658.0,11
15-06-2024 11:29,0.0,-0.003665192,-0.014660766,-0.227449164,-9.9526968,0.536301196,3.38728323699422,23.664739884393057,35.9364161849711,-8217.716763,1492.7341040462427,-657.2254335,11
15-06-2024 11:29,0.0,-0.003665192,-0.014660766,-0.227449164,-9.9526968,0.536301196,3.9653179190751446,-115.6416185,38.82658959537572,-8239.682081,1468.456647398844,-656.0693642,11
15-06-2024 11:29,0.029321533,0.00122173,-0.015882496,-0.263362199,-10.00297451,0.536301196,70.82758620689656,62.643678160919535,61.71264367816092,-8230.114943,1498.8620689655172,-878.6206897,11
15-06-2024 11:29,0.061086524,-0.008552114,0.024434609,-0.294486821,-10.11550236,0.569819987,40.56818181818182,-120.4090909,71.0,-8218.715909,1506.7613636363635,-875.3181818,11
15-06-2024 11:29,0.061086524,-0.008552114,0.024434609,-0.294486821,-10.11550236,0.569819987,6.584269662921349,-92.46067416,35.57303370786517,-8224.191011,1483.1685393258426,-888.4157303,11
15-06-2024 11:29,-0.091629788,-0.012217305,-0.002443461,-0.150834709,-9.900024414,0.608127236,21.597701149425287,109.71264367816092,59.45977011494253,-8247.977011,1462.0229885057472,-648.5862069,11
15-06-2024 11:29,-0.004886922,0.007330383,0.018325957,-0.308852017,-10.0604353,0.495599747,32.79781420765028,99.57377049180327,52.39344262295082,-8222.393443,1481.9781420765028,-650.3934426,11
15-06-2024 11:29,-0.004886922,0.007330383,0.018325957,-0.308852017,-10.0604353,0.495599747,32.25136612021858,93.01639344262296,50.75409836065574,-8220.754098,1476.513661202186,-648.7540984,11
15-06-2024 11:29,0.030543262,0.0,-0.00122173,-0.29688102,-9.897629738,0.660799682,100.08219178082192,92.82191780821918,96.08219178082192,-8234.287671,1465.4109589041095,-774.3150685,11
15-06-2024 11:29,0.030543262,0.0,-0.00122173,-0.29688102,-9.897629738,0.660799682,120.4494382022472,79.65168539325843,117.06741573033707,-8231.808989,1497.056179775281,-868.7752809,11
15-06-2024 11:29,0.054977871,0.00122173,-0.003665192,-0.313640416,-10.01255131,0.600944638,99.51724137931036,86.62068965517241,93.13793103448276,-8230.62069,1529.7471264367816,-874.8850575,11
15-06-2024 11:29,-0.04642576,0.008552114,0.004886922,-0.330399841,-10.09395409,0.481234551,18.188235294117646,-113.0823529,62.12941176470588,-8220.035294,1524.0588235294117,-879.9882353,11
15-06-2024 11:29,-0.04642576,0.008552114,0.004886922,-0.330399841,-10.09395409,0.481234551,17.942528735632184,109.14942528735632,38.95402298850575,-8251.850575,1475.4022988505749,-868.3793103,11
15-06-2024 11:29,0.0,-0.009773844,0.003665192,-0.241814375,-9.84974575,0.679953277,17.81382978723404,119.45744680851064,67.45212765957447,-8233.191489,1476.095744680851,-864.9361702,11
15-06-2024 11:29,-0.019547688,-0.004886922,0.007330383,-0.280121595,-9.957485199,0.600944638,22.60106382978724,116.26595744680851,70.11170212765957,-8222.553191,1470.776595744681,-735.1489362,11
15-06-2024 11:29,-0.019547688,-0.004886922,0.007330383,-0.280121595,-9.957485199,0.600944638,48.28767123287671,-48.35616438,89.78082191780823,-8236.575342,1473.6301369863013,-826.1369863,11
15-06-2024 11:29,-0.025656341,-0.002443461,0.018325957,-0.292092621,-10.18014526,0.603338838,65.56179775280899,-11.7752809,83.9438202247191,-8235.449438,1507.4719101123596,-768.8988764,11
15-06-2024 11:29,-0.025656341,-0.002443461,0.018325957,-0.292092621,-10.18014526,0.603338838,53.0,104.75,81.0,-8225.375,1515.625,-880.25,11
15-06-2024 11:29,0.035430186,-0.00122173,0.00122173,-0.275333196,-9.902418137,0.536301196,4.875,-107.125,71.5,-8222.875,1519.625,-887.75,11
15-06-2024 11:29,0.028099801,0.0,-0.010995574,-0.287304193,-10.0269165,0.70628953,3.1704545454545454,-104.2840909,69.22727272727273,-8221.170455,1514.5113636363635,-884.3409091,11
15-06-2024 11:29,0.028099801,0.0,-0.010995574,-0.287304193,-10.0269165,0.70628953,16.08988764044944,-121.6516854,97.1011235955056,-8223.516854,1503.573033707865,-668.6179775,11
15-06-2024 11:29,0.0,-0.00122173,-0.008552114,-0.237025961,-10.07240677,0.694318473,43.61538461538461,107.76923076923076,65.61538461538461,-8213.384615,1515.6153846153843,-663.6153846,11
15-06-2024 11:29,0.0,-0.00122173,-0.008552114,-0.237025961,-10.07240677,0.694318473,61.37931034482759,103.6896551724138,65.93103448275862,-8228.310345,1500.5862068965516,-852.0689655,11
15-06-2024 11:29,0.048869219,0.004886922,-0.012217305,-0.292092621,-9.900024414,0.622492433,67.08695652173913,98.78260869565216,73.30434782608695,-8224.391304,1515.1304347826087,-717.2173913,11
15-06-2024 11:29,0.032986723,-0.013439035,-0.002443461,-0.1316811,-9.976638794,0.960074902,39.23529411764706,116.88235294117646,54.37647058823529,-8215.117647,1511.3882352941175,-879.2470588,11
15-06-2024 11:29,0.032986723,-0.013439035,-0.002443461,-0.1316811,-9.976638794,0.960074902,9.238095238095235,-113.0952381,53.19047619047619,-8218.095238,1511.428571428571,-889.8095238,11
15-06-2024 11:29,-0.067195177,-0.010995574,-0.013439035,-0.181959331,-10.0556469,0.876277804,36.60674157303371,35.59550561797752,26.95505617977528,-8226.146067,1495.0898876404494,-643.0,11
15-06-2024 11:29,-0.003665192,-0.00122173,0.008552114,-0.270544797,-10.0460701,0.699106872,17.319148936170215,86.34042553191489,70.40425531914893,-8216.595745,1502.3829787234042,-648.0,11
15-06-2024 11:29,-0.003665192,-0.00122173,0.008552114,-0.270544797,-10.0460701,0.699106872,34.5,110.625,53.25,-8211.25,1483.125,-889.375,11
15-06-2024 11:29,0.0,0.004886922,0.003665192,-0.287304193,-10.0556469,0.584185243,34.666666666666664,36.33333333333333,61.333333333333336,-8215.666667,1478.0,-887.0,11
15-06-2024 11:29,0.0,0.004886922,0.003665192,-0.287304193,-10.0556469,0.584185243,53.888888888888886,95.77777777777776,65.66666666666667,-8223.611111,1470.888888888889,-882.1111111,11
15-06-2024 11:29,0.047647487,-0.004886922,0.002443461,-0.29688102,-10.00058079,0.675164878,76.46666666666667,116.53333333333332,89.28,-8229.28,1478.493333333333,-878.84,11
15-06-2024 11:29,-0.013439035,-0.003665192,0.003665192,-0.284909993,-10.11071396,0.684741676,79.8,113.2,91.28,-8231.28,1489.16,-884.84,11
15-06-2024 11:29,-0.013439035,-0.003665192,0.003665192,-0.284909993,-10.11071396,0.684741676,57.81395348837209,88.55813953488372,72.59302325581395,-8229.325581,1480.3837209302326,-740.3023256,11
15-06-2024 11:29,0.006108652,-0.002443461,0.002443461,-0.316034615,-9.9526968,0.651222885,78.85227272727272,83.86363636363636,109.1818181818182,-8227.136364,1521.6704545454545,-882.7954545,11
15-06-2024 11:29,0.052534413,0.017104227,-0.02687807,-0.301669419,-9.983820915,0.811634362,60.28089887640449,91.52247191011236,80.51685393258427,-8218.0,1511.9606741573034,-867.3595506,11
15-06-2024 11:29,0.052534413,0.017104227,-0.02687807,-0.301669419,-9.983820915,0.811634362,62.52808988764045,97.70224719101124,72.65168539325843,-8218.0,1513.6460674157304,-866.2359551,11
15-06-2024 11:29,-0.091629788,-0.017104227,0.02321288,-0.246602774,-9.921571732,0.672770679,35.40229885057471,-122.7586207,68.0,-8238.804598,1506.1609195402298,-890.3678161,11
15-06-2024 11:29,-0.091629788,-0.017104227,0.02321288,-0.246602774,-9.921571732,0.672770679,52.44318181818182,91.04545454545456,55.0,-8231.511364,1504.0454545454545,-768.3295455,11
15-06-2024 11:29,0.009773844,0.002443461,-0.003665192,-0.299275219,-10.07958889,0.703895271,48.96428571428572,109.25,83.25,-8220.25,1511.2857142857142,-887.9285714,11
15-06-2024 11:29,0.020769419,-0.003665192,0.0,-0.265756398,-9.933543205,0.636857629,40.36363636363636,103.04545454545456,56.67045454545455,-8234.670455,1496.2272727272727,-871.8409091,11
15-06-2024 11:29,0.020769419,-0.003665192,0.0,-0.265756398,-9.933543205,0.636857629,22.05681818181818,112.52272727272728,92.10227272727272,-8223.829545,1514.9318181818182,-872.0909091,11
15-06-2024 11:29,-0.002443461,-0.003665192,0.007330383,-0.33518824,-10.11071396,0.541089594,68.15555555555555,99.4888888888889,48.84444444444444,-8227.0,1503.6222222222225,-860.2666667,11
15-06-2024 11:29,-0.014660766,-0.002443461,-0.006108652,-0.308852017,-9.935936928,0.603338838,50.093023255813954,122.09302325581396,69.9186046511628,-8226.023256,1482.1744186046512,-857.8953488,11
15-06-2024 11:29,-0.014660766,-0.002443461,-0.006108652,-0.308852017,-9.935936928,0.603338838,50.58695652173913,35.67391304347825,82.95652173913044,-8243.782609,1509.7826086956522,-881.8478261,11
15-06-2024 11:29,0.012217305,0.021991149,-0.030543262,-0.162805721,-9.931148529,0.871489406,60.46511627906977,107.74418604651164,70.25581395348837,-8221.046512,1500.2558139534883,-874.0232558,11
15-06-2024 11:29,0.012217305,0.021991149,-0.030543262,-0.162805721,-9.931148529,0.871489406,43.91011235955057,-88.50561798,62.0,-8225.191011,1511.7303370786517,-676.2247191,11
15-06-2024 11:29,-0.014660766,-0.020769419,0.007330383,-0.33518824,-10.0364933,0.507570744,54.11111111111112,114.71111111111112,43.8,-8245.466667,1505.5111111111112,-893.0,11
15-06-2024 11:29,0.029321533,-0.004886922,0.009773844,-0.351947635,-10.08437729,0.600944638,69.45454545454545,80.95454545454545,104.95454545454544,-8226.681818,1528.409090909091,-880.4545455,11
15-06-2024 11:29,0.029321533,-0.004886922,0.009773844,-0.351947635,-10.08437729,0.600944638,23.44186046511628,102.02325581395348,30.627906976744185,-8219.906977,1513.3488372093022,-858.6511628,11
15-06-2024 11:29,0.056199603,0.029321533,-0.017104227,-0.234631762,-9.993397713,0.718260527,19.953488372093023,108.4186046511628,28.302325581395348,-8219.325581,1509.2790697674418,-862.7209302,11
15-06-2024 11:29,0.056199603,0.029321533,-0.017104227,-0.213083953,-10.07958889,0.792480767,25.695652173913043,-113.3043478,49.130434782608695,-8238.608696,1482.7608695652175,-878.8043478,11
15-06-2024 11:29,0.004886922,-0.025656341,0.024434609,-0.213083953,-10.07958889,0.792480767,31.04597701149425,7.839080459770116,58.70114942528736,-8234.781609,1483.6436781609195,-867.8850575,11
15-06-2024 11:29,0.028099801,-0.014660766,0.010995574,-0.18435353,-9.96466732,0.794874966,24.95555555555556,-30.2,45.0,-8228.511111,1509.3777777777775,-887.3555556,11
15-06-2024 11:29,0.028099801,-0.014660766,0.010995574,-0.18435353,-9.96466732,0.794874966,12.491428571428573,-119.7371429,29.914285714285715,-8233.034286,1496.5542857142857,-885.8514286,11
15-06-2024 11:29,0.05375614,0.04642576,-0.064751714,-0.160411507,-9.81143856,0.869095206,10.205714285714286,-116.3085714,7.057142857142857,-8242.177143,1477.6971428571428,-879.5657143,11
15-06-2024 11:29,-0.114842668,-0.030543262,0.036651913,-0.189141929,-9.950302124,0.699106872,36.52777777777778,100.53888888888888,50.15,-8242.266667,1460.272222222222,-868.3833333,11
15-06-2024 11:29,-0.114842668,-0.030543262,0.036651913,-0.189141929,-9.950302124,0.699106872,10.391304347826086,110.3913043478261,61.869565217391305,-8220.869565,1471.608695652174,-874.3043478,11
15-06-2024 11:29,-0.117286131,-0.009773844,0.018325957,-0.153228909,-10.09634876,0.567425787,9.906976744186046,118.16279069767442,42.13953488372093,-8216.325581,1456.5116279069769,-864.9534884,11
15-06-2024 11:29,-0.117286131,-0.009773844,0.018325957,-0.153228909,-10.09634876,0.567425787,94.5,82.63636363636364,84.86363636363636,-8241.636364,1448.659090909091,-882.0454545,11
15-06-2024 11:29,0.002443461,0.00122173,0.008552114,-0.272938997,-10.14183807,0.565031588,106.83908045977012,78.16091954022988,110.82758620689656,-8231.655172,1475.3793103448277,-865.8275862,11
15-06-2024 11:29,0.103847094,0.008552114,-0.035430186,-0.232237563,-10.11550236,0.790086567,81.38636363636364,99.875,89.23863636363636,-8233.340909,1494.2727272727273,-861.8636364,11
15-06-2024 11:29,0.103847094,0.008552114,-0.035430186,-0.232237563,-10.11550236,0.790086567,61.51111111111111,96.88888888888889,68.97777777777777,-8242.266667,1471.088888888889,-848.7333333,11
15-06-2024 11:29,-0.015882496,0.002443461,-0.00122173,-0.225054964,-9.969455719,0.691924274,19.921348314606742,115.48314606741572,53.46067415730337,-8222.696629,1475.9662921348315,-861.505618,11
15-06-2024 11:29,-0.025656341,-0.02321288,0.02321288,-0.313640416,-10.11789608,0.588973641,25.955056179775283,-112.3370787,56.2247191011236,-8233.561798,1444.4606741573034,-857.0,11
15-06-2024 11:29,-0.025656341,-0.02321288,0.02321288,-0.313640416,-10.11789608,0.588973641,28.95604395604396,-107.1318681,56.13186813186813,-8247.384615,1440.131868131868,-853.1758242,11
15-06-2024 11:29,-0.010995574,-0.015882496,-0.002443461,-0.189141929,-10.00776291,0.63446343,75.75581395348837,113.47674418604652,91.65116279069768,-8238.593023,1479.813953488372,-869.0581395,11
15-06-2024 11:29,-0.010995574,-0.015882496,-0.002443461,-0.189141929,-10.00776291,0.63446343,75.00584795321637,106.80116959064328,79.60233918128655,-8240.304094,1500.0,-870.0994152,11
15-06-2024 11:29,0.058643065,0.002443461,-0.012217305,-0.301669419,-9.957485199,0.438138902,69.15789473684211,105.63157894736842,77.26315789473684,-8236.210526,1500.0,-870.6842105,11
15-06-2024 11:29,0.048869219,0.008552114,-0.009773844,-0.248996973,-10.06761837,0.67037648,38.30434782608695,-26.91304348,73.86956521739131,-8237.565217,1458.0,-877.5652174,11
15-06-2024 11:29,0.048869219,0.008552114,-0.009773844,-0.248996973,-10.06761837,0.67037648,63.46590909090909,82.0,75.88636363636364,-8219.488636,1485.534090909091,-868.9545455,11
15-06-2024 11:29,0.068416908,-0.007330383,0.003665192,-0.18674773,-10.0364933,0.656011283,32.27058823529412,108.17647058823528,72.55294117647058,-8228.811765,1484.0941176470587,-858.7294118,11
15-06-2024 11:29,-0.024434609,-0.020769419,0.015882496,-0.256179571,-10.18972206,0.565031588,41.3757225433526,111.19653179190752,69.60115606936417,-8233.791908,1480.606936416185,-858.7976879,11
15-06-2024 11:29,-0.024434609,-0.020769419,0.015882496,-0.256179571,-10.18972206,0.565031588,53.51445086705202,112.9306358381503,69.02312138728324,-8237.83815,1477.1387283236995,-859.9537572,11
15-06-2024 11:29,-0.014660766,-0.013439035,0.003665192,-0.253785372,-10.01973438,0.605733037,38.49438202247191,121.13483146067416,67.17977528089888,-8223.359551,1509.5955056179776,-857.7303371,11
15-06-2024 11:29,-0.014660766,-0.013439035,0.003665192,-0.253785372,-10.01973438,0.605733037,-263.5494505,-107.5274725,20.263736263736263,-8237.373626,1492.7472527472528,-879.8571429,11
15-06-2024 11:29,-0.004886922,-0.006108652,-0.003665192,-0.239420176,-10.17296314,0.55784899,-209.5517241,79.65517241379311,87.71264367816092,-8225.816092,1477.896551724138,-883.8965517,11
15-06-2024 11:29,0.051312681,0.004886922,-0.02687807,-0.193930343,-10.14423275,0.648828685,18.12903225806452,116.06451612903226,55.0,-8215.870968,1483.8387096774193,-888.7419355,11
15-06-2024 11:29,0.051312681,0.004886922,-0.02687807,-0.193930343,-10.14423275,0.648828685,16.4,125.6,50.6,-8225.6,1472.6,-887.4,11
15-06-2024 11:29,-0.02687807,-0.004886922,0.00122173,-0.251391172,-10.08437729,0.591367841,49.65555555555556,103.96666666666668,69.74444444444444,-8237.0,1461.7444444444443,-871.5666667,11
15-06-2024 11:29,-0.02687807,-0.004886922,0.00122173,-0.268150598,-9.777919769,0.584185243,48.28888888888889,88.02222222222223,69.11111111111111,-8240.044444,1475.2444444444443,-870.9555556,11
15-06-2024 11:29,0.032986723,-0.007330383,0.007330383,-0.268150598,-9.777919769,0.584185243,53.48275862068965,98.71264367816092,64.26436781609195,-8229.011494,1484.9655172413793,-860.7011494,11
15-06-2024 11:29,0.186924771,0.012217305,-0.047647487,-0.363918662,-10.00536919,0.629675031,36.73033707865169,114.21348314606742,25.235955056179776,-8236.382022,1460.561797752809,-857.0786517,11
15-06-2024 11:29,0.186924771,0.012217305,-0.047647487,-0.363918662,-10.00536919,0.629675031,64.61363636363636,90.36363636363636,56.52272727272727,-8264.090909,1443.6363636363635,-861.7045455,11
15-06-2024 11:29,0.02687807,-0.002443461,-0.017104227,-0.20590134,-9.883264542,0.694318473,74.62790697674419,98.24418604651164,72.45348837209302,-8235.27907,1451.3837209302326,-860.9302326,11
15-06-2024 11:29,0.034208454,-0.014660766,0.00122173,-0.239420176,-10.0460701,0.691924274,85.09302325581396,102.31395348837208,80.01162790697674,-8239.930233,1457.7790697674418,-859.7674419,11
15-06-2024 11:29,0.034208454,-0.014660766,0.00122173,-0.239420176,-10.0460701,0.691924274,75.72413793103448,110.70114942528735,93.13793103448276,-8243.436782,1464.1379310344828,-856.9885057,11
15-06-2024 11:29,-0.024434609,-0.006108652,0.010995574,-0.189141929,-10.01973438,0.639251828,101.50561797752808,93.74157303370788,95.91011235955057,-8233.842697,1479.6516853932585,-838.1685393,11
15-06-2024 11:29,-0.024434609,-0.006108652,0.010995574,-0.189141929,-10.01973438,0.639251828,57.56741573033708,60.78089887640449,107.73595505617978,-8225.848315,1504.2640449438202,-845.5280899,11
15-06-2024 11:29,0.045204028,0.00122173,-0.014660766,-0.275333196,-9.916783333,0.553060591,50.264044943820224,-77.98314607,107.1741573033708,-8229.780899,1504.8258426966293,-846.6516854,11
15-06-2024 11:29,0.052534413,-0.014660766,0.028099801,-0.239420176,-9.880870819,0.825999558,41.0,102.9655172413793,72.45977011494253,-8240.275862,1491.2298850574712,-874.4827586,11
15-06-2024 11:29,0.052534413,-0.014660766,0.028099801,-0.239420176,-9.880870819,0.825999558,30.96551724137931,104.8735632183908,54.83908045977012,-8234.574713,1477.264367816092,-871.6551724,11
15-06-2024 11:29,-0.010995574,-0.014660766,0.013439035,-0.272938997,-9.938331604,0.641646028,51.02247191011236,-124.1573034,74.98876404494382,-8225.11236,1475.0,-865.9325843,11
15-06-2024 11:29,0.006108652,-0.007330383,-0.002443461,-0.280121595,-10.08916569,0.495599747,62.90588235294118,100.09411764705882,91.90588235294118,-8239.341176,1486.1411764705883,-866.9058824,11
15-06-2024 11:29,0.006108652,-0.007330383,-0.002443461,-0.280121595,-10.08916569,0.495599747,57.735632183908045,111.83908045977012,90.34482758620688,-8226.448276,1492.574712643678,-858.9195402,11
15-06-2024 11:29,0.024434609,-0.002443461,-0.004886922,-0.272938997,-10.02931118,0.617704034,40.95505617977528,122.58426966292134,66.95505617977528,-8234.876404,1507.2921348314608,-868.6292135,11
15-06-2024 11:29,0.024434609,-0.002443461,-0.004886922,-0.272938997,-10.02931118,0.617704034,30.168539325842698,122.1685393258427,40.69662921348315,-8229.617978,1487.191011235955,-881.8539326,11
15-06-2024 11:29,-0.003665192,-0.006108652,-0.008552114,-0.258573771,-10.10831928,0.59376204,41.85227272727273,76.1590909090909,81.98863636363636,-8246.147727,1462.2272727272727,-868.6477273,11
15-06-2024 11:29,-0.013439035,-0.002443461,0.0,-0.313640416,-10.04367638,0.658405483,69.77011494252874,89.05747126436782,76.83908045977012,-8229.413793,1498.1494252873565,-869.862069,11
15-06-2024 11:29,-0.013439035,-0.002443461,0.0,-0.313640416,-10.04367638,0.658405483,37.26086956521739,-59.91304348,77.56521739130434,-8221.782609,1494.0,-856.6956522,11
15-06-2024 11:29,-0.008552114,-0.002443461,0.007330383,-0.244208574,-9.976638794,0.63446343,52.27906976744186,125.44186046511628,79.5813953488372,-8243.0,1508.3023255813953,-858.0,11
15-06-2024 11:29,0.041538838,-0.00122173,-0.003665192,-0.342370838,-10.06761837,0.754173517,23.333333333333336,102.6,42.03333333333333,-8224.033333,1509.8333333333333,-853.6666667,11
15-06-2024 11:29,0.041538838,-0.00122173,-0.003665192,-0.342370838,-10.06761837,0.754173517,-267.8994083,119.36686390532545,25.0,-8239.544379,1500.7337278106509,-872.9112426,11
15-06-2024 11:29,-0.014660766,-0.007330383,0.013439035,-0.265756398,-10.01494598,0.713472128,17.244444444444444,-56.38888889,31.322222222222223,-8254.166667,1463.1333333333334,-872.7555556,11
15-06-2024 11:29,-0.014660766,-0.007330383,0.013439035,-0.265756398,-10.01494598,0.713472128,24.31460674157304,103.74157303370788,52.7752808988764,-8247.460674,1469.5168539325844,-874.7865169,11
15-06-2024 11:29,-0.009773844,-0.006108652,-0.003665192,-0.282515794,-9.988609314,0.627280831,44.59550561797753,69.25842696629213,77.21348314606742,-8228.269663,1491.3258426966293,-864.9325843,11
15-06-2024 11:29,0.004886922,-0.00122173,0.00122173,-0.304063618,-10.02452278,0.644040287,25.688622754491018,98.8443113772455,24.97005988023952,-8232.622754,1473.7185628742516,-849.4371257,11
15-06-2024 11:29,0.004886922,-0.00122173,0.00122173,-0.304063618,-10.02452278,0.644040287,29.281437125748504,100.64071856287426,29.16167664670659,-8225.437126,1473.1197604790418,-848.239521,11
15-06-2024 11:29,0.020769419,0.004886922,-0.00122173,-0.222660765,-10.01733971,0.665588081,41.13414634146341,39.17073170731706,40.15853658536585,-8247.743902,1423.5121951219512,-844.2560976,11
15-06-2024 11:29,0.020769419,0.004886922,-0.00122173,-0.191536129,-9.981427193,0.723048925,85.58695652173913,87.91304347826087,77.71739130434783,-8230.586957,1439.5652173913045,-837.3043478,11
15-06-2024 11:29,0.101403631,-0.009773844,0.006108652,-0.191536129,-9.981427193,0.723048925,84.9875,109.9875,33.3375,-8260.7375,1458.9625,-854.0125,11
15-06-2024 11:29,-0.006108652,-0.015882496,0.002443461,-0.292092621,-9.916783333,0.746990919,-108.7888889,31.77777777777778,20.622222222222224,-8250.455556,1454.3777777777775,-842.6111111,11
15-06-2024 11:29,-0.006108652,-0.015882496,0.002443461,-0.292092621,-9.916783333,0.746990919,57.86046511627907,63.95348837209302,34.48837209302326,-8228.139535,1421.0232558139537,-787.3255814,11
15-06-2024 11:29,0.003665192,-0.00122173,-0.002443461,-0.268150598,-10.06522369,0.636857629,53.8,37.400000000000006,52.7,-8256.1,1657.8,-787.3,11
15-06-2024 11:29,0.008552114,-0.004886922,0.00122173,-0.244208574,-10.03888798,0.610521436,51.84090909090909,26.704545454545453,81.77272727272727,-8254.170455,1657.6022727272727,-812.3977273,11
15-06-2024 11:29,0.008552114,-0.004886922,0.00122173,-0.244208574,-10.03888798,0.610521436,55.78651685393258,-117.0337079,106.95505617977528,-8259.359551,1530.258426966292,-825.1460674,11
15-06-2024 11:29,0.029321533,0.00122173,-0.007330383,-0.251391172,-10.07719517,0.581790984,81.05681818181819,105.35227272727272,106.8181818181818,-8262.704545,1464.0681818181818,-833.5909091,11
15-06-2024 11:29,0.029321533,0.00122173,-0.007330383,-0.251391172,-10.07719517,0.581790984,53.77272727272727,106.77272727272728,51.77272727272727,-8255.454545,1455.0454545454545,-825.5454545,11
15-06-2024 11:29,-0.012217305,-0.007330383,-0.002443461,-0.248996973,-10.0269165,0.605733037,55.57692307692308,72.76923076923077,24.96153846153846,-8264.769231,1530.5,-806.0384615,11
15-06-2024 11:29,0.010995574,-0.00122173,0.0,-0.215478152,-10.02452278,0.63446343,55.027472527472526,52.989010989010985,28.807692307692307,-8273.56044,1651.928571428571,-787.9065934,11
15-06-2024 11:29,0.010995574,-0.00122173,0.0,-0.215478152,-10.02452278,0.63446343,25.019736842105264,-9.059210526,74.11842105263158,-8251.414474,1436.0723684210527,-792.0986842,11
15-06-2024 11:29,0.007330383,0.00122173,0.0,-0.225054964,-10.00776291,0.600944638,30.0,-94.0,86.2,-8259.2,1415.4,-831.6,11
15-06-2024 11:29,0.0,-0.008552114,0.018325957,-0.263362199,-10.06522369,0.598550439,58.18064516129032,99.90967741935484,82.18064516129033,-8260.909677,1427.2709677419357,-836.4580645,11
15-06-2024 11:29,0.0,-0.008552114,0.018325957,-0.263362199,-10.06522369,0.598550439,59.47096774193548,99.26451612903226,83.47096774193548,-8260.264516,1429.2064516129033,-832.5870968,11
15-06-2024 11:29,-0.012217305,-0.00122173,0.0,-0.292092621,-9.943120003,0.689530075,58.70114942528736,-116.7126437,79.65517241379311,-8248.172414,1433.8850574712644,-820.7011494,11
15-06-2024 11:29,-0.012217305,-0.00122173,0.0,-0.292092621,-9.943120003,0.689530075,66.48913043478261,-113.923913,69.51086956521739,-8249.717391,1444.8260869565215,-824.0,11
15-06-2024 11:29,-0.025656341,-0.00122173,0.012217305,-0.277727395,-10.09874249,0.605733037,34.63636363636364,105.8181818181818,72.27272727272728,-8253.363636,1483.0,-830.0909091,11
15-06-2024 11:29,0.021991149,-0.002443461,0.002443461,-0.29688102,-9.844957352,0.636857629,-220.6704545,100.67045454545456,25.625,-8246.522727,1466.625,-825.7386364,11
15-06-2024 11:29,0.021991149,-0.002443461,0.002443461,-0.29688102,-9.844957352,0.636857629,-273.494382,108.37078651685394,3.4943820224719104,-8245.640449,1637.5280898876404,-795.6292135,11
15-06-2024 11:29,0.009773844,-0.003665192,0.004886922,-0.270544797,-10.05325317,0.59615624,44.23863636363637,83.63636363636364,76.5909090909091,-8252.647727,1413.3522727272727,-811.8409091,11
15-06-2024 11:29,0.008552114,-0.002443461,0.002443461,-0.234631762,-9.99100399,0.644040287,21.584269662921347,121.40449438202248,101.48314606741572,-8270.258427,1463.0786516853932,-814.3820225,11
15-06-2024 11:29,0.008552114,-0.002443461,0.002443461,-0.234631762,-9.99100399,0.644040287,6.303370786516854,102.87640449438204,-16.48314607,-8272.05618,1457.685393258427,-803.0561798,11
15-06-2024 11:29,0.014660766,0.004886922,-0.010995574,-0.265756398,-10.01733971,0.63206923,-150.0108696,68.76086956521739,-153.8152174,-8264.304348,1653.9891304347825,-675.9891304,11
15-06-2024 11:29,0.014660766,0.004886922,-0.010995574,-0.265756398,-10.01733971,0.63206923,17.91566265060241,68.5421686746988,42.90361445783133,-8249.481928,1417.55421686747,-785.5662651,11
15-06-2024 11:29,0.031764992,0.006108652,-0.003665192,-0.158017308,-10.0604353,0.67037648,-268.5909091,78.97727272727273,50.95454545454545,-8250.204545,1415.340909090909,-781.7954545,11
15-06-2024 11:29,0.074525557,-0.007330383,0.018325957,-0.210689753,-9.976638794,0.703895271,17.439560439560438,99.75824175824177,26.021978021978025,-8271.989011,1615.2637362637363,-485.5164835,11
15-06-2024 11:29,0.074525557,-0.007330383,0.018325957,-0.210689753,-9.976638794,0.703895271,38.8021978021978,105.81318681318682,48.527472527472526,-8266.989011,1641.8131868131868,-497.8021978,11
15-06-2024 11:29,-0.057421334,-0.018325957,0.02687807,-0.289698392,-10.01973438,0.761356115,25.22302158273381,-119.6258993,76.59712230215827,-8247.568345,1651.5827338129495,-773.5827338,11
15-06-2024 11:29,-0.091629788,0.006108652,0.0,-0.282515794,-9.974244118,0.541089594,-249.9195402,-77.90804598,115.02298850574712,-8256.137931,1426.3333333333333,-494.5057471,11
15-06-2024 11:29,-0.091629788,0.006108652,0.0,-0.282515794,-9.974244118,0.541089594,5.066666666666666,-121.0666667,81.46666666666667,-8293.866667,1481.5333333333333,-793.0,11
15-06-2024 11:29,0.051312681,0.0,-0.02321288,-0.20350714,-10.04367638,0.648828685,53.15384615384615,74.6923076923077,-44.0,-8252.74359,1463.5641025641023,-715.6666667,11
15-06-2024 11:29,0.051312681,0.0,-0.02321288,-0.20350714,-10.04367638,0.648828685,-300.2413793,-61.5862069,-273.2068966,-8249.344828,1640.448275862069,-776.7241379,11
15-06-2024 11:29,0.0,0.003665192,0.013439035,-0.304063618,-10.15141487,0.636857629,-271.3953488,-53.75581395,36.55813953488372,-8269.569767,1630.2790697674418,-772.6627907,11
15-06-2024 11:29,-0.047647487,-0.031764992,0.028099801,-0.248996973,-10.03409958,0.699106872,-458.3932584,25.26966292134832,-192.1797753,-8300.988764,1625.3370786516855,-605.6741573,11
15-06-2024 11:29,-0.047647487,-0.031764992,0.028099801,-0.248996973,-10.03409958,0.699106872,-584.2386364,113.9090909090909,-49.48863636,-8211.170455,1200.3068181818182,-554.1477273,11
15-06-2024 11:29,-0.015882496,-0.006108652,0.006108652,-0.330399841,-10.03409958,0.493205547,-35.75581395,232.7325581395349,184.6627906976744,-8203.639535,1503.4651162790697,-584.6976744,11
15-06-2024 11:29,-0.015882496,-0.006108652,0.006108652,-0.265756398,-10.0604353,0.720654726,117.29473684210528,358.1894736842105,219.0842105263158,-8210.494737,1480.8526315789477,-765.0,11
15-06-2024 11:29,0.062308256,0.009773844,-0.006108652,-0.265756398,-10.0604353,0.720654726,63.97802197802198,258.20879120879124,309.2307692307692,-8261.747253,1717.4945054945056,-887.8681319,11
15-06-2024 11:29,0.02687807,-0.004886922,-0.008552114,-0.256179571,-10.12507915,0.782903969,-182.5,365.8974358974359,-79.97435897,-7940.679487,2027.7179487179487,-1081.166667,11
15-06-2024 11:29,0.02687807,-0.004886922,-0.008552114,-0.256179571,-10.12507915,0.782903969,-471.9195402,-139.8850575,-429.8045977,-8263.390805,1828.2413793103449,-959.5287356,11
15-06-2024 11:29,-0.039095376,-0.010995574,0.025656341,-0.272938997,-10.18732834,0.569819987,-568.8181818,-170.5454545,-207.5,-7930.909091,1683.3181818181818,-703.2727273,11
15-06-2024 11:29,-0.015882496,-0.009773844,0.00122173,-0.253785372,-10.00297451,0.770932972,-239.4719101,-259.1573034,-4.561797753,-8214.303371,1450.1797752808989,-821.6067416,11
15-06-2024 11:29,-0.015882496,-0.009773844,0.00122173,-0.253785372,-10.00297451,0.770932972,153.7191011235955,-287.1910112,-19.24719101,-8222.921348,1822.258426966292,-805.6292135,11
15-06-2024 11:29,0.013439035,-0.00122173,-0.009773844,-0.284909993,-10.08437729,0.679953277,-100.4623656,-280.344086,27.956989247311828,-8237.301075,1870.354838709677,-564.1612903,11
15-06-2024 11:29,0.013439035,-0.00122173,-0.009773844,-0.284909993,-10.08437729,0.679953277,-222.5,-290.6363636,80.39772727272728,-8252.965909,1879.625,-545.7045455,11
15-06-2024 11:29,0.064751714,0.003665192,-0.007330383,-0.196324542,-9.933543205,0.751779318,-533.0588235,-383.0941176,-100.8941176,-8265.917647,1833.9764705882355,-459.1647059,11
15-06-2024 11:29,-0.028099801,-0.010995574,0.004886922,-0.119710088,-9.904812813,0.730231524,-278.258427,-428.011236,306.1685393258427,-8229.033708,1827.561797752809,-604.6404494,11
15-06-2024 11:29,-0.028099801,-0.010995574,0.004886922,-0.119710088,-9.904812813,0.730231524,-339.1639344,-481.0327869,287.05737704918033,-7970.5,1820.549180327869,-476.2704918,11
15-06-2024 11:29,-0.040317107,-0.003665192,0.024434609,-0.272938997,-10.00536919,0.78050977,-273.5901639,-167.9180328,314.1065573770492,-8220.5,1850.877049180328,-218.0737705,11
15-06-2024 11:29,-0.04642576,0.00122173,0.0,-0.323217243,-9.995792389,0.713472128,-10.53333333,-275.2666667,-101.3444444,-8270.666667,1784.2888888888888,-210.8222222,11
15-06-2024 11:29,-0.04642576,0.00122173,0.0,-0.323217243,-9.995792389,0.713472128,46.71910112359551,-315.3146067,-105.8314607,-8240.325843,1779.494382022472,-198.7977528,11
15-06-2024 11:29,0.0,0.004886922,-0.002443461,-0.241814375,-10.04367638,0.663193882,-62.5,72.5,36.25,-8216.5,1696.75,-368.5,11
15-06-2024 11:29,0.0,0.004886922,-0.002443461,-0.241814375,-10.04367638,0.663193882,7.056179775280896,-64.58426966,-43.62921348,-8220.269663,1716.370786516854,-190.0898876,11
15-06-2024 11:29,-0.002443461,0.012217305,0.003665192,-0.277727395,-9.974244118,0.74459672,95.70786516853931,35.47191011235955,333.7752808988764,-8250.674157,2007.988764044944,-146.6516854,11
15-06-2024 11:29,-0.014660766,-0.004886922,-0.012217305,-0.263362199,-9.99100399,0.797269166,98.6,-359.0666667,245.7,-8268.7,2052.833333333333,-351.6333333,11
15-06-2024 11:29,-0.014660766,-0.004886922,-0.012217305,-0.263362199,-9.99100399,0.797269166,54.68131868131868,-327.6593407,114.48351648351648,-8197.461538,2092.868131868132,-304.3406593,11
15-06-2024 11:29,-0.083077677,-0.008552114,0.031764992,-0.304063618,-10.08198357,0.715866327,82.7032967032967,-138.6483516,-10.79120879,-8205.153846,2090.670329670329,-293.3516484,11
15-06-2024 11:29,0.036651913,0.009773844,-0.012217305,-0.239420176,-10.12747288,0.598550439,-26.50574713,27.96551724137931,58.05747126436781,-8263.931034,2107.586206896552,-288.3218391,11
15-06-2024 11:29,0.036651913,0.009773844,-0.012217305,-0.239420176,-10.12747288,0.598550439,67.6829268292683,100.39024390243902,-67.82926829,-8222.926829,2142.073170731708,-270.3658537,11
15-06-2024 11:29,0.057421334,0.003665192,-0.017104227,-0.265756398,-10.04846478,0.787692368,-31.68181818,49.77272727272727,14.840909090909092,-8244.568182,2137.0113636363635,22.125,11
15-06-2024 11:29,0.057421334,0.003665192,-0.017104227,-0.265756398,-10.04846478,0.787692368,121.86363636363636,53.77272727272727,64.31818181818181,-8220.318182,2166.0454545454545,21.63636363636364,11
15-06-2024 11:29,-0.040317107,-0.010995574,0.012217305,-0.220266551,-10.08198357,0.672770679,114.47727272727272,49.79545454545455,64.88636363636364,-8220.886364,2164.340909090909,22.77272727272728,11
15-06-2024 11:29,-0.048869219,-0.009773844,0.010995574,-0.210689753,-10.18732834,0.579396784,-374.7078652,-323.0786517,-119.4382022,-8211.730337,2102.494382022472,94.29213483146069,11
15-06-2024 11:29,-0.048869219,-0.009773844,0.010995574,-0.210689753,-10.18732834,0.579396784,-115.2272727,-265.4318182,-121.1590909,-8225.034091,2164.704545454545,110.04545454545456,11
15-06-2024 11:29,0.008552114,0.003665192,-0.008552114,-0.342370838,-9.967061996,0.691924274,265.85057471264366,35.287356321839084,32.05747126436782,-8196.344828,1943.574712643678,83.91954022988506,11
15-06-2024 11:29,0.008552114,0.003665192,-0.008552114,-0.234631762,-10.03409958,0.821211159,222.6931818181818,-78.76136364,-302.4318182,-8243.522727,1979.75,125.0340909090909,11
15-06-2024 11:29,0.029321533,0.003665192,-0.015882496,-0.234631762,-10.03409958,0.821211159,-83.61538462,121.3846153846154,-269.7692308,-8229.461538,2148.769230769231,115.3076923076923,11
15-06-2024 11:29,-0.020769419,-0.014660766,0.0,-0.210689753,-9.974244118,0.711077929,96.83720930232558,120.04651162790698,77.30232558139535,-8241.930233,2125.4186046511627,105.25581395348836,11
15-06-2024 11:29,-0.020769419,-0.014660766,0.0,-0.210689753,-9.974244118,0.711077929,-19.42528736,68.39080459770115,-80.73563218,-8254.057471,2106.103448275862,87.2183908045977,11
15-06-2024 11:29,-0.059864793,-0.003665192,0.020769419,-0.198718742,-10.0604353,0.677559078,-30.88636364,-295.0568182,-108.6477273,-8244.465909,1938.3068181818185,70.23863636363636,11
15-06-2024 11:29,0.004886922,0.009773844,-0.010995574,-0.232237563,-9.979032516,0.708683729,-73.25,-265.5,68.75,-8213.25,1940.25,-57.75,11
15-06-2024 11:29,0.004886922,0.009773844,-0.010995574,-0.232237563,-9.979032516,0.708683729,54.06521739130434,44.434782608695656,94.3913043478261,-8207.793478,1924.6304347826087,-95.97826087,11
15-06-2024 11:29,0.003665192,0.002443461,0.006108652,-0.275333196,-9.959878922,0.720654726,84.03488372093024,83.59302325581396,99.96511627906976,-8228.732558,2164.1627906976746,-75.23255814,11
15-06-2024 11:29,0.003665192,0.002443461,0.006108652,-0.275333196,-9.959878922,0.720654726,78.95555555555555,75.2,64.1,-8215.844444,1941.0,-85.85555556,11
15-06-2024 11:29,-0.02321288,-0.013439035,-0.00122173,-0.179565132,-9.979032516,0.732625723,3.4806629834254146,-118.9281768,87.30939226519337,-8215.972376,1940.9060773480664,-96.0,11
15-06-2024 11:29,-0.04642576,-0.003665192,0.015882496,-0.301669419,-9.974244118,0.699106872,-158.3977901,-89.09392265,77.3646408839779,-8227.574586,1940.353591160221,-96.0,11
15-06-2024 11:29,-0.04642576,-0.003665192,0.015882496,-0.301669419,-9.974244118,0.699106872,30.55555555555556,-39.37037037,80.79012345679013,-8235.481481,1945.41975308642,35.419753086419746,11
15-06-2024 11:29,0.024434609,-0.009773844,0.0,-0.277727395,-10.01973438,0.74220252,17.613636363636363,107.27272727272728,85.70454545454545,-8213.886364,1929.6818181818185,-117.5909091,11
15-06-2024 11:29,0.063529983,0.00122173,-0.006108652,-0.241814375,-9.806650162,0.739808321,38.60674157303371,-128.0,75.07865168539325,-8226.719101,2014.4494382022472,-97.56179775,11
15-06-2024 11:29,0.063529983,0.00122173,-0.006108652,-0.241814375,-9.806650162,0.739808321,44.48314606741573,-118.7752809,63.71910112359551,-8227.988764,1942.0224719101125,-107.258427,11
15-06-2024 11:29,0.054977871,-0.002443461,-0.004886922,-0.248996973,-9.955090523,0.778115571,35.75,-95.375,57.25,-8208.75,1943.125,-91.875,11
15-06-2024 11:29,0.054977871,-0.002443461,-0.004886922,-0.248996973,-9.955090523,0.778115571,29.295454545454547,-104.9090909,75.8409090909091,-8229.113636,1958.0454545454545,-123.6590909,11
15-06-2024 11:29,0.004886922,-0.009773844,0.004886922,-0.172382519,-9.900024414,0.74220252,16.514285714285712,121.06285714285714,36.80571428571429,-8220.16,1946.0628571428567,-126.4514286,11
15-06-2024 11:29,-0.009773844,-0.007330383,0.013439035,-0.268150598,-9.935936928,0.763750315,29.15909090909091,89.36363636363636,41.54545454545455,-8214.113636,1941.8181818181813,121.5909090909091,11
15-06-2024 11:29,-0.009773844,-0.007330383,0.013439035,-0.268150598,-9.935936928,0.763750315,34.89655172413793,-48.17241379,46.310344827586206,-8222.862069,2165.206896551724,-117.2413793,11
15-06-2024 11:29,0.018325957,-0.003665192,0.013439035,-0.260968,-9.959878922,0.802057564,67.39772727272728,118.02272727272728,46.73863636363636,-8229.113636,2147.9886363636365,-8.954545455,11
15-06-2024 11:29,0.002443461,0.00122173,0.013439035,-0.258573771,-10.01494598,0.74459672,103.44705882352942,77.0,79.65882352941176,-8214.447059,2156.105882352941,-115.5529412,11
15-06-2024 11:29,0.002443461,0.00122173,0.013439035,-0.258573771,-10.01494598,0.74459672,93.27058823529411,110.08235294117648,119.34117647058824,-8216.658824,1953.729411764706,-116.7176471,11
15-06-2024 11:29,0.02321288,-0.002443461,-0.010995574,-0.237025961,-10.0364933,0.840364814,50.58139534883721,64.95348837209303,65.38372093023256,-8234.965116,1962.1976744186047,-119.0116279,11
15-06-2024 11:29,0.02321288,-0.002443461,-0.010995574,-0.237025961,-10.0364933,0.840364814,67.74193548387098,81.89247311827957,62.623655913978496,-8229.591398,1934.989247311828,-118.8064516,11
15-06-2024 11:29,0.002443461,-0.007330383,-0.004886922,-0.294486821,-9.933543205,0.943315446,90.06896551724138,-102.6206897,64.89655172413794,-8238.206897,2165.9310344827586,-106.1034483,11
15-06-2024 11:29,0.002443461,-0.007330383,-0.004886922,-0.294486821,-9.933543205,0.943315446,83.31111111111112,97.88888888888889,73.0,-8233.1,1922.055555555556,-102.4222222,11
15-06-2024 11:29,-0.010995574,-0.002443461,0.014660766,-0.29688102,-9.940725327,0.864306808,62.01123595505618,97.82022471910112,77.88764044943821,-8226.0,1927.629213483146,-102.6966292,11
15-06-2024 11:29,0.017104227,0.003665192,0.008552114,-0.33279404,-10.00058079,0.852335811,45.422222222222224,-120.2,78.53333333333333,-8220.111111,1946.2,-104.1111111,11
15-06-2024 11:29,0.017104227,0.003665192,0.008552114,-0.33279404,-10.00058079,0.852335811,45.15384615384615,5.92307692307692,32.934065934065934,-8232.384615,2064.6593406593406,-114.4175824,11
15-06-2024 11:29,0.017104227,-0.00122173,0.010995574,-0.287304193,-10.04846478,0.881066203,39.19767441860465,114.11627906976744,63.174418604651166,-8233.930233,2013.43023255814,36.372093023255815,11
15-06-2024 11:29,0.017104227,-0.00122173,0.010995574,-0.287304193,-10.04846478,0.881066203,30.764044943820224,-67.7752809,55.8876404494382,-8225.764045,2109.6629213483147,-52.02247191,11
15-06-2024 11:29,0.018325957,-0.002443461,0.004886922,-0.299275219,-9.974244118,0.885854602,49.84472049689441,-126.0310559,65.75155279503106,-8226.15528,2161.5155279503106,-111.9689441,11
15-06-2024 11:29,0.014660766,-0.00122173,-0.007330383,-0.301669419,-9.99100399,0.955286503,52.5,-122.5,78.5,-8237.5,2048.5,-111.5,11
15-06-2024 11:29,0.014660766,-0.00122173,-0.007330383,-0.301669419,-9.99100399,0.955286503,69.87640449438203,106.561797752809,67.7752808988764,-8224.11236,1930.224719101124,-112.6179775,11
15-06-2024 11:29,-0.004886922,-0.004886922,0.002443461,-0.29688102,-9.988609314,0.907402456,18.18032786885246,-125.0,79.68852459016394,-8230.180328,1940.9344262295083,-122.6721311,11
15-06-2024 11:29,0.056199603,-0.003665192,0.02687807,-0.239420176,-9.861717224,0.916979253,12.715846994535518,-125.0,70.94535519125682,-8224.715847,1933.830601092896,-120.4863388,11
15-06-2024 11:29,0.056199603,-0.003665192,0.02687807,-0.239420176,-9.861717224,0.916979253,50.07692307692308,85.5,70.92307692307692,-8230.269231,1924.923076923077,41.19230769230769,11
15-06-2024 11:29,0.040317107,0.003665192,-0.00122173,-0.308852017,-9.947908401,0.861912608,54.02105263157895,102.54736842105262,58.51578947368421,-8217.515789,2168.9894736842107,-109.4631579,11
15-06-2024 11:29,0.040317107,0.003665192,-0.00122173,-0.308852017,-9.947908401,0.861912608,38.79775280898876,-22.96629213,75.30337078651685,-8231.573034,1925.584269662921,-118.4269663,11
15-06-2024 11:29,0.004886922,0.002443461,0.012217305,-0.232237563,-10.01494598,0.876277804,34.37037037037037,119.77777777777776,88.66666666666667,-8236.481481,1933.888888888889,-115.4444444,11
15-06-2024 11:29,-0.021991149,-0.009773844,-0.007330383,-0.251391172,-9.983820915,0.924161851,41.83529411764706,107.16470588235296,56.32941176470588,-8224.658824,1934.3294117647056,-101.1647059,11
15-06-2024 11:29,-0.021991149,-0.009773844,-0.007330383,-0.251391172,-9.983820915,0.924161851,22.05263157894737,-100.6842105,59.89473684210526,-8219.105263,1937.7894736842104,-119.3684211,11
15-06-2024 11:29,-0.028099801,-0.007330383,0.014660766,-0.234631762,-10.0317049,0.972045898,-259.3297872,-89.9787234,46.297872340425535,-8244.06383,1940.244680851064,-116.2978723,11
15-06-2024 11:29,-0.028099801,-0.007330383,0.014660766,-0.234631762,-10.0317049,0.972045898,8.214285714285715,113.78571428571428,78.30952380952381,-8232.285714,1955.2142857142856,97.97619047619048,11
15-06-2024 11:29,-0.020769419,0.002443461,-0.017104227,-0.272938997,-10.02212811,0.828393817,-274.9473684,59.26315789473684,34.526315789473685,-8205.789474,2171.9473684210525,-123.1578947,11
15-06-2024 11:29,0.018325957,-0.003665192,-0.018325957,-0.225054964,-9.969455719,0.969651699,-281.7432432,-85.23648649,35.648648648648646,-8209.114865,2156.6486486486488,-121.4324324,11
15-06-2024 11:29,0.018325957,-0.003665192,-0.018325957,-0.225054964,-9.969455719,0.969651699,-291.2027027,-79.15540541,27.54054054054054,-8223.304054,2148.5405405405404,-116.027027,11
15-06-2024 11:29,-0.045204028,-0.010995574,0.018325957,-0.260968,-9.971850395,0.74220252,89.67415730337079,80.47191011235955,64.56179775280899,-8216.05618,2155.61797752809,116.47191011235957,11
15-06-2024 11:29,0.017104227,-0.002443461,0.008552114,-0.275333196,-10.01255131,0.830788016,104.81286549707602,111.91228070175438,92.81286549707602,-8230.175439,2077.4444444444443,114.09941520467837,11
15-06-2024 11:29,0.017104227,-0.002443461,0.008552114,-0.275333196,-10.01255131,0.830788016,107.73684210526316,110.15789473684212,95.73684210526316,-8233.684211,1933.0,109.42105263157896,11
15-06-2024 11:29,0.036651913,-0.004886922,-0.004886922,-0.225054964,-9.947908401,0.950498104,61.78048780487805,107.2560975609756,72.07317073170732,-8206.219512,2169.048780487805,-112.0,11
15-06-2024 11:29,0.00122173,-0.00122173,0.007330383,-0.265756398,-10.01015759,0.919373453,34.888888888888886,-115.5925926,80.85185185185185,-8239.777778,2157.222222222222,-115.2222222,11
15-06-2024 11:29,-0.014660766,0.0,-0.002443461,-0.282515794,-10.0460701,0.833182216,59.05555555555556,-118.8555556,69.36666666666666,-8227.466667,2172.9,124.87777777777778,11
15-06-2024 11:29,-0.014660766,0.0,-0.002443461,-0.282515794,-10.0460701,0.833182216,75.83168316831683,-118.1089109,73.14851485148515,-8242.019802,2166.722772277228,125.14851485148516,11
15-06-2024 11:29,0.035430186,0.009773844,-0.009773844,-0.306457818,-9.974244118,0.916979253,101.82051282051282,3.92307692307692,92.87179487179488,-8216.410256,1937.179487179487,-13.0,11
15-06-2024 11:29,-0.054977871,-0.003665192,0.021991149,-0.304063618,-10.00776291,0.907402456,22.044444444444444,26.21111111111111,45.46666666666667,-8231.933333,1930.8666666666663,-126.5888889,11
15-06-2024 11:29,-0.054977871,-0.003665192,0.021991149,-0.304063618,-10.00776291,0.907402456,61.26829268292683,92.07317073170732,85.8780487804878,-8226.487805,1997.1463414634147,53.34146341463415,11
15-06-2024 11:29,0.021991149,0.007330383,-0.002443461,-0.244208574,-9.967061996,0.847547412,11.88095238095238,-125.3452381,104.95238095238096,-8211.571429,2140.2738095238096,125.13095238095238,11
15-06-2024 11:29,0.021991149,0.007330383,-0.002443461,-0.244208574,-9.967061996,0.847547412,63.0625,-98.1125,-118.1875,-8217.625,1956.25,112.375,11
15-06-2024 11:29,0.045204028,-0.002443461,0.002443461,-0.289698392,-9.871294022,0.9648633,55.96590909090909,96.86363636363636,64.82954545454545,-8232.761364,1960.636363636364,104.45454545454544,11
15-06-2024 11:29,-0.010995574,0.003665192,-0.017104227,-0.241814375,-9.902418137,0.914585054,54.26136363636363,90.04545454545455,56.30681818181818,-8220.829545,1942.4545454545453,-22.81818182,11
15-06-2024 11:29,-0.010995574,0.003665192,-0.017104227,-0.241814375,-9.902418137,0.914585054,41.93023255813954,-124.1860465,76.20930232558139,-8216.837209,1953.5348837209303,113.4186046511628,11
15-06-2024 11:29,-0.013439035,-0.013439035,0.029321533,-0.244208574,-10.0364933,0.940921247,36.46739130434783,-33.79347826,39.15217391304348,-8219.326087,1935.0978260869565,113.71739130434784,11
15-06-2024 11:29,-0.048869219,0.003665192,0.021991149,-0.316034615,-10.01973438,0.802057564,43.09756097560975,88.41463414634147,60.75609756097561,-8238.97561,1922.0,109.0,11
15-06-2024 11:29,-0.048869219,0.003665192,0.021991149,-0.316034615,-10.01973438,0.802057564,71.46739130434783,92.07608695652172,100.94565217391305,-8225.869565,1957.0869565217392,119.84782608695652,11
15-06-2024 11:29,0.05009095,0.013439035,-0.009773844,-0.189141929,-9.981427193,0.976834297,22.24705882352941,-61.72941176,58.98823529411764,-8215.529412,1964.741176470588,-64.49411765,11
15-06-2024 11:29,0.05009095,0.013439035,-0.009773844,-0.189141929,-9.981427193,0.976834297,21.043956043956044,-119.3516484,-227.3626374,-8224.967033,2166.879120879121,-107.5274725,11
15-06-2024 11:29,-0.008552114,0.002443461,-0.002443461,-0.220266551,-10.02931118,0.919373453,-315.0,71.4712643678161,83.5632183908046,-8258.149425,1979.5057471264367,101.0344827586207,11
15-06-2024 11:29,0.028099801,-0.021991149,0.028099801,-0.272938997,-9.962273598,0.981622696,-257.2173913,126.18478260869566,-1.760869565,-8220.76087,2161.0652173913045,-111.1195652,11
15-06-2024 11:29,0.028099801,-0.021991149,0.028099801,-0.272938997,-9.962273598,0.981622696,84.96385542168674,116.12048192771084,18.97590361445783,-8227.26506,2160.662650602409,91.01204819277108,11
15-06-2024 11:29,-0.043982297,-0.010995574,0.02321288,-0.253785372,-10.06282997,0.746990919,62.0,110.2,30.4,-8215.3,2105.6,-105.9,11
15-06-2024 11:29,-0.043982297,-0.010995574,0.02321288,-0.253785372,-10.06282997,0.746990919,96.6206896551724,99.65517241379312,41.6551724137931,-8233.413793,2047.551724137931,-117.6551724,11
15-06-2024 11:29,0.05009095,0.003665192,-0.007330383,-0.328005642,-10.0508585,0.89303726,56.31818181818182,101.61363636363636,45.01136363636364,-8229.329545,2153.6363636363635,0.9545454545454533,11
15-06-2024 11:29,0.008552114,0.002443461,-0.002443461,-0.215478152,-10.0269165,0.962469101,77.05434782608695,111.5108695652174,75.43478260869566,-8234.293478,2136.717391304348,-104.8586957,11
15-06-2024 11:29,0.008552114,0.002443461,-0.002443461,-0.215478152,-10.0269165,0.962469101,65.5632183908046,119.93103448275862,76.26436781609195,-8240.747126,2134.5172413793102,-112.7241379,11
15-06-2024 11:29,-0.030543262,0.00122173,-0.003665192,-0.220266551,-9.950302124,1.00317049,92.21739130434784,98.86956521739133,70.76086956521739,-8223.195652,2133.8478260869565,-104.826087,11
15-06-2024 11:29,-0.04642576,-0.014660766,0.02321288,-0.268150598,-10.10353088,0.914585054,85.15,-111.975,75.9875,-8224.9,2171.0125,-117.0375,11
15-06-2024 11:29,-0.04642576,-0.014660766,0.02321288,-0.268150598,-10.10353088,0.914585054,48.28260869565217,101.1086956521739,70.84782608695652,-8237.347826,2166.4565217391305,123.67391304347828,11
15-06-2024 11:29,0.013439035,0.003665192,0.0,-0.191536129,-10.00536919,0.89303726,5.044943820224719,-124.9550562,64.85393258426966,-8232.808989,2142.6853932584268,-90.62921348,11
15-06-2024 11:29,0.013439035,0.003665192,0.0,-0.191536129,-10.00536919,0.89303726,43.9873417721519,-105.1772152,74.20253164556962,-8230.43038,2140.012658227848,107.20253164556962,11
15-06-2024 11:29,0.041538838,0.009773844,-0.013439035,-0.256179571,-9.983820915,0.921767652,56.59756097560975,122.01219512195122,89.60975609756098,-8236.378049,2137.012195121951,101.3780487804878,11
15-06-2024 11:29,-0.080634214,0.004886922,0.0,-0.172382519,-10.0556469,0.972045898,74.27835051546391,105.1443298969072,91.54639175257732,-8236.690722,2151.6701030927834,119.03092783505154,11
15-06-2024 11:29,-0.080634214,0.004886922,0.0,-0.172382519,-10.0556469,0.972045898,68.17948717948718,102.76923076923076,79.7948717948718,-8226.641026,2011.8205128205127,-120.5128205,11
15-06-2024 11:29,-0.025656341,-0.015882496,0.024434609,-0.220266551,-9.979032516,0.825999558,51.90526315789474,-67.55789474,77.2421052631579,-8227.0,2110.4736842105262,67.68421052631578,11
15-06-2024 11:29,-0.025656341,-0.015882496,0.024434609,-0.258573771,-9.866505623,1.000776291,17.3855421686747,102.6024096385542,52.08433734939759,-8239.13253,2146.301204819277,124.13253012048192,11
15-06-2024 11:29,0.045204028,0.00122173,-0.014660766,-0.258573771,-9.866505623,1.000776291,24.73469387755102,-106.6734694,94.22448979591836,-8241.346939,2142.244897959184,96.26530612244898,11
15-06-2024 11:29,0.041538838,0.009773844,-0.008552114,-0.251391172,-10.0269165,0.993593693,55.45652173913044,116.21739130434784,64.81521739130434,-8226.326087,2154.5652173913045,106.95652173913044,11
15-06-2024 11:29,0.041538838,0.009773844,-0.008552114,-0.251391172,-10.0269165,0.993593693,49.24324324324324,113.45945945945944,87.45945945945945,-8232.108108,2137.972972972973,-118.3513514,11
15-06-2024 11:29,0.031764992,-0.004886922,0.009773844,-0.220266551,-10.0508585,0.940921247,53.54651162790698,109.7093023255814,80.25581395348837,-8230.674419,1927.546511627907,115.54651162790698,11
15-06-2024 11:29,-0.028099801,-0.021991149,0.021991149,-0.215478152,-10.05804157,0.840364814,47.752808988764045,13.80898876404494,71.66292134831461,-8220.505618,2172.0,118.42696629213484,11
15-06-2024 11:29,-0.028099801,-0.021991149,0.021991149,-0.215478152,-10.05804157,0.840364814,23.788235294117648,-108.4470588,78.34117647058824,-8227.552941,1922.7882352941176,104.10588235294118,11
15-06-2024 11:29,0.00122173,-0.007330383,-0.009773844,-0.251391172,-9.998186111,1.034295082,48.66666666666666,34.66666666666666,49.333333333333336,-8230.0,2157.6666666666665,104.0,11
15-06-2024 11:29,0.036651913,0.004886922,-0.013439035,-0.196324542,-9.998186111,0.991199493,56.868421052631575,90.92105263157896,92.8157894736842,-8225.789474,1935.0,91.1842105263158,11
15-06-2024 11:29,0.036651913,0.004886922,-0.013439035,-0.196324542,-9.998186111,0.991199493,37.888888888888886,108.44444444444444,84.33333333333333,-8221.222222,1933.2222222222224,99.22222222222224,11
15-06-2024 11:29,0.004886922,0.0,0.007330383,-0.258573771,-10.00536919,0.998382092,11.75,-118.5,63.0,-8215.25,1931.0,102.5,11
15-06-2024 11:29,0.004886922,0.0,0.007330383,-0.258573771,-10.00536919,0.998382092,30.89887640449438,-99.94382022,61.438202247191015,-8223.662921,2166.7865168539324,110.97752808988764,11
15-06-2024 11:29,0.039095376,-0.007330383,0.002443461,-0.234631762,-10.05325317,0.945709646,56.0,100.66666666666669,62.77777777777778,-8225.777778,2115.6666666666665,108.44444444444444,11
15-06-2024 11:29,0.0,-0.003665192,0.007330383,-0.265756398,-9.969455719,1.063025594,27.164835164835164,42.38461538461539,66.04395604395604,-8218.0,1940.4945054945056,107.95604395604396,11
15-06-2024 11:29,0.0,-0.003665192,0.007330383,-0.265756398,-9.969455719,1.063025594,17.72093023255814,-18.1627907,25.25581395348837,-8245.860465,2163.488372093024,124.2093023255814,11
15-06-2024 11:29,0.0,-0.002443461,0.003665192,-0.225054964,-9.88805294,1.000776291,44.35955056179776,97.37640449438204,66.37640449438203,-8229.623596,1922.0,103.20786516853931,11
15-06-2024 11:29,0.0,-0.002443461,0.003665192,-0.225054964,-9.88805294,1.000776291,38.741573033707866,102.43258426966293,71.43258426966293,-8224.567416,1922.0,101.52247191011236,11
15-06-2024 11:29,0.0,0.0,0.010995574,-0.289698392,-10.0460701,0.909796655,27.0,-52.8,52.68571428571428,-8243.371429,2125.114285714286,119.77142857142856,11
15-06-2024 11:29,0.003665192,0.00122173,-0.00122173,-0.241814375,-10.0604353,0.938527048,94.9247311827957,85.93548387096774,82.64516129032258,-8220.290323,1923.010752688172,117.6989247311828,11
15-06-2024 11:29,0.002443461,0.0,0.00122173,-0.292092621,-9.993397713,0.916979253,60.44,113.17333333333332,76.48,-8227.493333,1924.2666666666669,105.34666666666666,11
15-06-2024 11:29,-0.009773844,-0.012217305,-0.002443461,-0.18435353,-9.931148529,0.981622696,62.66,119.09333333333332,58.72,-8240.073333,1920.5666666666664,117.18666666666668,11
15-06-2024 11:29,-0.009773844,-0.012217305,-0.002443461,-0.18435353,-9.931148529,0.981622696,46.22826086956522,86.6413043478261,86.19565217391305,-8212.195652,1924.0760869565213,-94.54347826,11
15-06-2024 11:29,-0.025656341,-0.003665192,0.025656341,-0.222660765,-10.07240677,0.962469101,53.81318681318681,-105.1318681,82.31868131868131,-8217.450549,2163.7912087912086,-82.48351648,11
15-06-2024 11:29,-0.025656341,-0.003665192,0.025656341,-0.222660765,-10.07240677,0.962469101,49.0990099009901,-104.7722772,90.57425742574256,-8221.752475,1923.0891089108911,123.67326732673268,11
15-06-2024 11:29,-0.056199603,0.0,0.029321533,-0.272938997,-10.02212811,0.936132848,27.942857142857143,-93.34285714,79.68571428571428,-8231.657143,1936.8857142857144,108.62857142857143,11
15-06-2024 11:29,-0.031764992,0.008552114,0.003665192,-0.263362199,-10.00536919,0.837970614,19.266666666666666,-110.8666667,51.8,-8224.533333,1936.1333333333328,74.0,11
15-06-2024 11:29,-0.031764992,0.008552114,0.003665192,-0.263362199,-10.00536919,0.837970614,39.891304347826086,93.07608695652176,24.66304347826087,-8241.445652,2132.510869565217,68.0,11
15-06-2024 11:29,0.028099801,-0.003665192,-0.014660766,-0.304063618,-10.01973438,0.888248801,87.19047619047619,35.19047619047619,87.21428571428572,-8234.285714,2157.9761904761904,90.52380952380952,11
15-06-2024 11:29,0.045204028,0.002443461,-0.008552114,-0.237025961,-9.986215591,0.849941611,80.65957446808511,70.36170212765958,94.0,-8227.244681,1966.978723404256,116.85106382978724,11
15-06-2024 11:29,0.045204028,0.002443461,-0.008552114,-0.237025961,-9.986215591,0.849941611,64.40449438202248,107.1123595505618,58.07865168539326,-8218.325843,1951.134831460674,119.9438202247191,11
15-06-2024 11:29,0.010995574,-0.00122173,0.006108652,-0.280121595,-9.909601212,0.840364814,44.86363636363637,112.22727272727272,47.04545454545455,-8224.0,1921.409090909091,120.0909090909091,11
15-06-2024 11:29,0.010995574,-0.00122173,0.006108652,-0.280121595,-9.909601212,0.840364814,29.42857142857143,109.28571428571428,67.0,-8230.285714,2153.428571428572,114.07142857142856,11
15-06-2024 11:29,-0.029321533,-0.008552114,0.006108652,-0.239420176,-10.0460701,0.909796655,43.49473684210526,119.53684210526316,72.18947368421053,-8217.578947,2171.768421052632,105.0,11
15-06-2024 11:29,0.002443461,-0.00122173,0.039095376,-0.220266551,-10.07001209,0.847547412,41.70238095238095,-95.91666667,70.26190476190476,-8223.214286,1937.4761904761904,86.17857142857143,11
15-06-2024 11:29,0.002443461,-0.00122173,0.039095376,-0.220266551,-10.07001209,0.847547412,53.372093023255815,102.56976744186048,41.11627906976744,-8235.674419,2153.3837209302324,91.75581395348836,11
15-06-2024 11:29,0.006108652,-0.006108652,-0.004886922,-0.258573771,-10.08677197,0.814028561,64.7103825136612,69.84699453551913,65.95628415300547,-8239.836066,2053.3224043715845,118.2896174863388,11
15-06-2024 11:29,0.006108652,-0.006108652,-0.004886922,-0.311246216,-9.940725327,0.816422761,73.1639344262295,55.42622950819672,87.8360655737705,-8230.885246,1937.4590163934429,109.8360655737705,11
15-06-2024 11:29,0.025656341,0.004886922,0.013439035,-0.311246216,-9.940725327,0.816422761,31.404255319148938,-113.3297872,74.40425531914893,-8214.93617,1944.7978723404256,120.0744680851064,11
15-06-2024 11:29,0.019547688,-0.003665192,0.008552114,-0.241814375,-9.99100399,0.861912608,47.0,-92.87654321,71.50617283950618,-8237.123457,1933.3703703703704,98.24691358024693,11
15-06-2024 11:29,0.019547688,-0.003665192,0.008552114,-0.241814375,-9.99100399,0.861912608,52.16831683168317,114.3960396039604,69.72277227722772,-8231.970297,1934.851485148515,100.2871287128713,11
15-06-2024 11:29,-0.012217305,-0.002443461,0.002443461,-0.323217243,-10.0364933,0.814028561,46.17808219178082,118.27397260273972,72.72602739726027,-8227.90411,1938.3698630136987,101.26027397260276,11
15-06-2024 11:29,0.012217305,-0.004886922,0.006108652,-0.227449164,-9.971850395,0.89303726,35.5,-2.5,64.5,-8233.5,1939.5,99.5,11
15-06-2024 11:29,0.012217305,-0.004886922,0.006108652,-0.227449164,-9.971850395,0.89303726,45.21348314606742,86.14606741573034,28.39325842696629,-8234.988764,2170.3932584269664,-24.01123596,11
15-06-2024 11:29,0.0,-0.002443461,0.004886922,-0.311246216,-10.16099167,0.909796655,14.54054054054054,97.13513513513512,68.10810810810811,-8220.594595,1938.4864864864865,-51.43243243,11
15-06-2024 11:29,0.0,-0.002443461,0.004886922,-0.311246216,-10.16099167,0.909796655,13.23076923076923,-81.53846154,39.23076923076923,-8213.692308,2128.4615384615386,119.92307692307692,11
15-06-2024 11:29,0.02321288,-0.00122173,0.007330383,-0.323217243,-10.0604353,0.799663365,27.741935483870968,-111.7956989,49.82795698924731,-8244.935484,2153.2043010752686,109.08602150537637,11
15-06-2024 11:29,0.024434609,0.002443461,-0.009773844,-0.29688102,-10.04367638,0.960074902,46.51123595505618,98.96067415730336,57.74719101123596,-8227.921348,2157.3932584269664,113.23595505617978,11
15-06-2024 11:29,0.024434609,0.002443461,-0.009773844,-0.29688102,-10.04367638,0.960074902,59.81609195402299,95.55172413793105,71.91954022988506,-8223.551724,2166.183908045977,119.816091954023,11
15-06-2024 11:29,-0.012217305,-0.007330383,-0.002443461,-0.232237563,-10.02452278,0.933738649,30.736263736263737,-41.08791209,59.97802197802198,-8230.89011,1927.10989010989,102.21978021978022,11
15-06-2024 11:29,-0.021991149,0.0,0.018325957,-0.33279404,-9.844957352,1.015141487,11.404255319148936,107.04255319148936,33.93617021276596,-8220.042553,2160.021276595745,104.63829787234044,11
15-06-2024 11:29,-0.021991149,0.0,0.018325957,-0.33279404,-9.844957352,1.015141487,15.925,122.075,65.4625,-8215.85,2150.075,104.85,11
15-06-2024 11:29,-0.035430186,-0.018325957,-0.00122173,-0.256179571,-10.22802925,0.823605359,46.81818181818182,-121.2727273,81.0909090909091,-8224.727273,2152.181818181818,102.45454545454544,11
15-06-2024 11:29,-0.035430186,-0.018325957,-0.00122173,-0.256179571,-10.22802925,0.823605359,60.94318181818182,110.8181818181818,58.52272727272727,-8245.193182,2140.4772727272725,112.52272727272728,11
15-06-2024 11:29,0.00122173,-0.002443461,0.009773844,-0.292092621,-9.904812813,1.010353088,94.0,89.77173913043478,92.5108695652174,-8227.163043,2172.532608695652,114.20652173913044,11
15-06-2024 11:29,-0.008552114,-0.003665192,0.002443461,-0.275333196,-10.06282997,0.948103845,82.04938271604938,85.90123456790124,98.03703703703704,-8225.950617,1926.012345679012,-117.0864198,11
15-06-2024 11:29,-0.008552114,-0.003665192,0.002443461,-0.275333196,-10.06282997,0.948103845,54.0,-37.33333333,52.0,-8233.666667,1933.6666666666667,-42.33333333,11
15-06-2024 11:29,0.021991149,-0.003665192,-0.002443461,-0.294486821,-10.00058079,0.972045898,54.369565217391305,87.61956521739131,62.76086956521739,-8239.858696,2121.576086956521,118.04347826086956,11
15-06-2024 11:29,-0.009773844,-0.00122173,-0.00122173,-0.330399841,-9.96466732,0.943315446,47.98876404494382,107.0561797752809,73.26966292134831,-8233.303371,1929.247191011236,109.2247191011236,11
15-06-2024 11:29,-0.009773844,-0.00122173,-0.00122173,-0.330399841,-9.96466732,0.943315446,51.38372093023256,96.22093023255816,66.0813953488372,-8218.232558,1928.0813953488373,115.23255813953487,11
15-06-2024 11:29,0.028099801,-0.003665192,0.020769419,-0.306457818,-9.902418137,0.972045898,62.19277108433735,117.6987951807229,84.2289156626506,-8236.554217,2049.4457831325303,-9.409638554,11
15-06-2024 11:29,0.028099801,-0.003665192,0.020769419,-0.306457818,-9.902418137,0.972045898,65.26086956521739,108.91304347826087,79.78260869565217,-8226.173913,1938.0,123.21739130434784,11
15-06-2024 11:29,-0.004886922,0.0,0.007330383,-0.237025961,-9.99100399,0.919373453,58.51851851851852,-72.87654321,87.12345679012346,-8203.098765,1939.0,-125.654321,11
15-06-2024 11:29,-0.019547688,-0.003665192,0.006108652,-0.320823014,-10.00297451,0.895431459,-76.12359551,-46.31460674,72.0,-8221.775281,2138.7865168539324,-119.9662921,11
15-06-2024 11:29,-0.019547688,-0.003665192,0.006108652,-0.320823014,-10.00297451,0.895431459,107.5625,-65.1875,-112.0,-8215.5,1959.6875,69.4375,11
15-06-2024 11:29,0.017104227,0.002443461,0.007330383,-0.330399841,-9.995792389,0.998382092,-328.0481928,-90.84337349,83.19277108433735,-8230.73494,2309.9638554216867,13.313253012048191,11
15-06-2024 11:29,0.017104227,0.002443461,0.007330383,-0.330399841,-9.995792389,0.998382092,-213.787234,109.44680851063828,-314.4255319,-8219.659574,2168.8936170212764,45.38297872340426,11
15-06-2024 11:29,0.032986723,-0.002443461,-0.004886922,-0.304063618,-9.981427193,0.988805294,66.31818181818181,82.72727272727273,-201.6363636,-8219.647727,2093.1363636363635,100.72727272727272,11
15-06-2024 11:29,0.010995574,-0.00122173,0.00122173,-0.359130263,-9.955090523,1.007958889,78.30952380952381,12.60714285714286,-13.0952381,-8213.511905,2032.059523809524,101.46428571428572,11
15-06-2024 11:29,0.010995574,-0.00122173,0.00122173,-0.359130263,-9.955090523,1.007958889,-114.5227273,-77.47727273,6.568181818181813,-8209.704545,1971.4318181818185,86.95454545454545,11
15-06-2024 11:29,-0.012217305,0.0,-0.002443461,-0.339976639,-9.962273598,0.995987892,-188.8617021,-34.67021277,49.5531914893617,-8231.914894,2017.521276595745,27.5531914893617,11
15-06-2024 11:29,0.0,-0.002443461,-0.002443461,-0.366312861,-10.00776291,1.017535686,-341.5731707,-90.46341463,-288.8780488,-8230.878049,2103.134146341464,-267.3536585,11
15-06-2024 11:29,0.0,-0.002443461,-0.002443461,-0.366312861,-10.00776291,1.017535686,48.80898876404494,50.41573033707865,23.853932584269664,-8244.202247,2126.584269662921,8.47191011235955,11
15-06-2024 11:29,-0.00122173,-0.002443461,0.0,-0.349553436,-9.892841339,1.017535686,94.52873563218392,4.517241379310342,53.689655172413794,-8205.425287,2156.6666666666665,57.42528735632184,11
15-06-2024 11:29,-0.00122173,-0.002443461,0.0,-0.349553436,-9.892841339,1.017535686,74.82978723404256,92.05319148936172,61.47872340425532,-8230.840426,2147.3936170212764,106.25531914893617,11
15-06-2024 11:29,0.009773844,-0.003665192,0.012217305,-0.294486821,-9.967061996,1.091755986,15.325301204819278,120.0,72.87951807228916,-8230.614458,2173.746987951807,82.5421686746988,11
15-06-2024 11:29,-0.017104227,-0.002443461,0.002443461,-0.325611442,-10.13704967,0.984016895,22.218390804597703,50.74712643678161,53.28735632183908,-8222.689655,2092.7471264367814,92.6896551724138,11
15-06-2024 11:30,-0.017104227,-0.002443461,0.002443461,-0.325611442,-10.13704967,0.984016895,-85.55913978,-105.8817204,51.13978494623656,-8218.129032,2021.924731182796,71.78494623655914,11
15-06-2024 11:30,0.002443461,0.00122173,0.008552114,-0.318428814,-10.07719517,1.027112484,-137.0595238,-102.5714286,29.166666666666668,-8238.345238,2137.7023809523807,49.07142857142857,11
15-06-2024 11:30,0.009773844,-0.004886922,0.006108652,-0.354341865,-9.938331604,1.031900883,54.02298850574712,88.62068965517241,80.54022988505747,-8241.862069,2125.022988505747,49.3448275862069,11
15-06-2024 11:30,0.009773844,-0.004886922,0.006108652,-0.354341865,-9.938331604,1.031900883,54.81818181818182,92.13636363636364,87.5340909090909,-8224.954545,2149.1704545454545,61.95454545454545,11
15-06-2024 11:30,-0.00122173,-0.004886922,-0.004886922,-0.33279404,-10.02212811,1.017535686,96.85714285714286,92.67032967032966,63.82417582417583,-8226.67033,2160.1758241758243,72.0,11
15-06-2024 11:30,-0.00122173,-0.004886922,-0.004886922,-0.33279404,-10.02212811,1.017535686,102.33333333333331,97.66666666666669,81.33333333333333,-8227.333333,2162.0,63.333333333333336,11
15-06-2024 11:30,0.002443461,-0.002443461,-0.003665192,-0.284909993,-10.06282997,1.019929886,123.74698795180724,83.89156626506023,82.07228915662651,-8229.963855,2171.0722891566265,78.78313253012048,11
15-06-2024 11:30,0.020769419,-0.006108652,-0.007330383,-0.33518824,-9.955090523,1.000776291,82.90322580645162,82.2258064516129,75.16129032258064,-8219.419355,1923.225806451613,85.80645161290323,11
15-06-2024 11:30,0.020769419,-0.006108652,-0.007330383,-0.33518824,-9.955090523,1.000776291,50.023809523809526,-88.26190476,90.4047619047619,-8213.047619,2172.04761904762,86.64285714285714,11
15-06-2024 11:30,-0.009773844,-0.002443461,0.004886922,-0.29688102,-10.0317049,0.984016895,14.862068965517242,-120.2298851,91.04597701149426,-8237.597701,2068.494252873564,74.52873563218391,11
15-06-2024 11:30,-0.054977871,-0.004886922,0.002443461,-0.270544797,-9.993397713,0.924161851,13.727272727272728,1.7159090909090935,62.57954545454545,-8223.727273,1940.1931818181813,55.06818181818182,11
15-06-2024 11:30,-0.054977871,-0.004886922,0.002443461,-0.270544797,-9.993397713,0.924161851,35.75,41.77272727272728,60.43181818181819,-8214.0,2172.681818181818,51.15909090909091,11
15-06-2024 11:30,-0.02321288,-0.007330383,0.009773844,-0.330399841,-9.969455719,1.053448796,46.932584269662925,117.58426966292134,79.96629213483146,-8233.325843,2161.808988764045,49.96629213483146,11
15-06-2024 11:30,-0.02321288,-0.007330383,0.009773844,-0.330399841,-9.969455719,1.053448796,78.87912087912088,98.1098901098901,56.472527472527474,-8235.67033,2171.4945054945056,52.51648351648352,11
15-06-2024 11:30,0.00122173,0.004886922,0.014660766,-0.328005642,-9.931148529,0.926556051,81.4065934065934,81.50549450549451,61.7032967032967,-8194.791209,2152.7582417582416,87.73626373626374,11
15-06-2024 11:30,-0.007330383,-0.004886922,0.006108652,-0.347159237,-10.10831928,0.907402456,-209.8095238,-53.88095238,120.41666666666669,-8220.880952,2324.5119047619046,5.130952380952381,11
15-06-2024 11:30,-0.007330383,-0.004886922,0.006108652,-0.347159237,-10.10831928,0.907402456,-178.5217391,-59.34782609,-131.9130435,-8224.0,2155.8695652173915,72.91304347826087,11
15-06-2024 11:30,0.070860371,0.004886922,-0.018325957,-0.351947635,-10.06761837,1.029506683,-273.8117647,-101.3529412,-359.6117647,-8246.517647,2115.529411764706,19.352941176470587,11
15-06-2024 11:30,-0.009773844,-0.010995574,0.002443461,-0.359130263,-9.880870819,1.094150186,-234.3579545,75.01704545454545,46.33522727272727,-8222.215909,2081.596590909091,43.54545454545455,11
15-06-2024 11:30,-0.009773844,-0.010995574,0.002443461,-0.359130263,-9.880870819,1.094150186,-114.8043478,63.891304347826086,83.53260869565217,-8213.228261,2078.2065217391305,73.08695652173913,11
15-06-2024 11:30,-0.083077677,-0.003665192,0.013439035,-0.33518824,-10.02931118,0.945709646,84.86666666666666,-19.91111111,96.42222222222222,-8225.777778,2130.088888888889,92.31111111111112,11
15-06-2024 11:30,-0.083077677,-0.003665192,0.013439035,-0.33518824,-10.02931118,0.945709646,25.25,-93.5,95.75,-8224.25,2100.0,38.5,11
15-06-2024 11:30,-0.013439035,-0.002443461,-0.006108652,-0.311246216,-10.07719517,0.919373453,22.9438202247191,-75.68539326,97.0,-8235.11236,1963.483146067416,17.15730337078652,11
15-06-2024 11:30,0.025656341,0.007330383,-0.002443461,-0.289698392,-9.928754807,0.995987892,-247.8295455,-58.22727273,87.4090909090909,-8215.238636,2164.375,22.89772727272728,11
15-06-2024 11:30,0.025656341,0.007330383,-0.002443461,-0.289698392,-9.928754807,0.995987892,-334.1204819,-25.78313253,91.0,-8228.686747,1931.289156626506,-1.361445783,11
15-06-2024 11:30,0.006108652,-0.004886922,-0.00122173,-0.289698392,-9.969455719,1.015141487,-349.8,-7.0,-16.4,-8208.4,1946.4,-275.4,11
15-06-2024 11:30,0.006108652,-0.004886922,-0.00122173,-0.289698392,-9.969455719,1.015141487,-327.5875,-58.3625,-277.725,-8235.675,2117.35,-321.5625,11
15-06-2024 11:30,0.02321288,-0.014660766,0.020769419,-0.248996973,-10.02212811,0.993593693,24.32608695652174,115.69565217391305,21.195652173913043,-8231.869565,2060.2391304347825,-302.5434783,11
15-06-2024 11:30,0.073303826,0.007330383,-0.006108652,-0.311246216,-9.971850395,0.995987892,89.94117647058823,-18.8,89.30588235294118,-8223.023529,2112.141176470588,-300.9647059,11
15-06-2024 11:30,0.073303826,0.007330383,-0.006108652,-0.311246216,-9.971850395,0.995987892,84.82978723404256,97.6808510638298,92.20212765957449,-8214.244681,2155.191489361702,-288.8297872,11
15-06-2024 11:30,-0.003665192,0.0,-0.004886922,-0.268150598,-10.0412817,0.979228497,41.78048780487805,116.79268292682929,60.80487804878049,-8220.47561,2152.609756097561,-293.5243902,11
15-06-2024 11:30,0.034208454,-0.019547688,0.017104227,-0.246602774,-9.959878922,1.010353088,55.49425287356322,81.75862068965517,51.241379310344826,-8216.758621,2122.8735632183907,-271.1264368,11
15-06-2024 11:30,0.034208454,-0.019547688,0.017104227,-0.246602774,-9.959878922,1.010353088,71.26086956521739,67.65217391304348,93.04347826086956,-8235.565217,2143.1739130434785,-305.9130435,11
15-06-2024 11:30,0.020769419,-0.002443461,0.007330383,-0.294486821,-9.916783333,0.962469101,84.91764705882353,112.30588235294118,58.61176470588235,-8214.094118,2112.6470588235293,-280.2588235,11
15-06-2024 11:30,0.020769419,-0.002443461,0.007330383,-0.294486821,-9.916783333,0.962469101,-80.79310345,114.26436781609196,-116.9770115,-8231.08046,2102.574712643678,-280.5517241,11
15-06-2024 11:30,0.019547688,-0.00122173,-0.013439035,-0.263362199,-10.03409958,0.940921247,-26.1011236,94.96629213483146,-43.60674157,-8227.224719,2096.23595505618,-291.2022472,11
15-06-2024 11:30,0.045204028,0.013439035,-0.017104227,-0.246602774,-9.921571732,1.022324085,107.82222222222222,77.68888888888888,89.08888888888889,-8212.733333,2026.9777777777776,-269.6666667,11
15-06-2024 11:30,0.045204028,0.013439035,-0.017104227,-0.246602774,-9.921571732,1.022324085,120.26666666666668,-28.8,91.66666666666669,-8208.866667,2047.2,-264.2,11
15-06-2024 11:30,-0.09285152,-0.020769419,0.02687807,-0.20350714,-10.03888798,1.015141487,-290.505618,-64.38202247,90.34831460674155,-8217.797753,1943.5280898876404,-298.4157303,11
15-06-2024 11:30,-0.00122173,0.008552114,-0.002443461,-0.260968,-9.957485199,0.809240162,-304.6760563,-114.8028169,70.92957746478874,-8216.84507,2147.4084507042253,-297.4647887,11
15-06-2024 11:30,-0.00122173,0.008552114,-0.002443461,-0.260968,-9.957485199,0.809240162,63.86021505376344,-113.1935484,83.54838709677419,-8208.602151,2170.1397849462364,-317.8494624,11
15-06-2024 11:30,0.013439035,-0.002443461,0.004886922,-0.347159237,-9.988609314,1.012747288,38.42528735632184,-83.36781609,109.70114942528735,-8211.954023,1952.5632183908049,-358.5287356,11
15-06-2024 11:30,0.013439035,-0.002443461,0.004886922,-0.347159237,-9.988609314,1.012747288,30.17977528089888,89.29213483146067,70.21348314606742,-8215.438202,2139.1348314606744,-333.3820225,11
15-06-2024 11:30,0.035430186,0.015882496,-0.009773844,-0.260968,-9.957485199,0.969651699,106.26436781609196,29.27586206896552,49.0,-8143.413793,1931.436781609196,-291.8965517,11
15-06-2024 11:30,-0.030543262,-0.006108652,0.02321288,-0.292092621,-9.835380554,1.084573388,79.3409090909091,46.79545454545455,60.36363636363637,-8196.954545,2096.840909090909,-292.1136364,11
15-06-2024 11:30,-0.030543262,-0.006108652,0.02321288,-0.292092621,-9.835380554,1.084573388,42.26966292134831,-105.4382022,91.25842696629212,-8199.0,1936.741573033708,-294.8202247,11
15-06-2024 11:30,-0.037873644,-0.008552114,0.035430186,-0.354341865,-10.22324085,0.835576415,17.12087912087912,-111.3956044,39.31868131868132,-8212.967033,1954.7692307692307,-329.032967,11
15-06-2024 11:30,0.00122173,-0.002443461,-0.004886922,-0.217872351,-10.00058079,0.969651699,23.367816091954023,97.2183908045977,56.63218390804597,-8220.367816,1945.896551724138,-346.1609195,11
