Timestamp,Gyro_x_x,Gyro_y_x,Gyro_z_x,Acc_x_x,Acc_y_x,Acc_z_x,Gyro_x_y,Gyro_y_y,Gyro_z_y,Acc_x_y,Acc_y_y,Acc_z_y,combined_action_num
2024-06-15 12:28:24,0.1246165112,-0.009773843922,0.01221730467,0.2274491638,-2.944868088,9.380482674,451.0344827586207,-138.79310344827587,-449.0,-8547.362068965518,964.0689655172414,1069.0,4
2024-06-15 12:28:24,0.06719517708,-0.03420845419,0.09773843735,0.174776718,-2.949656487,9.435548782,505.5393258426966,-844.3595505617977,-959.9662921348316,-8503.741573033707,1037.3370786516855,949.3932584269664,4
2024-06-15 12:28:24,0.06719517708,-0.03420845419,0.09773843735,0.174776718,-2.949656487,9.435548782,317.4767441860465,-148.1627906976744,287.40697674418607,-8215.488372093023,857.2209302325581,1365.4883720930231,4
2024-06-15 12:28:24,0.06963863969,-0.01466076635,0.06597344577,0.1149216816,-2.875436306,9.516951561,-223.1888888888889,225.51666666666665,1037.0777777777778,-8274.93888888889,832.6111111111111,1186.7944444444445,4
2024-06-15 12:28:24,0.06963863969,-0.01466076635,0.06597344577,0.1149216816,-2.875436306,9.516951561,-197.63333333333333,393.85,1255.9666666666667,-8274.383333333333,838.1666666666666,1194.0166666666669,4
2024-06-15 12:28:24,-0.1148426682,0.0109955743,0.01466076635,0.2011129409,-3.057395458,9.493009567,-443.2,-64.80000000000001,-170.2,-8643.4,1144.0,1361.6,4
2024-06-15 12:28:24,-0.02076941915,0.008552113548,0.02809980139,0.05746084079,-3.040636063,9.337387085,-125.77777777777776,-719.0222222222222,-810.2888888888889,-8263.8,1009.6888888888888,1303.8666666666666,4
2024-06-15 12:28:24,-0.02076941915,0.008552113548,0.02809980139,0.05746084079,-3.040636063,9.337387085,-40.6,-837.0,-1006.8,-8156.2,805.6,1259.0,4
2024-06-15 12:28:24,0.03665191308,0.02565634064,-0.06352998316,0.07422025502,-3.473986626,9.380482674,-387.5934065934066,-736.8461538461538,-708.2197802197802,-8190.868131868132,679.5604395604396,1477.065934065934,4
2024-06-15 12:28:25,-0.2785545588,0.03420845419,-0.161268428,0.2035071403,-2.22900176,9.617507935,-583.7441860465116,-878.3023255813954,-133.97674418604652,-8414.53488372093,719.3255813953488,1535.1627906976744,4
2024-06-15 12:28:25,-0.2785545588,0.03420845419,-0.161268428,0.2035071403,-2.22900176,9.617507935,-660.6022727272727,-875.0454545454545,-381.0454545454545,-8481.602272727272,848.1704545454545,1911.6931818181813,4
2024-06-15 12:28:25,0.2247984111,0.4312708676,-0.9859365225,3.895366192,-2.626439333,7.429207802,-797.6363636363636,-658.9772727272727,-1000.6136363636364,-8120.477272727273,-104.60227272727272,2027.897727272728,4
2024-06-15 12:28:25,1.291369081,-0.4996877611,-0.6866125464,-0.5746083856,-4.264073372,10.06282997,88.52873563218391,-740.5057471264367,-1437.2413793103449,-8236.816091954022,-309.7471264367816,2388.6666666666665,4
2024-06-15 12:28:25,1.291369081,-0.4996877611,-0.6866125464,-0.5746083856,-4.264073372,10.06282997,167.6067415730337,-654.5280898876405,-733.6067415730338,-8313.022471910112,-251.31460674157304,2299.7191011235955,4
2024-06-15 12:28:25,1.568701982,-0.4031710625,-0.8038986921,1.915361404,1.687912226,9.490615845,927.8684210526316,-173.94736842105263,528.3947368421053,-8226.052631578947,-332.13157894736844,2502.842105263158,4
2024-06-15 12:28:25,1.568701982,-0.4031710625,-0.8038986921,1.915361404,1.687912226,9.490615845,2128.78125,-530.4375,672.375,-8123.21875,-157.40625,2496.0625,4
2024-06-15 12:28:25,-1.167974353,0.8014551997,-1.167974353,1.934514999,-3.095702887,10.88164711,2551.333333333333,-312.55555555555554,-24.46666666666664,-8246.133333333333,82.93333333333334,2597.8444444444444,4
2024-06-15 12:28:25,-4.594928265,0.7562511563,1.183856845,-3.064578056,-2.123656988,9.703699112,2103.4117647058824,-313.52941176470586,-342.2352941176471,-8286.0,479.1764705882353,2674.0,4
2024-06-15 12:28:25,-4.594928265,0.7562511563,1.183856845,-3.064578056,-2.123656988,9.703699112,848.6,-366.6222222222222,799.5666666666666,-7974.577777777778,845.4444444444445,2501.8,4
2024-06-15 12:28:26,-9.75551796,-1.557706356,1.475850463,-3.948038578,-14.65730286,-5.559336185,193.3777777777778,260.35555555555555,704.7333333333333,-7862.866666666667,685.6222222222223,2808.511111111111,4
2024-06-15 12:28:26,-9.75551796,-1.557706356,1.475850463,-3.948038578,-14.65730286,-5.559336185,205.6896551724137,620.735632183908,829.1954022988506,-7897.954022988506,714.3793103448276,2526.609195402299,4
2024-06-15 12:28:26,0.96028018,-2.244318962,0.866206944,-2.647987127,-7.886500359,-2.384624958,33.764044943820224,-73.79775280898876,-158.4494382022472,-8114.494382022472,970.4269662921348,2668.14606741573,4
2024-06-15 12:28:26,6.168517113,-1.653001308,-0.1185078546,-3.066972494,-2.343923569,6.126761913,-581.561797752809,-8.685393258426963,-234.0224719101124,-8133.348314606742,1018.561797752809,2629.247191011236,4
2024-06-15 12:28:26,6.168517113,-1.653001308,-0.1185078546,-3.066972494,-2.343923569,6.126761913,-514.9560439560439,-238.82417582417585,-495.84615384615387,-8249.010989010989,961.4285714285714,2621.197802197802,4
2024-06-15 12:28:26,1.147204876,-0.0171042271,-0.7538077235,-5.394136429,-2.949656487,6.10281992,-125.47727272727272,-148.52272727272728,-686.25,-8089.590909090909,679.7727272727273,2672.5454545454545,4
2024-06-15 12:28:26,-0.4031710625,0.6743952036,-0.01343903504,-7.314286232,-4.644751072,6.473921299,-321.0434782608696,344.3695652173913,-54.260869565217405,-8081.695652173913,561.1521739130435,2559.043478260869,4
2024-06-15 12:28:26,-0.4031710625,0.6743952036,-0.01343903504,-7.314286232,-4.644751072,6.473921299,-209.27906976744185,331.65116279069764,-179.7906976744186,-8300.0,570.9302325581396,2510.6744186046512,4
2024-06-15 12:28:26,0.7929030657,-0.05253441259,0.4874704778,-5.786785603,-4.390965939,6.011840343,-140.31460674157304,10.943820224719104,-232.31460674157304,-8154.078651685393,481.6179775280899,2637.0224719101125,4
2024-06-15 12:28:26,0.5326744914,-0.04764748737,0.08307767659,-5.937620163,-3.550601006,6.797138691,-252.5555555555556,-219.95555555555555,-524.4222222222222,-8101.711111111111,592.088888888889,2654.5333333333333,4
2024-06-15 12:28:27,0.5326744914,-0.04764748737,0.08307767659,-5.937620163,-3.550601006,6.797138691,-217.1098901098901,-211.84615384615384,-675.8571428571429,-8146.032967032967,601.3846153846154,2546.3296703296705,4
2024-06-15 12:28:27,0.25167647,-0.07696902007,-0.1832595766,-6.133944988,-1.443703651,7.51300478,-800.6307692307693,228.24615384615385,99.67692307692307,-7943.261538461538,505.3076923076923,2671.3384615384616,4
2024-06-15 12:28:27,0.25167647,-0.07696902007,-0.1832595766,-6.133944988,-1.443703651,7.51300478,-584.6134453781513,491.5126050420168,591.8235294117648,-8232.55462184874,171.11764705882354,2580.0420168067226,4
2024-06-15 12:28:27,-0.02443460934,0.2590068579,-1.706757545,-4.874594688,-1.323993564,6.72291851,-266.875,183.375,-52.5,-8472.25,438.25,2415.125,4
2024-06-15 12:28:27,3.061656713,-2.555860281,-4.795292377,1.098938584,-0.9145850539,3.347094059,-220.65217391304347,-106.69565217391305,-332.0434782608696,-8115.04347826087,393.9130434782609,2322.913043478261,4
2024-06-15 12:28:27,3.061656713,-2.555860281,-4.795292377,1.098938584,-0.9145850539,3.347094059,-238.69767441860463,-65.2093023255814,-201.4418604651163,-8293.186046511628,387.3488372093024,2202.186046511628,4
2024-06-15 12:28:27,5.121494293,1.083674908,-0.235793978,0.5913678408,1.438915253,11.9710083,-300.5777777777778,-71.42222222222222,277.6,-8077.577777777778,481.77777777777777,2378.511111111111,4
2024-06-15 12:28:27,-0.4398229718,0.5461135507,-0.07330382615,3.169923067,-6.986280441,11.12585545,-244.86046511627907,226.32558139534885,662.5581395348837,-8090.069767441861,976.6046511627908,2091.860465116279,4
2024-06-15 12:28:27,-0.4398229718,0.5461135507,-0.07330382615,3.169923067,-6.986280441,11.12585545,-606.0454545454545,782.125,1336.284090909091,-8288.875,405.8636363636364,2324.772727272727,4
2024-06-15 12:28:27,0.5791002512,-0.1942551434,0.02443460934,3.502717018,-5.001487255,9.334992409,-142.08988764044943,301.5842696629214,337.8089887640449,-8115.23595505618,1036.426966292135,1987.6966292134832,4
2024-06-15 12:28:28,0.5791002512,-0.1942551434,0.02443460934,3.502717018,-5.001487255,9.334992409,-430.4,-85.4,-39.46666666666667,-8157.066666666667,1121.1333333333334,1945.0666666666664,4
2024-06-15 12:28:28,0.3946189582,-0.0354301855,-0.08918632567,3.165134668,-4.558559895,8.595184326,-445.3953488372093,26.72093023255814,-225.74418604651163,-8085.813953488372,1084.2093023255811,1947.4883720930231,4
2024-06-15 12:28:28,0.5925393105,-0.1991420686,-0.004886921961,2.67671752,-4.165910721,8.693346024,44.64516129032258,45.516129032258064,59.096774193548384,-8278.193548387097,847.1935483870968,2033.064516129032,4
2024-06-15 12:28:28,0.5925393105,-0.1991420686,-0.004886921961,2.67671752,-4.165910721,8.693346024,49.66666666666667,300.57142857142856,-278.42857142857144,-8217.97619047619,1008.6190476190476,2123.6428571428573,4
2024-06-15 12:28:28,0.6670648456,-0.05742133409,-0.003665191587,3.217807055,-4.170699596,8.667010307,-237.63953488372093,77.7906976744186,94.24418604651164,-8130.383720930233,814.7093023255813,2103.2906976744184,4
2024-06-15 12:28:28,0.6670648456,-0.05742133409,-0.003665191587,3.217807055,-4.170699596,8.667010307,-314.2696629213483,-68.46067415730337,-69.80898876404494,-8073.494382022472,980.8876404494382,2141.7191011235955,4
2024-06-15 12:28:28,0.1221730486,-0.145385921,-0.05131268129,3.246537447,-3.493140221,9.009381294,-194.0909090909091,-219.27272727272725,-23.81818181818182,-8125.090909090909,730.5454545454545,1971.090909090909,4
2024-06-15 12:28:28,-0.2419026345,0.2199114859,-0.0232128799,3.502717018,-3.145981073,8.760383606,66.336,38.896,25.111999999999995,-8174.24,953.44,2019.28,4
2024-06-15 12:28:28,-0.2419026345,0.2199114859,-0.0232128799,3.502717018,-3.145981073,8.760383606,-348.7,15.266666666666666,9.933333333333335,-8074.933333333333,898.0,2163.366666666667,4
2024-06-15 12:28:28,0.2113593817,-0.17715092,0.03665191308,2.928108692,-4.268861771,8.801085472,11.333333333333334,85.6,-296.1333333333333,-8313.266666666666,742.9333333333333,1969.2666666666669,4
2024-06-15 12:28:29,-0.09040805697,0.06841690838,0.02565634064,3.332728863,-3.519476414,8.647856712,244.0235294117647,-50.1764705882353,-515.4941176470588,-8278.35294117647,812.4,2013.5529411764703,4
2024-06-15 12:28:29,-0.09040805697,0.06841690838,0.02565634064,3.332728863,-3.519476414,8.647856712,427.06451612903226,299.2258064516129,-329.41935483870964,-8129.032258064516,816.6451612903226,2030.8387096774195,4
2024-06-15 12:28:29,-0.01832595654,0.03176499158,-0.02199114859,3.01190567,-3.746925592,8.851364136,-43.93181818181818,136.7840909090909,337.2613636363636,-8134.272727272727,987.9545454545456,2069.7954545454545,4
2024-06-15 12:28:29,-0.01466076635,-0.01343903504,-0.00122173049,3.241749048,-3.744531393,8.825027466,289.6666666666667,169.32183908045977,377.7931034482759,-8328.885057471265,970.3103448275862,1776.3563218390805,4
2024-06-15 12:28:29,-0.01466076635,-0.01343903504,-0.00122173049,3.241749048,-3.744531393,8.825027466,379.4545454545455,177.54545454545456,1103.4545454545455,-8077.045454545455,1279.2727272727273,1714.909090909091,4
2024-06-15 12:28:29,0.06719517708,-0.01588249579,-0.0171042271,3.227383852,-3.596091032,8.712499619,382.9222222222222,502.6777777777778,1923.088888888889,-8083.622222222222,1586.0777777777778,1877.8333333333333,4
2024-06-15 12:28:29,0.06719517708,-0.01588249579,-0.0171042271,3.227383852,-3.596091032,8.712499619,-205.25,-23.090909090909093,1116.840909090909,-8291.727272727272,1714.340909090909,1702.9772727272727,4
2024-06-15 12:28:29,0.0171042271,0.03298672289,-0.01832595654,3.11964488,-3.675099611,8.868123055,-1743.1494252873565,-430.2988505747126,-909.367816091954,-7904.954022988506,2397.333333333333,1881.5057471264367,4
2024-06-15 12:28:29,-0.04764748737,0.01832595654,0.01221730467,3.076549292,-3.610456228,8.700529099,-5809.074576271187,-10.128813559322031,-2043.1525423728813,-8060.966101694915,2379.7322033898304,1735.277966101695,4
2024-06-15 12:28:29,-0.04764748737,0.01832595654,0.01221730467,3.076549292,-3.610456228,8.700529099,-6126.362711864407,105.464406779661,-2019.42372881356,-8044.016949152542,2285.833898305085,1754.2610169491525,4
2024-06-15 12:28:30,-0.07574728876,-0.008552113548,-0.00244346098,3.129221678,-3.797203779,8.791508675,-6443.650847457628,221.0576271186441,-1995.6949152542368,-8027.067796610169,2191.935593220339,1773.24406779661,4
2024-06-15 12:28:30,-0.07574728876,-0.008552113548,-0.00244346098,3.129221678,-3.797203779,8.791508675,-7355.806451612903,1584.967741935484,-1258.645161290323,-8203.225806451614,351.2903225806452,2039.354838709677,4
2024-06-15 12:28:30,-0.1490511149,-0.003665191587,-0.006108652335,3.15795207,-3.806780815,8.700529099,-6631.8133333333335,1852.1066666666663,13.106666666666657,-8242.333333333334,245.57333333333327,764.08,4
2024-06-15 12:28:30,-0.1808161139,-0.008552113548,-0.01221730467,3.145981073,-4.307168961,8.623914719,-10152.86046511628,1824.860465116279,-53.97674418604652,-8344.43023255814,455.7906976744186,413.3139534883721,4
2024-06-15 12:28:30,-0.1808161139,-0.008552113548,-0.01221730467,3.145981073,-4.307168961,8.623914719,-11505.90625,949.6328125,1113.390625,-8554.421875,-44.921875,-48.40625,4
2024-06-15 12:28:30,-0.004886921961,-0.02199114859,-0.00122173049,3.265691042,-4.141968727,8.415618896,-6590.775510204082,559.8979591836735,-337.6326530612246,-8536.326530612245,-990.4285714285714,415.48979591836735,4
2024-06-15 12:28:30,-0.06108652428,0.04764748737,0.06963863969,3.069366693,-4.264073372,8.825027466,125.66666666666669,740.2413793103449,-1683.816091954023,-8130.390804597701,-399.0114942528736,-47.241379310344826,4
2024-06-15 12:28:30,-0.06108652428,0.04764748737,0.06963863969,3.069366693,-4.264073372,8.825027466,1991.8444444444444,2135.266666666667,741.4444444444445,-8637.977777777778,-472.6222222222222,-108.55555555555556,4
2024-06-15 12:28:30,1.760513663,-0.4349360466,1.167974353,4.388571739,-2.849100113,10.51054573,846.465909090909,394.9318181818182,-63.31818181818182,-8849.363636363636,293.9886363636364,-597.3636363636364,4
2024-06-15 12:28:30,1.760513663,-0.4349360466,1.167974353,2.693476915,-4.264073372,8.415618896,-1372.7777777777778,-811.0,-934.0666666666666,-8519.933333333332,-208.3111111111111,-427.8222222222222,4
2024-06-15 12:28:31,-0.01588249579,0.4422664344,0.9847147465,2.693476915,-4.264073372,8.415618896,-1354.0227272727273,-1202.4204545454545,-1361.2727272727273,-8520.954545454546,-638.3522727272727,-57.29545454545455,4
2024-06-15 12:28:31,1.276708364,1.435533285,1.527163148,1.247379065,-4.23294878,8.908824921,-820.0344827586207,3.482758620689652,-206.5287356321839,-8151.551724137931,-745.3563218390805,147.4022988505747,4
2024-06-15 12:28:31,1.276708364,1.435533285,1.527163148,1.247379065,-4.23294878,8.908824921,-32.105882352941165,57.35294117647059,-210.54117647058823,-8481.35294117647,-706.6117647058824,617.8823529411765,4
2024-06-15 12:28:31,-0.1380555481,2.499660492,1.181413412,-0.06224924326,0.2178723514,10.66377449,533.8181818181818,-157.54545454545456,366.7272727272728,-8493.727272727272,-531.0,267.9090909090909,4
2024-06-15 12:28:31,-5.595525742,4.620584488,1.004262447,-2.286462545,0.6799532771,1.575384736,207.5444444444444,-572.2,436.6,-8463.2,-139.9,161.2111111111111,4
2024-06-15 12:28:31,-5.595525742,4.620584488,1.004262447,-2.286462545,0.6799532771,1.575384736,587.8863636363636,-861.8409090909091,351.7386363636364,-8471.897727272728,-225.6136363636364,550.3409090909091,4
2024-06-15 12:28:31,-0.6585127115,3.655417681,-0.5326744914,-8.743624687,-2.71263051,-7.335834026,102.97752808988764,-241.42696629213484,-1102.5393258426966,-8443.213483146068,-681.123595505618,448.561797752809,4
2024-06-15 12:28:31,0.9505063295,0.4007275999,-1.332907915,-7.369352818,-6.16506958,-6.416460514,295.05555555555554,722.4333333333334,-1352.1222222222225,-8244.144444444444,-820.4555555555555,577.7222222222222,4
2024-06-15 12:28:31,0.9505063295,0.4007275999,-1.332907915,-7.369352818,-6.16506958,-6.416460514,171.06666666666666,1681.8666666666666,-1699.111111111111,-8317.4,-829.1333333333333,614.7555555555556,4
2024-06-15 12:28:31,-0.007330383174,-0.08552113175,-0.1282816976,-5.693411827,-7.354987621,-5.379771233,46.59349593495935,945.9430894308944,-2404.6991869918697,-8349.317073170732,-1398.9837398373984,488.260162601626,4
2024-06-15 12:28:32,-0.007330383174,-0.08552113175,-0.1282816976,-5.693411827,-7.354987621,-5.379771233,242.3469387755102,-499.7755102040816,-2748.5714285714284,-8394.510204081633,-1624.5102040816328,192.77551020408163,4
2024-06-15 12:28:32,0.2296853364,-0.538783133,0.109955743,-4.776432514,-7.015010834,-4.484339714,-548.2954545454545,-595.7954545454545,-985.5,-8252.84090909091,-1906.5,528.5,4
2024-06-15 12:28:32,-0.2626720667,-0.0354301855,0.1881465018,-5.327098846,-6.397306919,-3.064578056,-331.97752808988764,-312.1011235955056,991.1011235955056,-7981.247191011236,-1945.943820224719,57.58426966292137,4
2024-06-15 12:28:32,-0.2626720667,-0.0354301855,0.1881465018,-5.327098846,-6.397306919,-3.064578056,-518.2613636363636,519.3636363636364,792.4204545454545,-7882.727272727273,-2119.465909090909,-338.15909090909093,4
2024-06-15 12:28:32,8.454375267,0.3103195429,-0.8014551997,-7.12993288,-5.374982834,-6.229712963,868.8965517241379,590.080459770115,-807.448275862069,-7899.045977011494,-2241.908045977012,-206.19540229885047,4
2024-06-15 12:28:32,0.4312708676,-0.9651671052,0.8258898258,-0.5339069963,-1.403002143,13.03164005,679.5714285714286,205.8571428571429,-1002.2857142857144,-8184.428571428572,-2279.0,9.0,4
2024-06-15 12:28:32,0.4312708676,-0.9651671052,0.8258898258,-0.5339069963,-1.403002143,13.03164005,285.06976744186045,-319.37209302325584,6.023255813953483,-8565.906976744185,-1985.2325581395348,337.0232558139535,4
2024-06-15 12:28:32,0.05253441259,0.1331686229,-0.1783726513,-3.454833031,-6.524199486,6.586448669,-67.98850574712644,-965.5402298850574,1295.1494252873565,-8268.770114942528,-2011.0919540229888,621.6206896551724,4
2024-06-15 12:28:32,0.05253441259,0.1331686229,-0.1783726513,-3.454833031,-6.524199486,6.586448669,-189.23595505617976,-1010.4157303370788,1773.3820224719102,-7901.662921348315,-1729.685393258427,424.561797752809,4
2024-06-15 12:28:32,0.1368338168,0.1857030392,-0.06963863969,-3.713406801,-6.198588371,6.866570473,-815.5909090909091,-468.95454545454544,1473.8636363636365,-8332.227272727272,-1055.0454545454545,455.8181818181818,4
2024-06-15 12:28:33,0.09407325089,-0.08185594529,-0.1918116808,-3.536235809,-6.301538944,6.995857239,-2218.247191011236,-654.8876404494382,1582.5168539325844,-8380.123595505618,-1071.1573033707866,590.7303370786517,4
2024-06-15 12:28:33,0.09407325089,-0.08185594529,-0.1918116808,-3.536235809,-6.301538944,6.995857239,-1355.7386363636365,-235.25,463.2272727272728,-8147.011363636364,-896.7727272727273,463.0340909090909,4
2024-06-15 12:28:33,0.07696902007,-0.007330383174,0.09896016866,-3.177105665,-6.35421133,6.670246124,-175.85057471264372,-255.71264367816093,-28.90804597701151,-8491.51724137931,-523.4367816091954,667.6666666666666,4
2024-06-15 12:28:33,-0.07696902007,0.09285151958,-0.08796459436,-3.320757866,-6.361393929,6.897695065,6694.57284768212,-495.2251655629139,-1132.387417218543,-8282.53642384106,-2623.9139072847684,1837.7450331125829,4
2024-06-15 12:28:33,0.009773843922,-0.00122173049,0.0415388383,-3.404554844,-6.588842869,6.828263283,8071.725165562913,-470.0596026490066,-1294.9701986754967,-8146.112582781457,-2510.0066225165565,1542.711920529801,4
2024-06-15 12:28:33,0.009773843922,-0.00122173049,0.0415388383,-3.404554844,-6.588842869,6.828263283,9448.877483443708,-444.89403973509934,-1457.5529801324503,-8009.688741721854,-2396.099337748344,1247.6788079470198,4
2024-06-15 12:28:33,0.03665191308,-0.03176499158,0.006108652335,-3.275267839,-6.337451935,6.818686485,15593.333333333334,-1604.5666666666666,-2282.583333333333,-8723.033333333333,-852.8833333333333,243.45,4
2024-06-15 12:28:33,0.00122173049,-0.0109955743,0.02199114859,-3.354276657,-6.251260757,6.766014099,6317.312977099236,-1278.587786259542,-819.3206106870228,-7631.793893129771,1497.7633587786258,2563.916030534351,4
2024-06-15 12:28:33,0.00122173049,-0.0109955743,0.02199114859,-3.354276657,-6.251260757,6.766014099,1570.0857142857144,-400.74285714285713,-1401.8,-7958.257142857143,623.3714285714286,3275.8,4
2024-06-15 12:28:34,0.00244346098,-0.04398229718,-0.03176499158,-3.414131641,-6.449979305,6.933608055,-1072.4941176470588,-730.8352941176471,-2263.470588235294,-7950.8,36.83529411764707,3552.529411764706,4
2024-06-15 12:28:34,0.0109955743,0.0354301855,0.03665191308,-3.184288263,-6.212953568,6.770802498,-1080.2941176470588,-381.0,-966.0235294117648,-7632.035294117647,-778.4235294117648,3888.964705882353,4
2024-06-15 12:28:34,0.0109955743,0.0354301855,0.03665191308,-3.184288263,-6.212953568,6.770802498,-209.64044943820224,-297.2134831460674,1321.4719101123596,-7999.696629213483,-556.3483146067416,3800.23595505618,4
2024-06-15 12:28:34,-0.03176499158,0.1001819,0.03298672289,-3.414131641,-6.43321991,6.993463039,-830.7078651685393,-476.9775280898877,1310.2696629213483,-7582.303370786517,-278.97752808988764,4214.404494382023,4
2024-06-15 12:28:34,-0.03176499158,0.1001819,0.03298672289,-3.414131641,-6.43321991,6.993463039,-1022.6781609195402,-383.9655172413793,787.4137931034483,-7639.954022988506,-49.87356321839081,4199.287356321839,4
2024-06-15 12:28:34,0.03909537569,-0.02687807009,-0.008552113548,-3.430891037,-6.332663536,6.770802498,-1206.1971830985915,-95.30985915492955,317.32394366197184,-7730.901408450704,24.338028169014084,3779.591549295775,4
2024-06-15 12:28:34,-0.06230825558,0.03054326214,0.0171042271,-3.270479441,-6.301538944,6.83784008,-1359.718309859155,-7.985915492957744,612.3943661971831,-7704.140845070423,51.80281690140845,3740.154929577465,4
2024-06-15 12:28:34,-0.06230825558,0.03054326214,0.0171042271,-3.270479441,-6.301538944,6.83784008,-1124.4545454545455,-434.52272727272725,-1081.2727272727273,-8030.852272727273,-228.0340909090909,3930.193181818182,4
2024-06-15 12:28:34,-9.321804047,-2.195449591,1.362229466,-8.973467827,-9.277531624,-19.4840126,-830.6666666666667,-918.6666666666666,-1883.111111111111,-7946.833333333333,-162.83333333333331,3751.444444444444,4
2024-06-15 12:28:34,-4.326147556,-1.004262447,-0.290771842,-4.299986362,-3.981557369,-6.751648903,445.1609195402299,1056.5632183908046,-363.735632183908,-7450.770114942528,-435.0919540229885,3494.942528735632,4
2024-06-15 12:28:35,-4.326147556,-1.004262447,-0.290771842,-4.299986362,-3.981557369,-6.751648903,944.8,2251.277777777778,-466.4333333333333,-7951.544444444445,-750.8777777777777,3305.5444444444443,4
2024-06-15 12:28:35,-2.851518869,0.5778785348,-1.059240341,-7.024587631,-0.2226607651,-6.351817131,229.7078651685393,1742.8314606741574,-1280.4494382022472,-8225.314606741573,-1125.1797752808989,2714.213483146068,4
2024-06-15 12:28:35,-2.851518869,0.5778785348,-1.059240341,-7.024587631,-0.2226607651,-6.351817131,567.1222222222223,1467.8777777777775,-622.1444444444444,-8208.18888888889,-1267.7111111111112,2839.311111111111,4
2024-06-15 12:28:35,-0.2797762752,-0.1979203373,-0.4508185387,-7.699752808,-3.948038578,-8.001421928,939.3013698630136,1545.958904109589,1226.041095890411,-8183.054794520548,-824.2328767123288,2319.027397260274,4
2024-06-15 12:28:35,0.5021312237,-0.3078760803,-0.9712757468,-4.601655483,-4.149151325,-5.626373768,990.6712328767125,1404.86301369863,1417.13698630137,-8437.849315068494,-807.1095890410959,2346.4246575342468,4
2024-06-15 12:28:35,0.5021312237,-0.3078760803,-0.9712757468,-4.601655483,-4.149151325,-5.626373768,987.5227272727273,-191.0681818181818,996.8977272727273,-8413.306818181818,488.02272727272725,1971.9545454545453,4
2024-06-15 12:28:35,4.263839245,-0.3921754956,-1.120326877,-4.675876141,-7.934384346,-2.281674147,376.0869565217391,-192.4021739130435,-17.032608695652186,-8281.20652173913,745.5,1716.5760869565215,4
2024-06-15 12:28:35,7.518529415,-1.689653277,-2.05983758,-2.908955097,-1.647210717,3.909731388,-917.4823529411764,282.5882352941176,-213.3647058823529,-8136.282352941176,391.4,1950.5647058823529,4
2024-06-15 12:28:35,7.518529415,-1.689653277,-2.05983758,-2.908955097,-1.647210717,3.909731388,-630.4,-39.80000000000001,-152.8,-8480.8,-15.4,2131.2,4
2024-06-15 12:28:35,-2.333505154,0.3054326177,-0.4923573732,-3.107673883,-5.451597214,8.166622162,-420.8409090909091,-469.27272727272725,-374.77272727272725,-8550.431818181818,-35.75,2168.6136363636365,4
2024-06-15 12:28:36,-2.333505154,0.3054326177,-0.4923573732,-3.107673883,-5.451597214,8.166622162,-865.5842696629213,-1824.370786516854,-951.370786516854,-8458.483146067416,-289.24719101123594,2597.23595505618,4
2024-06-15 12:28:36,0.109955743,-0.05986479297,-0.03665191308,-3.019088268,-5.801150799,7.541735172,-693.2921348314607,-1272.8988764044943,-844.0674157303371,-7840.988764044944,-243.0337078651685,2868.4606741573034,4
2024-06-15 12:28:36,-0.141720742,0.1246165112,-0.05009094998,-2.885013103,-6.289567947,7.149086475,-1206.3387978142075,-374.224043715847,-269.74863387978144,-7675.540983606557,-522.3497267759562,2715.0601092896177,4
2024-06-15 12:28:36,-0.141720742,0.1246165112,-0.05009094998,-2.885013103,-6.289567947,7.149086475,-1277.377049180328,-253.45901639344265,-568.655737704918,-7908.327868852459,-1002.1311475409836,2763.147540983606,4
2024-06-15 12:28:36,-0.02687807009,0.109955743,0.09896016866,-2.990357876,-6.119579315,7.031770229,-900.5833333333334,-1117.6666666666667,-1811.75,-8130.333333333333,-962.5,2783.25,4
2024-06-15 12:28:36,-0.03909537569,0.05742133409,0.05619960278,-3.145981073,-6.311115742,7.038952827,-472.4457831325301,-355.0120481927711,652.7590361445783,-7817.469879518072,-898.8072289156627,3076.7831325301204,4
2024-06-15 12:28:36,-0.03909537569,0.05742133409,0.05619960278,-3.145981073,-6.311115742,7.038952827,-82.3932584269663,552.1460674157304,1600.1573033707866,-8032.606741573034,-787.6516853932584,3430.7640449438204,4
2024-06-15 12:28:36,-0.02565634064,0.008552113548,0.04276056588,-3.330334663,-6.270414352,6.967126846,-293.6190476190476,149.71428571428572,1686.047619047619,-7869.333333333333,-540.5714285714286,3137.428571428572,4
2024-06-15 12:28:36,-0.02565634064,0.008552113548,0.04276056588,-3.330334663,-6.270414352,6.967126846,28.954545454545453,637.75,1240.3636363636365,-8047.25,-97.0,3110.0227272727275,4
2024-06-15 12:28:36,0.0415388383,0.04886921868,-0.02443460934,-3.256114244,-6.215347767,7.02937603,-1249.438202247191,-185.47191011235955,-160.19101123595505,-8187.337078651685,-605.3370786516854,3426.4606741573034,4
2024-06-15 12:28:37,-0.02199114859,-0.01221730467,-0.01588249579,-3.320757866,-6.248866558,6.967126846,-1537.1818181818182,-819.9090909090909,-894.6363636363636,-8117.727272727273,205.54545454545453,3300.3636363636365,4
2024-06-15 12:28:37,-0.02199114859,-0.01221730467,-0.01588249579,-3.320757866,-6.248866558,6.967126846,-1720.6528925619834,-473.6280991735537,-509.5123966942149,-8069.793388429752,237.77685950413223,3049.123966942149,4
2024-06-15 12:28:37,0.00244346098,0.05253441259,0.05131268129,-3.337517262,-6.31829834,6.904877663,-2013.7444444444443,1093.1222222222225,35.92222222222222,-8012.355555555556,-75.0,3027.811111111111,4
2024-06-15 12:28:37,-0.03176499158,0.01832595654,0.02199114859,-3.361459255,-6.215347767,6.892906666,-1718.5813953488373,1448.4418604651162,-770.5813953488372,-7823.46511627907,292.74418604651163,2446.651162790697,4
2024-06-15 12:28:37,-0.03176499158,0.01832595654,0.02199114859,-3.361459255,-6.215347767,6.892906666,-532.8791208791208,2736.78021978022,615.6813186813187,-8479.065934065935,-120.8131868131868,2148.714285714286,4
2024-06-15 12:28:37,0.006108652335,0.0415388383,0.0171042271,-3.366247654,-6.153098583,6.739677906,48.93103448275862,2246.0344827586205,33.79310344827586,-8511.48275862069,-170.17241379310346,1428.344827586207,4
2024-06-15 12:28:37,0.006108652335,0.0415388383,0.0171042271,-3.366247654,-6.153098583,6.739677906,-291.2325581395349,2350.2093023255816,658.7906976744187,-8519.813953488372,28.83720930232559,863.9651162790698,4
2024-06-15 12:28:37,-0.04031710699,-0.01466076635,-0.05375614017,-3.354276657,-6.208165169,6.718130112,-549.6373626373627,1416.1868131868132,296.3296703296703,-8378.791208791208,7.626373626373628,247.49450549450543,4
2024-06-15 12:28:37,-0.06963863969,-0.06108652428,-0.1282816976,-3.191470861,-6.229712963,6.758831501,-1338.6404494382025,609.5280898876405,716.6966292134831,-8568.044943820225,-14.337078651685394,142.74157303370785,4
2024-06-15 12:28:37,-0.06963863969,-0.06108652428,-0.1282816976,-3.191470861,-6.229712963,6.758831501,-962.2888888888888,242.35555555555555,1101.7555555555557,-8517.755555555555,354.22222222222223,335.84444444444443,4
2024-06-15 12:28:38,0.00122173049,-0.09896016866,-0.07574728876,-3.23456645,-6.399701118,6.902483463,-455.5238095238095,-43.42857142857143,965.2380952380952,-8558.285714285714,560.9047619047619,299.04761904761904,4
2024-06-15 12:28:38,0.01588249579,-0.06475171447,-0.02565634064,-3.059789658,-6.643909931,7.058106422,77.1157894736842,-120.63157894736842,250.26315789473685,-8174.926315789474,799.2421052631579,266.8,4
2024-06-15 12:28:38,0.01588249579,-0.06475171447,-0.02565634064,-3.059789658,-6.643909931,7.058106422,-58.39473684210526,61.89473684210526,39.10526315789474,-8165.394736842105,1054.0526315789473,276.3157894736842,4
2024-06-15 12:28:38,0.1307251602,-0.02199114859,-0.04520402849,-2.904166698,-6.10281992,6.830657482,-575.1318681318681,5.35164835164835,166.46153846153845,-8244.021978021978,946.4615384615385,166.82417582417582,4
2024-06-15 12:28:38,0.1307251602,-0.02199114859,-0.04520402849,-2.904166698,-6.10281992,6.830657482,-1423.093023255814,-592.6279069767443,648.3023255813953,-8495.058139534884,1335.906976744186,312.0813953488372,4
2024-06-15 12:28:38,0.1001819,0.08674286306,0.009773843922,-3.026270866,-6.347028732,7.077260017,-952.7032967032968,-453.3956043956044,273.9340659340659,-8116.659340659341,988.0769230769232,546.3736263736264,4
2024-06-15 12:28:38,0.3115412891,-0.09529497474,0.02565634064,-3.090914488,-6.011840343,7.259219646,-704.2448979591836,-272.67346938775506,257.63265306122446,-8228.13605442177,1049.591836734694,542.8571428571429,4
2024-06-15 12:28:38,0.3115412891,-0.09529497474,0.02565634064,-3.090914488,-6.011840343,7.259219646,185.84782608695653,382.8695652173913,104.8913043478261,-8132.521739130435,940.75,417.6195652173913,4
2024-06-15 12:28:38,-0.04764748737,-0.004886921961,0.00122173049,-2.932897091,-6.095637321,7.338228226,931.875,499.875,-113.5,-8198.875,1172.875,409.125,4
2024-06-15 12:28:38,-0.003665191587,-0.003665191587,0.006108652335,-2.959233284,-6.239289761,7.184999466,1582.2444444444443,19.37222222222222,-711.1833333333334,-8553.722222222223,1337.35,259.2055555555556,4
2024-06-15 12:28:39,-0.003665191587,-0.003665191587,0.006108652335,-2.959233284,-6.239289761,7.184999466,1354.212765957447,-359.1914893617021,-177.17021276595744,-8539.489361702128,961.531914893617,344.2127659574468,4
2024-06-15 12:28:39,-0.01221730467,0.01588249579,0.01221730467,-3.076549292,-6.184223175,7.156269073,626.2619047619048,-540.297619047619,178.72619047619048,-8110.214285714285,1065.595238095238,457.7738095238095,4
2024-06-15 12:28:39,-0.01221730467,0.01588249579,0.01221730467,-3.076549292,-6.184223175,7.156269073,589.6404494382023,-221.74157303370785,-165.92134831460675,-8482.505617977527,995.3370786516854,459.3483146067416,4
2024-06-15 12:28:39,0.0171042271,0.01832595654,-0.0109955743,-3.004723072,-6.169857979,7.141903877,220.7696629213483,-352.7808988764045,-307.5449438202247,-8281.494382022473,941.5224719101124,619.4606741573034,4
2024-06-15 12:28:39,0.1026253626,0.01221730467,-0.02199114859,-2.923320293,-6.20337677,7.046135426,204.2,-313.4,-534.6,-8488.8,801.4,857.8,4
2024-06-15 12:28:39,0.1026253626,0.01221730467,-0.02199114859,-2.923320293,-6.20337677,7.046135426,516.7142857142857,18.92,-374.8685714285714,-8350.49142857143,828.6342857142857,671.6171428571429,4
2024-06-15 12:28:39,-0.09285151958,-0.1185078546,0.07574728876,-3.047818661,-6.347028732,7.146692276,459.3333333333333,39.33333333333333,-230.66666666666663,-8281.333333333334,781.3333333333334,736.0,4
2024-06-15 12:28:39,0.5338962078,-0.2247984111,-0.2541199327,-2.331952572,-5.23851347,7.431602001,187.42696629213484,26.51685393258427,-23.730337078651687,-8152.370786516853,1023.8988764044944,560.4269662921348,4
2024-06-15 12:28:39,0.5338962078,-0.2247984111,-0.2541199327,-2.331952572,-5.23851347,7.431602001,-96.10249307479224,-204.426592797784,-479.9058171745152,-8558.257617728532,674.8891966759003,659.3213296398892,4
2024-06-15 12:28:39,0.2150245607,-0.1026253626,-0.1136209369,-2.992752075,-5.999869347,7.577648163,-155.65927977839334,-306.3656509695291,-452.2049861495845,-8545.792243767313,683.4764542936288,724.4182825484764,4
2024-06-15 12:28:40,0.2150245607,-0.1026253626,-0.1136209369,-2.992752075,-5.999869347,7.577648163,-215.2160664819945,-408.3047091412742,-424.5041551246537,-8533.326869806095,692.0637119113574,789.5152354570637,4
2024-06-15 12:28:40,-0.0232128799,0.02443460934,-0.09529497474,-2.197877169,-5.082890034,7.335834026,-165.0,-396.9411764705882,-500.6470588235294,-8514.411764705883,673.9411764705883,879.8235294117648,4
2024-06-15 12:28:40,-0.09407325089,0.3799581826,-0.07574728876,-2.698265314,-5.777208805,7.354987621,516.0649350649351,29.15584415584415,-184.4155844155844,-8532.792207792209,675.2987012987013,1052.4675324675325,4
2024-06-15 12:28:40,-0.09407325089,0.3799581826,-0.07574728876,-2.698265314,-5.777208805,7.354987621,561.9090909090909,47.45454545454545,-43.90909090909091,-8220.818181818182,811.4545454545455,1056.6363636363635,4
2024-06-15 12:28:40,-0.2076941878,0.3445279896,-0.1747074574,-3.256114244,-6.43082571,7.053318024,-55.16783216783216,-144.76223776223776,-172.02797202797206,-8377.79020979021,828.5314685314686,1052.944055944056,4
2024-06-15 12:28:40,-0.02076941915,0.04276056588,0.05986479297,-2.894589901,-6.531382084,6.701370716,-378.6,45.8,358.2,-8491.0,480.8,1071.6,4
2024-06-15 12:28:40,-0.02076941915,0.04276056588,0.05986479297,-2.894589901,-6.531382084,6.701370716,776.0108695652174,-252.3152173913044,-634.8586956521739,-8379.95652173913,778.9347826086956,977.695652173913,4
2024-06-15 12:28:40,-0.3164281845,0.1759291887,0.1087340117,-3.311181068,-6.473921299,6.181828976,57.92134831460674,-716.7191011235955,-1058.8314606741574,-8167.067415730337,410.7415730337079,1082.6629213483145,4
2024-06-15 12:28:40,-0.3164281845,0.1759291887,0.1087340117,-3.311181068,-6.473921299,6.181828976,51.872093023255815,-388.0813953488372,-749.9883720930233,-8273.290697674418,357.1279069767442,1130.4302325581396,4
2024-06-15 12:28:40,-0.08429940045,-0.09651670605,-0.07086037099,-3.217807055,-7.218518257,6.133944988,456.4301675977654,16.357541899441344,96.02793296089384,-8509.251396648046,330.731843575419,1373.7932960893854,4
2024-06-15 12:28:41,0.01954768784,-0.334754169,0.09773843735,-2.719813108,-7.173028469,5.913678169,491.6256983240223,-99.84357541899442,61.94972067039106,-8502.54748603352,217.8826815642458,1365.9720670391062,4
2024-06-15 12:28:41,0.01954768784,-0.334754169,0.09773843735,-2.719813108,-7.173028469,5.913678169,865.1411764705882,-112.34117647058824,-940.6470588235294,-8526.788235294118,-74.4,1365.3411764705882,4
2024-06-15 12:28:41,-0.1551597714,0.5143485069,-0.2687807083,-3.124433279,-7.405265808,6.129156113,971.367816091954,-434.5747126436781,-1301.8620689655172,-8541.770114942528,-212.0689655172414,1259.2988505747126,4
2024-06-15 12:28:41,0.1576032341,-0.1808161139,-0.1844813079,-3.078943491,-7.254431248,6.210559368,1421.2045454545455,-231.20454545454547,-521.1477272727273,-8198.954545454546,-213.3636363636364,1626.3863636363635,4
2024-06-15 12:28:41,0.1576032341,-0.1808161139,-0.1844813079,-3.078943491,-7.254431248,6.210559368,2186.953488372093,34.52325581395348,-351.3837209302326,-8481.860465116279,-436.0116279069768,1517.406976744186,4
2024-06-15 12:28:41,0.05986479297,0.007330383174,0.3115412891,-2.765302896,-7.275979042,5.930437565,2002.3932584269664,-1765.7191011235957,-2045.3258426966293,-8116.033707865168,-197.80898876404493,1275.2921348314608,4
2024-06-15 12:28:41,1.893682241,0.3494149148,0.2492330223,-2.832340717,-6.366182327,7.326257229,1374.5348837209303,-120.56976744186046,-1276.6279069767445,-8386.186046511628,-421.59302325581393,1968.6511627906973,4
2024-06-15 12:28:41,1.893682241,0.3494149148,0.2492330223,-2.832340717,-6.366182327,7.326257229,451.7816091954023,132.7816091954023,510.0114942528736,-8097.517241379311,-863.7471264367816,2309.3563218390805,4
2024-06-15 12:28:41,-0.9443976879,-2.492330313,1.511280656,-3.584120035,-6.500257492,3.246537447,509.0113636363636,36.43181818181819,267.6136363636364,-8275.09090909091,-671.375,2028.0454545454545,4
2024-06-15 12:28:41,-0.9443976879,-2.492330313,1.511280656,-3.584120035,-6.500257492,3.246537447,465.2857142857143,-440.2857142857143,-706.2857142857143,-8159.428571428572,-894.0,2387.0,4
2024-06-15 12:28:42,0.3518583775,-4.792848587,-1.102000952,2.296039343,-2.094926596,2.578555346,45.81632653061226,-1063.4489795918366,-1376.4489795918366,-8362.102040816326,-612.8979591836735,2253.938775510204,4
2024-06-15 12:28:42,-2.961474657,0.8185594082,-0.6133087277,2.932897091,-1.240196466,5.461174011,-436.8709677419355,-804.0322580645161,-1127.0967741935483,-8180.387096774193,-727.8064516129032,2330.8387096774195,4
2024-06-15 12:28:42,-2.961474657,0.8185594082,-0.6133087277,2.932897091,-1.240196466,5.461174011,-327.7529411764706,-302.3058823529412,-552.6588235294117,-7849.305882352941,-1334.5764705882352,2637.070588235294,4
2024-06-15 12:28:42,1.657888293,-0.3457497358,0.06597344577,0.4548983276,-4.276044369,5.288791656,179.98876404494382,1458.943820224719,970.370786516854,-7906.550561797752,-1186.887640449438,2138.438202247191,4
2024-06-15 12:28:42,0.338419348,-0.1319468915,0.4166100919,1.26653266,-5.042188644,8.293514252,423.1452702702703,1461.4222972972973,1515.412162162162,-8512.699324324325,-1086.712837837838,2034.9966216216217,4
2024-06-15 12:28:42,0.145385921,0.04031710699,-0.7855727077,1.956062794,-5.054159641,8.904036522,319.42905405405406,1111.0844594594596,1660.6824324324325,-8515.739864864865,-928.9425675675676,2000.1993243243244,4
2024-06-15 12:28:42,0.145385921,0.04031710699,-0.7855727077,1.956062794,-5.054159641,8.904036522,215.71283783783784,760.7466216216217,1805.9527027027027,-8518.780405405405,-771.1722972972973,1965.402027027027,4
2024-06-15 12:28:42,-1.820378423,0.2712241709,-0.1844813079,0.2585737705,-6.825869083,5.837063789,-13.967213114754095,-627.7377049180328,527.3770491803278,-8499.606557377048,-262.21311475409834,1718.622950819672,4
2024-06-15 12:28:42,2.745228529,-1.137431145,-0.441044718,3.545812607,-2.67432332,7.278373241,267.3690476190476,-729.6071428571429,-1025.5833333333333,-8215.559523809523,-311.0119047619048,2232.464285714286,4
2024-06-15 12:28:43,2.745228529,-1.137431145,-0.441044718,3.545812607,-2.67432332,7.278373241,-521.4767441860465,-281.0232558139535,-1102.5,-8155.732558139535,-485.4186046511628,2424.0232558139537,4
2024-06-15 12:28:43,2.714685202,-1.359786034,0.9627236128,6.995857239,-0.215478152,1.118092179,-241.7333333333333,-58.13333333333334,-460.4,-8281.666666666666,-790.2,2409.6666666666665,4
2024-06-15 12:28:43,2.714685202,-1.359786034,0.9627236128,6.995857239,-0.215478152,1.118092179,-605.8390804597701,425.35632183908046,564.5057471264367,-8554.80459770115,-1047.0689655172414,2272.7816091954023,4
2024-06-15 12:28:43,-5.648059845,0.4850270152,-0.4667010605,7.407660007,-2.647987127,5.554547787,70.34782608695653,-310.0,-971.2391304347826,-8481.978260869566,-902.8695652173913,2300.7391304347825,4
2024-06-15 12:28:43,2.484999895,0.1832595766,-0.06719517708,5.066130638,-1.237802267,8.32463932,476.96629213483146,-699.2584269662922,-885.3483146067415,-8329.707865168539,-461.7752808988764,1955.0674157303367,4
2024-06-15 12:28:43,2.484999895,0.1832595766,-0.06719517708,5.066130638,-1.237802267,8.32463932,-261.54651162790697,-32.54651162790697,33.73255813953489,-8272.581395348838,-1059.8023255813953,2273.058139534884,4
2024-06-15 12:28:43,-0.7757988572,0.3762930036,0.2406809032,4.225766182,-2.236184359,6.940790653,527.0,-496.5,-357.0,-8189.5,-794.5,2312.0,4
2024-06-15 12:28:43,-0.1698205322,-0.02199114859,0.06352998316,4.922478676,-2.171540976,8.310274124,170.55172413793105,-156.41379310344828,347.4482758620689,-8204.448275862069,-865.6206896551724,2333.9310344827586,4
2024-06-15 12:28:43,-0.1698205322,-0.02199114859,0.06352998316,4.922478676,-2.171540976,8.310274124,-516.8301886792453,279.47169811320754,671.7169811320755,-8202.33962264151,-672.0,2476.849056603773,4
2024-06-15 12:28:43,-0.2052507252,0.08674286306,0.07330382615,4.5370121,-3.038241863,8.470685959,-315.6067415730337,529.370786516854,477.1573033707865,-8256.752808988764,-980.7415730337078,2461.314606741573,4
2024-06-15 12:28:44,-0.2052507252,0.08674286306,0.07330382615,4.5370121,-3.038241863,8.470685959,538.1363636363636,71.82954545454545,-334.64772727272725,-8294.84090909091,-914.7613636363636,2573.5227272727275,4
2024-06-15 12:28:44,-0.01954768784,0.02809980139,-0.01466076635,4.876988888,-2.82276392,8.367734909,-66.95454545454545,859.1363636363636,1288.340909090909,-8073.159090909091,44.31818181818182,2145.204545454545,4
2024-06-15 12:28:44,-0.01588249579,0.05009094998,0.0232128799,4.268861771,-2.983175278,8.449137688,-567.1034482758621,940.448275862069,2057.5172413793102,-8172.6551724137935,233.24137931034485,1715.2758620689656,4
2024-06-15 12:28:44,-0.01588249579,0.05009094998,0.0232128799,4.268861771,-2.983175278,8.449137688,-112.0,720.1609195402299,1430.4827586206898,-8185.977011494253,36.4367816091954,1769.2298850574712,4
2024-06-15 12:28:44,-0.006108652335,-0.007330383174,-0.00122173049,4.414907932,-2.827552319,8.386888504,830.9080459770115,-249.1264367816092,-810.2413793103449,-8335.67816091954,604.4022988505748,1861.0114942528733,4
2024-06-15 12:28:44,-0.003665191587,-0.02565634064,-0.008552113548,4.695029736,-3.107673883,8.336610794,570.3448275862069,-853.1724137931035,-1074.6896551724135,-8094.379310344828,115.41379310344828,2112.3793103448274,4
2024-06-15 12:28:44,-0.003665191587,-0.02565634064,-0.008552113548,4.695029736,-3.107673883,8.336610794,561.7368421052631,-555.1052631578948,-1211.8947368421052,-8218.473684210527,5.15789473684211,2042.368421052632,4
2024-06-15 12:28:44,-0.07086037099,0.08552113175,0.02565634064,4.50109911,-3.222595453,8.422801971,-339.87179487179486,-644.2307692307693,-1026.3846153846157,-8473.51282051282,-246.4102564102564,2195.538461538461,4
2024-06-15 12:28:44,-0.03298672289,0.06719517708,0.0354301855,4.283226967,-3.282450438,8.429984093,-692.3333333333334,-682.2222222222222,-541.3703703703704,-8153.444444444444,-298.7407407407408,2258.777777777778,4
2024-06-15 12:28:44,-0.03298672289,0.06719517708,0.0354301855,4.283226967,-3.282450438,8.429984093,-1155.6153846153843,-833.6153846153846,-302.15384615384613,-8210.76923076923,-459.38461538461536,2243.846153846154,4
2024-06-15 12:28:45,-0.02443460934,0.01343903504,0.01954768784,4.302380562,-3.354276657,8.425195694,-1839.8181818181813,-1549.5454545454545,-752.4090909090909,-7963.272727272727,-1073.090909090909,2771.340909090909,4
2024-06-15 12:28:45,-0.02443460934,0.01343903504,0.01954768784,4.302380562,-3.354276657,8.425195694,-1842.84375,544.0,-1027.84375,-7852.5625,-995.8125,2793.1875,4
2024-06-15 12:28:45,0.01466076635,0.01832595654,0.003665191587,4.467580318,-3.275267839,8.42759037,-1524.875,744.0,-884.875,-7882.25,-1244.25,2569.75,4
2024-06-15 12:28:45,0.1282816976,-0.08307767659,-0.01343903504,4.283226967,-3.268085241,8.432378769,-439.3181818181818,972.1477272727273,653.2954545454545,-8190.852272727273,-1294.2727272727273,2533.9772727272725,4
2024-06-15 12:28:45,0.1282816976,-0.08307767659,-0.01343903504,4.283226967,-3.268085241,8.432378769,4.781609195402325,1149.264367816092,1403.735632183908,-8295.793103448275,-1124.8735632183907,2256.494252873564,4
2024-06-15 12:28:45,-0.003665191587,-0.05742133409,-0.004886921961,4.359841347,-3.186682463,8.420407295,224.70652173913044,919.6521739130436,1844.0652173913045,-8502.228260869566,-669.2065217391305,1892.717391304348,4
2024-06-15 12:28:45,-0.003665191587,-0.05742133409,-0.004886921961,4.359841347,-3.186682463,8.420407295,-68.41573033707866,160.42696629213484,911.247191011236,-8292.393258426966,-80.10112359550561,1846.202247191012,4
2024-06-15 12:28:45,0.02199114859,-0.01954768784,-0.01221730467,4.484339714,-3.038241863,8.315062523,-574.0952380952381,-228.3809523809524,-295.95238095238096,-8407.333333333334,120.57142857142856,1911.6666666666667,4
2024-06-15 12:28:45,-0.1197295859,0.09162978828,0.0171042271,4.376600742,-3.402160645,8.508993149,-681.6551724137931,-5.793103448275815,-138.17241379310343,-8283.758620689656,-288.31034482758616,1724.4137931034484,4
2024-06-15 12:28:45,-0.1197295859,0.09162978828,0.0171042271,4.376600742,-3.402160645,8.508993149,-340.2,10.955555555555556,-706.5111111111111,-8507.2,-228.6,2088.6,4
2024-06-15 12:28:46,-0.008552113548,-0.007330383174,-0.009773843922,4.38378334,-3.19625926,8.437167168,117.11627906976744,-238.74418604651163,-674.7906976744187,-8471.441860465116,-530.3488372093024,2031.139534883721,4
2024-06-15 12:28:46,-0.03298672289,0.0109955743,-0.00244346098,4.455609322,-3.294421434,8.449137688,-304.3448275862069,-582.3793103448276,-1357.0344827586207,-8489.137931034482,-868.3448275862069,1986.9655172413795,4
2024-06-15 12:28:46,-0.03298672289,0.0109955743,-0.00244346098,4.455609322,-3.294421434,8.449137688,-331.032967032967,-789.3516483516484,-1243.3186813186812,-8426.89010989011,-834.1758241758241,2074.021978021978,4
2024-06-15 12:28:46,-0.02809980139,0.01954768784,0.006108652335,4.369418144,-3.260902643,8.444349289,-121.32584269662922,-644.2471910112359,-529.5955056179776,-7915.573033707865,-1075.7191011235957,2457.089887640449,4
2024-06-15 12:28:46,0.007330383174,-0.007330383174,-0.008552113548,4.42448473,-3.177105665,8.38928318,-442.4022988505747,226.5862068965517,1641.5402298850574,-8225.091954022988,-749.2528735632184,2622.896551724138,4
2024-06-15 12:28:46,0.007330383174,-0.007330383174,-0.008552113548,4.42448473,-3.177105665,8.38928318,-489.44444444444446,688.9777777777778,1844.4,-8099.511111111111,-957.3777777777776,2661.5777777777776,4
2024-06-15 12:28:46,0.007330383174,0.006108652335,-0.007330383174,4.491522312,-3.258508444,8.422801971,203.48275862068965,627.0344827586207,575.1034482758621,-8095.517241379311,-566.2413793103449,2343.7241379310344,4
2024-06-15 12:28:46,0.007330383174,0.006108652335,-0.007330383174,4.491522312,-3.258508444,8.422801971,-378.9052631578948,988.6842105263158,1181.5473684210526,-8497.052631578947,127.18947368421053,1737.378947368421,4
2024-06-15 12:28:46,-0.03298672289,0.01832595654,0.004886921961,4.405331135,-3.227383852,8.499416351,-1277.8057553956835,1211.2014388489208,1253.9208633093526,-8179.510791366906,12.07913669064748,1762.4964028776978,4
2024-06-15 12:28:46,-0.02076941915,0.009773843922,0.003665191587,4.417302132,-3.275267839,8.449137688,-652.1162790697674,511.48837209302326,-74.2093023255814,-8107.930232558139,-276.62790697674416,1777.953488372093,4
2024-06-15 12:28:47,-0.02076941915,0.009773843922,0.003665191587,4.417302132,-3.275267839,8.449137688,-256.65168539325845,1644.5505617977528,810.9213483146068,-8491.370786516854,591.4494382022472,994.5505617977528,4
2024-06-15 12:28:47,0.01832595654,0.0,-0.007330383174,4.398148537,-3.330334663,8.367734909,-1227.4888888888888,1330.977777777778,691.7111111111111,-8515.066666666668,503.6,1097.977777777778,4
2024-06-15 12:28:47,0.01832595654,0.0,-0.007330383174,4.350264549,-3.236960649,8.415618896,-2134.0337078651687,789.9325842696629,1.6179775280899094,-8527.707865168539,416.2022471910112,1134.8202247191011,4
2024-06-15 12:28:47,0.01466076635,0.00244346098,-0.003665191587,4.350264549,-3.236960649,8.415618896,-1640.2941176470588,563.1764705882352,-690.7647058823529,-8372.470588235294,281.7058823529412,879.6470588235294,4
2024-06-15 12:28:47,0.0109955743,0.00122173049,0.00122173049,4.307168961,-3.241749048,8.42759037,-834.735632183908,280.64367816091954,-815.816091954023,-8472.724137931034,74.77011494252875,837.471264367816,4
2024-06-15 12:28:47,0.0109955743,0.00122173049,0.00122173049,4.307168961,-3.241749048,8.42759037,33.8089887640449,349.51685393258424,-389.08988764044943,-8356.988764044943,-0.5505617977528061,816.4044943820224,4
2024-06-15 12:28:47,0.00244346098,0.00244346098,-0.007330383174,4.378994942,-3.27287364,8.358158112,674.8260869565217,-21.391304347826065,-48.13043478260869,-8513.695652173914,45.34782608695652,445.6521739130435,4
2024-06-15 12:28:47,-0.04276056588,0.02199114859,0.006108652335,4.292803764,-3.320757866,8.449137688,-33.08045977011494,-289.58620689655174,-271.8965517241379,-8355.16091954023,-65.25287356321839,389.91954022988506,4
2024-06-15 12:28:47,-0.04276056588,0.02199114859,0.006108652335,4.292803764,-3.320757866,8.449137688,-597.6444444444444,-219.02222222222224,-105.42222222222222,-8387.788888888888,-4.888888888888886,640.8111111111111,4
2024-06-15 12:28:47,-0.3555235863,0.02443460934,0.007330383174,4.587290287,-2.612074137,8.188169479,-340.5111111111111,-1933.155555555556,2303.111111111112,-8698.4,-185.53333333333333,1028.2666666666669,4
2024-06-15 12:28:48,-0.3555235863,0.02443460934,0.007330383174,3.833117008,-5.612008572,7.223306656,337.9655172413793,-1417.1379310344828,4360.919540229885,-7910.9885057471265,595.448275862069,1357.4827586206898,4
2024-06-15 12:28:48,-1.089783549,0.3604104817,0.3176499307,3.833117008,-5.612008572,7.223306656,-3.622222222222206,-37.888888888888914,3293.911111111111,-7943.111111111111,1444.2666666666669,1336.5111111111112,4
2024-06-15 12:28:48,-0.17715092,0.08429940045,-0.01343903504,2.703053713,-5.600037575,7.484274387,-850.3666666666667,675.088888888889,707.8888888888889,-8265.177777777777,2193.177777777778,1354.2666666666669,4
2024-06-15 12:28:48,-0.17715092,0.08429940045,-0.01343903504,2.703053713,-5.600037575,7.484274387,-619.0469798657718,283.006711409396,-172.99328859060404,-8221.812080536913,2332.0604026845635,1189.4362416107383,4
2024-06-15 12:28:48,0.5876523852,-0.05986479297,-0.1563815027,3.643975019,-5.037400246,7.65186882,-128.88888888888889,-236.22222222222223,-1323.2222222222222,-8216.666666666666,2269.055555555556,970.8888888888888,4
2024-06-15 12:28:48,0.25167647,-0.09040805697,-0.04031710699,4.070142746,-3.847482204,8.135497093,471.7160493827161,-839.6296296296297,-1999.4444444444443,-8264.123456790123,1240.6666666666663,1281.8148148148148,4
2024-06-15 12:28:48,-0.05497787148,-0.02809980139,0.009773843922,4.031835556,-4.42209053,8.257601738,3260.7078651685392,-945.61797752809,-2289.089887640449,-8163.168539325843,-575.0337078651686,1633.9213483146068,4
2024-06-15 12:28:48,0.1698205322,-0.1307251602,-0.02687807009,3.974374771,-4.036623955,8.185775757,2176.5,474.25,-412.5,-8312.5,-566.75,1900.75,4
2024-06-15 12:28:48,0.1698205322,-0.1307251602,-0.02687807009,3.974374771,-4.036623955,8.185775757,1792.9139784946235,792.9247311827957,676.4623655913979,-8266.989247311827,-422.5268817204301,1902.5698924731184,4
2024-06-15 12:28:49,-0.07941248268,0.09896016866,0.003665191587,4.09408474,-4.295197964,8.243236542,1116.8433734939758,984.6626506024096,1184.289156626506,-8190.542168674699,40.62650602409639,1581.1566265060242,4
2024-06-15 12:28:49,-0.07941248268,0.09896016866,0.003665191587,4.09408474,-4.295197964,8.243236542,465.9555555555555,1100.2444444444443,1811.588888888889,-8499.3,854.3444444444444,1115.2444444444443,4
2024-06-15 12:28:49,0.1331686229,-0.04886921868,-0.0293215327,4.012681961,-4.12999773,8.276755333,-325.86046511627904,414.3953488372093,874.3488372093024,-8422.209302325582,1022.093023255814,757.7674418604652,4
2024-06-15 12:28:49,-0.2382374406,0.1282816976,0.05131268129,3.526659012,-4.321534157,8.240841866,-421.5111111111111,-163.51111111111112,-98.8222222222222,-8518.68888888889,939.2,707.2666666666667,4
2024-06-15 12:28:49,-0.2382374406,0.1282816976,0.05131268129,3.526659012,-4.321534157,8.240841866,-561.7386363636364,-452.7272727272728,-433.0795454545455,-8138.602272727273,1077.6818181818182,1058.625,4
2024-06-15 12:28:49,-0.4911356568,-0.04031710699,-0.06475171447,4.352658749,-3.560178041,7.92001915,-458.2386363636364,-1117.5568181818182,-1477.6477272727273,-8472.03409090909,230.5909090909091,1368.5568181818182,4
2024-06-15 12:28:49,-0.4911356568,-0.04031710699,-0.06475171447,3.239354849,-5.262455463,7.424419403,-620.2921348314607,-1270.8426966292134,-3093.1573033707864,-8482.8202247191,-318.0674157303371,1563.9325842696628,4
2024-06-15 12:28:49,-0.07819075137,0.1380555481,0.2577851415,3.239354849,-5.262455463,7.424419403,-566.6744186046511,-974.5348837209302,-2534.3488372093025,-8098.953488372093,-667.0930232558139,2089.093023255814,4
2024-06-15 12:28:49,1.595579982,-1.279151797,-0.283441484,4.378994942,-4.606443882,7.419631004,-748.4666666666667,-460.26666666666665,-1569.7666666666669,-8141.666666666667,-956.0,1964.1333333333328,4
2024-06-15 12:28:49,1.595579982,-1.279151797,-0.283441484,4.378994942,-4.606443882,7.419631004,-1374.3398692810458,10.424836601307192,-656.0,-8017.35294117647,-1380.5424836601308,2005.450980392157,4
2024-06-15 12:28:50,0.0415388383,0.248011291,-0.2040289938,6.39251852,-3.189076662,8.257601738,-1365.18954248366,148.98692810457516,-556.0,-8223.235294117647,-1454.3986928104575,2074.078431372549,4
2024-06-15 12:28:50,-0.25167647,0.248011291,0.06475171447,4.237737179,-4.043806553,8.269572258,-497.7191011235955,290.87640449438203,1321.561797752809,-8255.224719101123,-962.8988764044944,1873.7865168539329,4
2024-06-15 12:28:50,-0.25167647,0.248011291,0.06475171447,4.237737179,-4.043806553,8.269572258,-544.5333333333333,-34.22222222222222,763.2555555555555,-8168.6,-1095.1555555555556,1710.8222222222223,4
2024-06-15 12:28:50,-0.06841690838,0.1392772794,0.03298672289,4.472368717,-3.145981073,8.202534676,-818.2298850574713,-174.51724137931035,551.8850574712644,-8495.448275862069,-1075.528735632184,2065.344827586207,4
2024-06-15 12:28:50,-0.9822713137,0.3359758854,0.09773843735,4.328716755,-4.967968464,7.783549786,-10.934782608695652,319.92391304347825,1298.5326086956522,-8080.70652173913,-245.19565217391303,1447.2934782608695,4
2024-06-15 12:28:50,-0.09529497474,0.1233947799,0.0720821023,3.653551817,-5.494692802,7.596801758,-232.3023255813953,212.7674418604651,1945.372093023256,-8162.511627906977,-578.7674418604652,1861.372093023256,4
2024-06-15 12:28:50,-0.09529497474,0.1233947799,0.0720821023,3.653551817,-5.494692802,7.596801758,-294.7977528089888,-164.52808988764045,224.41573033707863,-8193.707865168539,-685.1348314606741,1870.9101123595503,4
2024-06-15 12:28:50,-0.4508185387,0.1282816976,0.05986479297,3.414131641,-5.813121796,7.441178799,-483.3255813953488,171.93023255813955,-302.90697674418607,-8237.953488372093,-927.720930232558,2027.116279069768,4
2024-06-15 12:28:50,0.04276056588,-0.02199114859,-0.01832595654,3.670311213,-5.686229229,7.438784599,-253.6966292134832,20.11235955056179,78.78651685393254,-8533.044943820225,-818.7415730337078,1940.3483146067413,4
2024-06-15 12:28:51,0.04276056588,-0.02199114859,-0.01832595654,3.670311213,-5.686229229,7.438784599,66.5632183908046,-290.7816091954023,91.95402298850576,-8211.942528735632,-520.9655172413793,1801.942528735632,4
2024-06-15 12:28:51,0.05131268129,-0.0109955743,-0.03298672289,3.660734415,-5.71974802,7.443572998,469.4239130434783,-392.57608695652175,-116.47826086956522,-8522.33695652174,-479.8804347826087,1740.8478260869565,4
2024-06-15 12:28:51,0.05375614017,-0.02809980139,-0.0109955743,3.636792421,-5.801150799,7.422025204,703.9876543209876,-1300.1358024691358,-1118.5555555555557,-8489.246913580248,-457.87654320987656,2110.7283950617284,4
2024-06-15 12:28:51,0.05375614017,-0.02809980139,-0.0109955743,3.636792421,-5.801150799,7.422025204,3884.022727272728,-100.5681818181818,1333.9204545454545,-8290.818181818182,-381.52272727272725,2350.943181818182,4
2024-06-15 12:28:51,-0.02443460934,0.01343903504,-0.007330383174,3.708618402,-5.784391403,7.371747017,4221.51677852349,166.81879194630872,433.4697986577181,-7954.671140939597,-59.42953020134228,2351.3221476510066,4
2024-06-15 12:28:51,-0.02443460934,0.01343903504,-0.007330383174,3.708618402,-5.784391403,7.371747017,4096.684563758389,295.006711409396,38.16778523489933,-8161.38255033557,196.27516778523488,2334.5436241610737,4
2024-06-15 12:28:51,-0.06108652428,0.04642575979,0.00244346098,3.615244627,-5.738901615,7.39808321,1404.1842105263158,-300.4868421052632,-1367.907894736842,-8523.828947368422,338.60526315789474,2340.2763157894738,4
2024-06-15 12:28:51,0.02687807009,-0.01221730467,-0.01466076635,3.617638826,-5.846640587,7.333439827,761.8241758241759,-598.4395604395604,-954.1978021978022,-8344.153846153846,66.01098901098901,2281.923076923077,4
2024-06-15 12:28:51,0.02687807009,-0.01221730467,-0.01466076635,3.617638826,-5.846640587,7.333439827,698.2808988764045,-851.5393258426966,-761.370786516854,-8155.325842696629,-342.08988764044943,2445.696629213483,4
2024-06-15 12:28:51,-0.03298672289,-0.07086037099,-0.04886921868,3.462015629,-6.414066315,7.079654217,430.90697674418607,-183.0,-330.09302325581393,-8077.162790697675,-155.3953488372093,2554.6279069767443,4
2024-06-15 12:28:52,-0.02076941915,0.03665191308,-0.05375614017,3.579331636,-5.75805521,7.323863029,-1757.629213483146,946.4719101123596,683.2584269662922,-8245.808988764045,139.82022471910113,2186.5393258426966,4
2024-06-15 12:28:52,-0.02076941915,0.03665191308,-0.05375614017,3.579331636,-5.75805521,7.323863029,-3624.2758620689656,1307.8275862068965,1306.9770114942528,-8478.67816091954,296.632183908046,1956.67816091954,4
2024-06-15 12:28:52,0.08063421398,-0.01343903504,0.00244346098,3.909731388,-5.535394192,7.477091789,-4360.348314606742,580.9550561797753,823.370786516854,-8534.640449438202,-360.9213483146068,1726.865168539326,4
2024-06-15 12:28:52,0.08063421398,-0.01343903504,0.00244346098,3.909731388,-5.535394192,7.477091789,-3701.4222222222224,164.65555555555557,199.13333333333333,-8512.211111111112,-109.52222222222224,1739.4888888888888,4
2024-06-15 12:28:52,-0.1343903542,0.05253441259,-0.006108652335,3.634398222,-5.932831764,7.20654726,-1721.1917808219175,177.13698630136986,525.8767123287671,-8140.849315068493,-16.178082191780824,1523.890410958904,4
2024-06-15 12:28:52,-0.05619960278,0.05253441259,0.04520402849,3.711012602,-6.126761913,7.314286232,-1684.3218390804598,291.2413793103448,696.816091954023,-8119.6551724137935,316.0,1517.2988505747126,4
2024-06-15 12:28:52,-0.05619960278,0.05253441259,0.04520402849,3.711012602,-6.126761913,7.314286232,-1477.584269662921,248.6741573033708,766.3595505617977,-8318.887640449439,428.9775280898877,1476.6516853932585,4
2024-06-15 12:28:52,0.06230825558,0.004886921961,0.08796459436,3.327940464,-5.71974802,7.297526836,-1077.5955056179776,-76.42696629213484,379.2584269662921,-8493.550561797752,508.2247191011236,1494.494382022472,4
2024-06-15 12:28:52,0.02076941915,0.0415388383,0.08552113175,3.38061285,-6.169857979,7.264008045,-430.9310344827586,-341.6896551724138,-229.86206896551724,-8515.793103448275,167.51724137931035,1849.586206896552,4
2024-06-15 12:28:52,0.02076941915,0.0415388383,0.08552113175,3.38061285,-6.169857979,7.264008045,260.5,-377.983606557377,-486.6475409836066,-8333.0,314.37704918032784,1913.131147540984,4
2024-06-15 12:28:53,-0.009773843922,-0.02199114859,-0.03909537569,3.574543238,-6.399701118,7.079654217,768.8039215686274,-588.4705882352941,-474.62745098039215,-8146.254901960784,54.54901960784315,1730.1764705882354,4
2024-06-15 12:28:53,-0.009773843922,-0.02199114859,-0.03909537569,3.574543238,-6.399701118,7.079654217,1727.5813953488373,-540.3023255813954,-800.3604651162791,-8295.616279069767,-58.872093023255815,2065.8488372093025,4
2024-06-15 12:28:53,0.03665191308,-0.01343903504,-0.01954768784,3.394978046,-6.325480938,7.175422668,748.3483146067416,-39.13483146067416,108.59550561797752,-8526.651685393259,343.4494382022472,1872.6741573033707,4
2024-06-15 12:28:53,-0.05864306539,0.02687807009,-0.01343903504,3.201047659,-6.248866558,7.237671852,-414.14606741573033,-187.96629213483143,-529.6404494382023,-8271.58426966292,541.0224719101124,1412.8988764044943,4
2024-06-15 12:28:53,-0.05864306539,0.02687807009,-0.01343903504,3.201047659,-6.248866558,7.237671852,-2801.1176470588234,305.2352941176471,371.11764705882354,-7907.470588235294,245.41176470588235,2185.764705882353,4
2024-06-15 12:28:53,-0.1026253626,0.02199114859,0.008552113548,3.339911461,-6.24168396,7.280767441,-2644.224719101124,885.7303370786517,686.8876404494382,-8388.033707865168,-344.4269662921348,2223.696629213483,4
2024-06-15 12:28:53,-0.0354301855,-0.008552113548,0.01588249579,3.236960649,-6.253654957,7.079654217,-916.8505747126436,242.80459770114945,799.0229885057471,-8229.333333333334,-341.4942528735632,1451.1149425287356,4
2024-06-15 12:28:53,-0.0354301855,-0.008552113548,0.01588249579,3.236960649,-6.253654957,7.079654217,134.8571428571429,-342.28571428571433,552.1428571428571,-8466.714285714286,-102.85714285714285,1761.7142857142858,4
2024-06-15 12:28:53,-0.06352998316,-0.03909537569,-0.06597344577,3.323152065,-6.253654957,7.070077419,2350.7816091954023,-1278.0689655172414,210.41379310344823,-8402.80459770115,332.3793103448276,2139.6436781609195,4
2024-06-15 12:28:53,-0.06352998316,-0.03909537569,-0.06597344577,3.323152065,-6.253654957,7.070077419,3215.556818181818,-1322.159090909091,547.4545454545455,-8263.897727272728,605.0681818181818,2067.7954545454545,4
2024-06-15 12:28:54,-1.295034289,-0.25167647,-1.263269305,3.643975019,-9.059659004,5.789179802,2467.344827586207,-1656.8275862068965,-915.5862068965516,-8143.724137931034,691.8965517241379,2245.9310344827586,4
2024-06-15 12:28:54,2.794097662,-0.58276546,-0.581543684,5.628767967,-3.117250681,6.775590897,433.2307692307692,-1275.0,-494.1538461538461,-8058.0,940.2307692307692,2559.076923076923,4
2024-06-15 12:28:54,2.794097662,-0.58276546,-0.581543684,5.628767967,-3.117250681,6.775590897,-197.609756097561,-260.609756097561,-18.951219512195124,-7732.292682926829,655.9024390243902,3050.878048780488,4
2024-06-15 12:28:54,1.362229466,-0.3555235863,-0.09162978828,6.476315498,-0.05267243832,7.783549786,311.314606741573,818.2247191011236,24.65168539325844,-7845.494382022472,793.2022471910112,2904.2808988764045,4
2024-06-15 12:28:54,-1.141096234,0.03420845419,-0.4312708676,7.709329605,-3.442862034,6.91684866,254.45222929936307,1117.828025477707,-25.89171974522293,-7948.923566878981,721.5541401273886,2516.1528662420383,4
2024-06-15 12:28:54,-1.141096234,0.03420845419,-0.4312708676,7.709329605,-3.442862034,6.91684866,53.178343949044574,1273.2420382165606,83.6624203821656,-8206.885350318471,776.3312101910828,2500.229299363057,4
2024-06-15 12:28:54,0.1233947799,0.1270599663,0.1600466967,6.31590414,-0.7445967197,7.979874134,-296.47058823529414,569.3529411764706,-347.5882352941177,-8182.64705882353,300.47058823529414,2236.8823529411766,4
2024-06-15 12:28:54,0.1233947799,0.1270599663,0.1600466967,6.31590414,-0.7445967197,7.979874134,82.26966292134833,53.32584269662921,-341.9213483146067,-8233.32584269663,187.64044943820224,2026.876404494382,4
2024-06-15 12:28:54,-0.1576032341,0.1026253626,0.01466076635,6.086060524,-2.45405674,7.903259754,565.2,-425.9,-3078.7,-8515.2,-573.9,1716.7,4
2024-06-15 12:28:54,0.0,0.2590068579,0.3286454976,6.265625954,-2.779668093,7.580042362,1740.5581395348838,-2430.546511627907,-2788.7558139534885,-7966.162790697675,-613.5232558139535,2536.9418604651164,4
2024-06-15 12:28:55,0.0,0.2590068579,0.3286454976,6.265625954,-2.779668093,7.580042362,1174.3333333333333,-930.8666666666668,-2787.633333333333,-7958.2555555555555,-904.8888888888888,3378.611111111112,4
2024-06-15 12:28:55,-0.1466076523,0.1001819,0.03787364438,5.346252441,-2.808398485,7.900865555,982.7204301075268,-425.8279569892473,-1932.7956989247311,-7976.956989247312,-1115.3763440860216,3275.537634408602,4
2024-06-15 12:28:55,0.0171042271,0.05742133409,0.0354301855,5.652710438,-2.63601613,7.915230751,-269.75,445.6875,535.75,-8004.5625,-1294.75,3339.625,4
2024-06-15 12:28:55,0.0171042271,0.05742133409,0.0354301855,5.652710438,-2.63601613,7.915230751,-502.8876404494382,304.7752808988764,629.561797752809,-7903.662921348315,-1162.1460674157304,3047.674157303371,4
2024-06-15 12:28:55,-0.03420845419,0.07941248268,0.0415388383,5.509057999,-2.746149302,7.963114738,-892.2068965517242,241.6551724137931,1345.7241379310344,-7903.3218390804595,-1108.6896551724135,3032.942528735632,4
2024-06-15 12:28:55,-0.03420845419,0.07941248268,0.0415388383,5.509057999,-2.746149302,7.963114738,-493.6179775280899,870.5056179775281,1137.1573033707864,-7635.134831460674,-1071.7191011235957,3174.23595505618,4
2024-06-15 12:28:55,0.01832595654,0.01954768784,0.00244346098,5.286397457,-2.767697096,8.051700592,244.5555555555556,1734.1333333333332,913.2555555555556,-7909.666666666667,-672.088888888889,3088.8444444444444,4
2024-06-15 12:28:55,-0.01954768784,0.02443460934,0.004886921961,5.267243862,-2.868253708,7.99423933,97.08571428571427,1765.2571428571428,1982.9714285714283,-8314.542857142857,-35.771428571428544,2645.1428571428573,4
2024-06-15 12:28:55,-0.01954768784,0.02443460934,0.004886921961,5.267243862,-2.868253708,7.99423933,-494.1818181818182,1205.1818181818182,1960.090909090909,-8571.272727272728,296.09090909090907,1924.0,4
2024-06-15 12:28:55,-0.03054326214,0.008552113548,0.00122173049,5.166687489,-2.925714493,8.140285492,-2367.9205298013244,106.71523178807948,270.0198675496689,-8487.23178807947,1339.7814569536424,1641.1390728476822,4
2024-06-15 12:28:56,0.05742133409,0.01588249579,0.009773843922,5.432443619,-2.908955097,8.049305916,-2467.2582781456954,-187.3245033112583,-304.81456953642385,-8247.496688741721,1362.9602649006622,1617.2980132450332,4
2024-06-15 12:28:56,0.05742133409,0.01588249579,0.009773843922,5.432443619,-2.908955097,8.049305916,-3238.8636363636365,30.068181818181813,-958.2045454545456,-8224.102272727272,473.2840909090909,1851.4431818181813,4
2024-06-15 12:28:56,-0.09162978828,0.05375614017,0.0232128799,5.140350819,-3.112462282,8.236053467,-2723.597701149425,458.1379310344828,-726.9540229885057,-8087.6551724137935,-242.94252873563207,2113.1264367816093,4
2024-06-15 12:28:56,-0.09162978828,0.05375614017,0.0232128799,5.140350819,-3.112462282,8.236053467,-2104.057471264368,710.5747126436781,-1102.8850574712644,-8344.689655172413,-574.4252873563219,1799.0344827586207,4
2024-06-15 12:28:56,-0.02809980139,-0.0232128799,-0.01954768784,5.185841084,-2.985569477,8.171410561,-1632.4367816091954,676.5977011494252,-1126.3908045977012,-8551.091954022988,-502.13793103448273,1631.3103448275865,4
2024-06-15 12:28:56,0.01466076635,0.01466076635,-0.006108652335,5.324704647,-2.794033289,8.099584579,-1279.1494252873565,386.4712643678161,-858.2988505747127,-8528.51724137931,-727.9080459770115,1280.2758620689656,4
2024-06-15 12:28:56,0.01466076635,0.01466076635,-0.006108652335,5.324704647,-2.794033289,8.099584579,-1206.6032608695652,109.86956521739133,-594.1739130434783,-8511.635869565218,-721.125,1213.3152173913045,4
2024-06-15 12:28:56,0.009773843922,0.0232128799,0.01343903504,5.142745018,-2.8969841,8.075642586,-1183.233695652174,-155.3478260869565,-281.13043478260875,-8454.570652173914,-758.625,1220.9239130434785,4
2024-06-15 12:28:56,0.01343903504,-0.003665191587,-0.004886921961,5.092466831,-3.033453465,8.027758598,19.93478260869565,115.84782608695652,719.4347826086956,-8178.0,-193.6086956521739,1573.6739130434785,4
2024-06-15 12:28:56,0.01343903504,-0.003665191587,-0.004886921961,5.092466831,-3.033453465,8.027758598,24.181818181818183,222.3409090909091,262.70454545454544,-8536.670454545454,-159.86363636363637,1604.8636363636365,4
2024-06-15 12:28:57,-0.01954768784,0.02443460934,0.008552113548,5.334281445,-2.928108692,8.137891769,184.52808988764045,-39.30337078651687,-23.674157303370777,-8407.033707865168,-160.47191011235955,1603.247191011236,4
2024-06-15 12:28:57,-0.01954768784,0.02443460934,0.008552113548,5.334281445,-2.928108692,8.137891769,423.5681818181818,-4.4659090909090935,274.07954545454544,-8509.261363636364,-277.22727272727275,1640.7727272727273,4
2024-06-15 12:28:57,-0.03909537569,0.02687807009,0.0171042271,5.087678432,-2.8993783,8.106766701,391.0888888888889,-170.3111111111111,476.23333333333335,-8477.388888888889,-37.15555555555555,1547.6777777777777,4
2024-06-15 12:28:57,0.0171042271,-0.0171042271,-0.01221730467,5.094861031,-2.999934673,8.097189903,-1403.415730337079,-865.561797752809,481.6966292134832,-8715.707865168539,514.3033707865169,1474.6516853932585,4
2024-06-15 12:28:57,0.0171042271,-0.0171042271,-0.01221730467,5.094861031,-2.999934673,8.097189903,-4647.7444444444445,-1418.2333333333331,791.6333333333333,-8391.844444444445,387.3444444444444,1575.2111111111112,4
2024-06-15 12:28:57,-0.00122173049,0.01221730467,0.00122173049,5.166687489,-2.911349297,8.097189903,-3926.2921348314608,-60.49438202247191,459.0,-8175.494382022472,-250.7752808988764,2026.9662921348315,4
2024-06-15 12:28:57,0.02076941915,0.009773843922,0.0171042271,5.193023682,-3.064578056,8.142680168,-2489.470588235294,467.4117647058824,226.7058823529412,-8104.117647058823,-321.8235294117647,1968.470588235294,4
2024-06-15 12:28:57,0.02076941915,0.009773843922,0.0171042271,5.193023682,-3.064578056,8.142680168,283.7096774193548,465.03225806451616,486.5161290322581,-8211.774193548386,29.32258064516129,1788.6129032258063,4
2024-06-15 12:28:57,-1.315803766,0.3152064681,0.5461135507,4.635174274,-2.930502892,9.957485199,788.5882352941177,489.8941176470588,345.56470588235294,-8462.764705882353,246.2117647058824,1468.8235294117646,4
2024-06-15 12:28:57,-1.315803766,0.3152064681,0.5461135507,4.635174274,-2.930502892,9.957485199,2204.7727272727275,668.7954545454545,-134.35227272727272,-8513.477272727272,301.8181818181818,1223.1477272727273,4
2024-06-15 12:28:58,0.9908234477,0.2577851415,-0.2028072625,5.729324818,-8.951920509,11.04684639,1913.8539325842696,348.19101123595505,-677.9662921348315,-8562.550561797752,468.80898876404495,1244.7303370786517,4
2024-06-15 12:28:58,-1.678657651,2.987131119,1.280373573,5.597643375,-4.376600742,8.54251194,1168.3777777777775,-74.28888888888889,-379.7444444444444,-8539.58888888889,403.81111111111113,982.5888888888888,4
2024-06-15 12:28:58,-1.678657651,2.987131119,1.280373573,5.597643375,-4.376600742,8.54251194,458.183908045977,32.701149425287355,-101.5057471264368,-8494.28735632184,550.9425287356322,1223.7586206896551,4
2024-06-15 12:28:58,-0.6438519955,3.290120125,2.539977789,0.9816226959,-2.571372509,5.418078423,941.1888888888888,252.77777777777777,-212.74444444444447,-8153.711111111111,159.84444444444443,1341.1,4
2024-06-15 12:28:58,0.7476990819,0.3909537494,-1.020144939,-6.540958881,-1.577778935,0.9792284966,1088.551724137931,143.31034482758622,304.8275862068965,-8521.241379310344,545.5172413793103,1041.9310344827586,4
2024-06-15 12:28:58,0.7476990819,0.3909537494,-1.020144939,-6.540958881,-1.577778935,0.9792284966,780.8850574712644,63.747126436781606,80.58620689655173,-8514.16091954023,443.8735632183908,969.6666666666666,4
2024-06-15 12:28:58,0.669508338,-2.249205828,-1.689653277,-5.760449409,-7.019799232,5.841852188,211.46153846153845,-46.15384615384616,150.53846153846155,-8350.615384615385,407.1538461538461,1012.6923076923076,4
2024-06-15 12:28:58,0.669508338,-2.249205828,-1.689653277,-5.760449409,-7.019799232,5.841852188,2909.7977528089887,-782.6741573033707,-558.8876404494382,-8524.696629213484,283.9438202247191,1336.0337078651685,4
2024-06-15 12:28:58,1.418429136,-3.259577036,-1.326799273,1.867477298,-4.165910721,13.00530338,3280.125,-827.375,-356.5,-8513.5,271.5,1173.625,4
2024-06-15 12:28:58,-4.561941624,-1.870469332,-1.043357849,5.336675644,-6.91445446,8.214506149,3977.5842696629215,-402.370786516854,120.8988764044944,-8144.820224719101,604.5730337078652,1131.9662921348315,4
2024-06-15 12:28:59,-4.561941624,-1.870469332,-1.043357849,5.336675644,-6.91445446,8.214506149,3865.6,11.199999999999989,535.6,-8168.6,1101.4,1093.8,4
2024-06-15 12:28:59,-3.30478096,-0.976162672,-1.020144939,3.634398222,-6.449979305,3.138798475,1576.5393258426966,-73.50561797752809,785.5168539325842,-8405.157303370786,1607.9662921348315,985.7752808988764,4
2024-06-15 12:28:59,1.429424644,0.2700024247,-0.4911356568,11.39879417,0.1268926859,-2.779668093,-232.57236842105263,-474.9407894736842,756.9407894736842,-8502.328947368422,1506.407894736842,966.7368421052632,4
2024-06-15 12:28:59,1.429424644,0.2700024247,-0.4911356568,11.39879417,0.1268926859,-2.779668093,-2236.538461538461,-493.5,-36.26923076923072,-8357.423076923076,1256.576923076923,1460.6153846153848,4
2024-06-15 12:28:59,-0.4080579877,-0.1295034289,-0.4679227769,8.250418663,-6.014234543,0.8858546019,-6694.466666666666,-73.63333333333333,-1090.0333333333333,-7868.3,1088.2333333333331,1688.3666666666666,4
2024-06-15 12:28:59,-0.4080579877,-0.1295034289,-0.4679227769,8.250418663,-6.014234543,0.8858546019,-6497.70786516854,902.2134831460672,-281.9438202247191,-7908.67415730337,473.247191011236,1884.011235955056,4
2024-06-15 12:28:59,-0.290771842,-0.2052507252,-1.106887817,9.459490776,-4.920084476,-0.5458779931,-2858.181818181818,2824.181818181818,611.8181818181819,-8270.545454545454,-172.0909090909091,1573.090909090909,4
2024-06-15 12:28:59,-0.06475171447,-0.4153883755,-1.082453251,9.703699112,-2.657563925,-0.1221042871,-142.5681818181818,2178.75,-100.7840909090909,-8540.863636363636,-33.35227272727272,1208.9431818181818,4
2024-06-15 12:28:59,-0.06475171447,-0.4153883755,-1.082453251,9.703699112,-2.657563925,-0.1221042871,66.40909090909093,481.3409090909091,-130.1818181818182,-8522.59090909091,846.7727272727273,204.77272727272728,4
2024-06-15 12:28:59,0.08796459436,-0.2125810981,-0.6499606371,10.08437729,-0.9648633003,-1.106121182,-1374.134831460674,801.1797752808989,904.685393258427,-8221.943820224718,894.5730337078652,86.98876404494382,4
2024-06-15 12:29:00,-0.3310889602,0.08185594529,-0.2736676335,10.02212811,0.825999558,-2.04704237,-5065.333333333333,967.8620689655172,-509.45977011494256,-8715.149425287356,1347.9885057471265,46.62068965517241,4
2024-06-15 12:29:00,-0.3310889602,0.08185594529,-0.2736676335,10.02212811,0.825999558,-2.04704237,-7002.758620689655,-382.8965517241379,-2034.103448275862,-8262.689655172413,1163.344827586207,70.62068965517241,4
2024-06-15 12:29:00,-0.1795943826,-0.1979203373,0.3909537494,9.47146225,-2.964021683,-1.814804912,-8326.172413793103,54.75862068965517,-3356.793103448276,-7592.931034482759,590.7586206896551,-54.13793103448276,4
2024-06-15 12:29:00,-0.01588249579,-0.01221730467,0.8772025108,10.25675964,-0.8523358107,-0.9744400978,-7840.629213483146,719.3595505617977,-5928.359550561798,-8527.831460674157,-2028.2808988764043,223.1460674157304,4
2024-06-15 12:29:00,-0.01588249579,-0.01221730467,0.8772025108,10.25675964,-0.8523358107,-0.9744400978,-2376.333333333333,645.6428571428571,-4068.071428571429,-7896.142857142857,-3004.0238095238096,-295.3809523809524,4
2024-06-15 12:29:00,1.409876943,0.3396410644,1.431868076,10.01255131,-0.4046200812,-2.45166254,-165.17021276595744,717.0851063829787,-2583.234042553192,-7958.531914893617,-2858.148936170213,-1002.9574468085108,4
2024-06-15 12:29:00,1.409876943,0.3396410644,1.431868076,10.01255131,-0.4046200812,-2.45166254,-737.1785714285714,451.32142857142856,-1146.7857142857142,-7783.357142857143,-3372.3928571428573,-1297.928571428571,4
2024-06-15 12:29:00,0.3005456924,2.16246295,1.479515672,7.299921036,-5.91128397,1.869871497,-822.3882352941176,365.9705882352941,-925.729411764706,-7745.8,-3258.764705882353,-1220.6588235294118,4
2024-06-15 12:29:00,0.01954768784,1.319468975,0.7171558142,7.082048416,-7.153874874,3.64158082,-1000.035294117647,210.08823529411765,-471.6117647058824,-7705.8,-3311.705882352941,-1252.4235294117648,4
2024-06-15 12:29:00,0.01954768784,1.319468975,0.7171558142,7.082048416,-7.153874874,3.64158082,-598.0357142857143,-76.64285714285714,1326.0714285714284,-7686.714285714285,-2709.428571428572,-1047.5,4
2024-06-15 12:29:01,0.1319468915,0.2528982162,0.5558874011,4.704606533,-8.192957878,4.522646904,-535.0,-239.9010989010989,1978.9450549450548,-7623.571428571428,-2453.736263736264,-1021.2857142857144,4
2024-06-15 12:29:01,0.1319468915,0.2528982162,0.5558874011,4.704606533,-8.192957878,4.522646904,30.24418604651163,997.5697674418604,2310.8837209302324,-7663.53488372093,-2367.7093023255816,-858.1744186046511,4
2024-06-15 12:29:01,3.117856264,-0.3298672438,2.42391324,3.045424461,-3.356670856,5.509057999,-524.0,-234.41379310344828,1197.448275862069,-7905.551724137931,-1380.6206896551723,-1619.4137931034484,4
2024-06-15 12:29:01,3.117856264,-0.3298672438,2.42391324,3.045424461,-3.356670856,5.509057999,-174.7159090909091,-313.5,504.52272727272725,-8016.863636363636,-968.568181818182,-1499.5,4
2024-06-15 12:29:01,-0.3188716471,-1.517389297,-0.2541199327,4.967968464,-5.916072369,3.684676409,138.13186813186817,-791.1758241758241,322.6043956043956,-8108.043956043956,-993.3186813186812,-1257.142857142857,4
2024-06-15 12:29:01,-3.670078278,1.325577617,0.3066543639,0.5602431893,-4.786009312,4.5370121,274.0224719101124,-833.2696629213483,471.17977528089887,-8176.224719101124,-821.0112359550562,-1216.8314606741574,4
2024-06-15 12:29:01,-3.670078278,1.325577617,0.3066543639,0.5602431893,-4.786009312,4.5370121,-393.2857142857143,-1082.571428571429,-1769.2857142857142,-7955.857142857143,-1012.2857142857144,-668.5714285714286,4
2024-06-15 12:29:01,1.474628687,-0.5497786999,-0.2822197378,2.126051188,-5.566518784,6.502651691,320.95348837209303,-535.5348837209302,-2328.5813953488373,-8144.53488372093,-1513.1627906976744,-439.8372093023256,4
2024-06-15 12:29:01,1.474628687,-0.5497786999,-0.2822197378,2.126051188,-5.566518784,6.502651691,1171.9550561797753,-152.23595505617976,-1108.741573033708,-8480.247191011236,-2230.4044943820227,-571.7078651685393,4
2024-06-15 12:29:02,-0.4667010605,0.3310889602,0.3103195429,2.176329374,-8.238448143,5.899312973,3574.114942528736,-260.01149425287355,395.3793103448276,-7882.517241379311,-2856.436781609196,-539.1149425287356,4
2024-06-15 12:29:02,-0.3298672438,-0.00244346098,-0.1221730486,1.120486379,-7.161057472,6.449979305,8877.363636363636,355.5681818181818,1914.522727272728,-7648.068181818182,-2066.090909090909,-691.3863636363636,4
2024-06-15 12:29:02,-0.3298672438,-0.00244346098,-0.1221730486,1.120486379,-7.161057472,6.449979305,8573.142857142857,557.4285714285714,1891.2857142857144,-8531.142857142857,-1099.7142857142858,-763.1428571428571,4
2024-06-15 12:29:02,0.5571091175,-0.07086037099,-0.09773843735,2.260126352,-6.677428722,6.512228489,6984.2808988764045,-117.42696629213484,1154.6067415730338,-8504.752808988764,-335.5056179775281,-478.123595505618,4
2024-06-15 12:29:02,-0.3127630055,-0.07941248268,0.04031710699,1.640028119,-7.55131197,5.858611584,5387.476821192053,-1383.0132450331123,750.1523178807947,-8510.476821192053,-178.58278145695363,444.66887417218544,4
2024-06-15 12:29:02,-0.3127630055,-0.07941248268,0.04031710699,1.640028119,-7.55131197,5.858611584,4447.079470198676,-1434.6688741721855,544.1920529801325,-8370.079470198676,-251.43046357615896,753.2781456953642,4
2024-06-15 12:29:02,-0.1429424733,-0.06719517708,-0.1380555481,2.480392933,-7.058106422,7.055712223,2358.681818181818,-1573.8522727272727,695.2613636363636,-8174.931818181818,-171.85227272727275,1513.9772727272727,4
2024-06-15 12:29:02,0.07086037099,-0.05009094998,0.07452555746,2.23139596,-7.048529625,6.572083473,2010.522727272728,-1363.7386363636365,771.3636363636364,-8286.579545454546,218.9318181818182,1990.2954545454545,4
2024-06-15 12:29:02,0.07086037099,-0.05009094998,0.07452555746,2.23139596,-7.048529625,6.572083473,1257.0,-561.2,167.4,-8140.0,26.19999999999999,2228.0,4
2024-06-15 12:29:02,-0.3677408695,0.1478293836,-0.02809980139,2.066195965,-7.819462776,6.473921299,1236.9657142857145,-806.9714285714285,-472.0571428571429,-8208.914285714285,-16.57714285714286,2248.062857142857,4
2024-06-15 12:29:03,-0.3677408695,0.1478293836,-0.02809980139,2.066195965,-7.819462776,6.473921299,840.75,-412.75,-446.75,-8232.25,-22.0,2278.5,4
2024-06-15 12:29:03,-0.6462954283,-0.7061602473,-0.06841690838,0.4884171486,-7.457938194,7.311892033,656.5454545454545,-267.8181818181818,-546.2272727272727,-8074.772727272727,-480.4090909090909,2564.0454545454545,4
2024-06-15 12:29:03,0.5619960427,-0.6548475623,-0.6414085031,4.199429989,-6.926425457,4.726154327,477.1555555555556,-183.92222222222225,51.28888888888889,-8284.288888888888,50.06666666666667,2647.2444444444445,4
2024-06-15 12:29:03,0.5619960427,-0.6548475623,-0.6414085031,4.199429989,-6.926425457,4.726154327,336.8181818181818,-301.1818181818182,306.6363636363636,-8224.727272727272,-6.9090909090909065,2444.2727272727275,4
2024-06-15 12:29:03,0.763581574,0.4007275999,0.3371976018,6.727706909,-7.319074631,7.242460251,-556.9213483146068,-464.6404494382023,593.2247191011236,-8024.505617977528,20.943820224719104,2772.4606741573034,4
2024-06-15 12:29:03,0.763581574,0.4007275999,0.3371976018,6.727706909,-7.319074631,7.242460251,68.61956521739131,-476.0652173913044,-36.586956521739125,-7922.152173913043,71.8804347826087,2741.782608695652,4
2024-06-15 12:29:03,-0.8674286604,0.5583308339,-0.03665191308,2.535459518,-6.083666325,7.489062786,468.6966292134832,-85.97752808988764,-288.5056179775281,-8014.38202247191,35.47191011235955,2716.8651685393256,4
2024-06-15 12:29:03,0.1490511149,0.05375614017,0.1075122803,3.416525841,-5.559336185,7.405265808,623.1395348837209,100.7906976744186,-356.8372093023256,-7983.790697674419,-50.55813953488371,2844.651162790697,4
2024-06-15 12:29:03,0.1490511149,0.05375614017,0.1075122803,3.416525841,-5.559336185,7.405265808,1073.112359550562,355.96629213483146,-520.6629213483146,-8265.808988764045,287.2584269662921,2851.494382022472,4
2024-06-15 12:29:03,-0.4557054639,0.05619960278,0.04031710699,3.41892004,-6.79953289,7.656657219,172.59731543624162,181.93288590604027,424.3959731543624,-8285.328859060402,335.8053691275168,2521.93288590604,4
2024-06-15 12:29:04,-0.4850270152,0.2809980214,0.03420845419,2.887407303,-6.679822922,6.804321289,452.46308724832215,178.5771812080537,394.1946308724832,-8251.771812080537,76.07382550335569,2518.577181208054,4
2024-06-15 12:29:04,-0.4850270152,0.2809980214,0.03420845419,2.887407303,-6.679822922,6.804321289,497.6746987951807,230.57831325301203,-46.493975903614455,-8090.590361445783,195.40963855421683,2484.590361445783,4
2024-06-15 12:29:04,-0.1514945775,0.1160643995,-0.01221730467,2.734178305,-7.249642849,6.445190907,-14.53846153846154,42.04395604395605,-341.5934065934066,-8287.395604395604,209.86813186813183,2654.923076923077,4
2024-06-15 12:29:04,-0.1514945775,0.1160643995,-0.01221730467,2.734178305,-7.249642849,6.445190907,-92.72413793103448,36.27586206896552,-255.0,-8238.034482758621,327.2413793103448,2435.0344827586205,4
2024-06-15 12:29:04,-0.03787364438,-0.07452555746,-0.02809980139,2.837129116,-6.983886242,6.459556103,-1856.032258064516,191.6129032258065,-414.5161290322581,-8113.290322580645,931.516129032258,2251.8387096774195,4
2024-06-15 12:29:04,-0.1319468915,0.03787364438,0.01954768784,2.952050686,-7.10599041,6.816292286,-2167.954545454545,866.2727272727273,-43.45454545454544,-8142.954545454545,-421.1818181818182,2637.5,4
2024-06-15 12:29:04,-0.1319468915,0.03787364438,0.01954768784,2.952050686,-7.10599041,6.816292286,748.4318181818182,1055.4318181818182,-77.67045454545455,-8506.25,3.090909090909065,2111.375,4
2024-06-15 12:29:04,-0.2748893499,0.2052507252,0.02443460934,2.719813108,-7.378929615,6.548141479,111.27906976744184,535.4883720930233,405.5813953488372,-8536.697674418605,218.02325581395348,1700.0697674418604,4
2024-06-15 12:29:04,0.1295034289,-0.0171042271,0.05253441259,2.312798738,-7.376535416,6.423643112,-1269.2666666666669,361.8666666666667,603.3666666666667,-8178.8,-14.933333333333334,1679.7666666666669,4
2024-06-15 12:29:04,0.1295034289,-0.0171042271,0.05253441259,2.312798738,-7.376535416,6.423643112,-416.6444444444445,173.77777777777777,320.9,-8422.7,138.93333333333334,1722.911111111111,4
2024-06-15 12:29:05,0.05375614017,0.03665191308,-0.1075122803,2.983175278,-7.163451672,6.629544735,-205.29545454545456,263.04545454545456,-90.39772727272728,-8171.193181818182,169.02272727272728,1723.6136363636365,4
2024-06-15 12:29:05,0.2443460971,-0.00122173049,0.04764748737,2.487575531,-7.017405033,6.677428722,66.41573033707866,347.1123595505618,-423.123595505618,-8480.662921348314,302.2247191011236,1856.4044943820224,4
2024-06-15 12:29:05,0.2443460971,-0.00122173049,0.04764748737,2.487575531,-7.017405033,6.677428722,79.58064516129032,293.48387096774195,-431.0,-8470.709677419354,285.7741935483871,1844.1290322580649,4
2024-06-15 12:29:05,-0.09529497474,0.1429424733,0.08552113175,2.396595955,-7.196970463,7.024587631,-278.4235294117647,-347.5764705882353,123.49411764705884,-8505.482352941177,396.2352941176471,1835.5529411764703,4
2024-06-15 12:29:05,-0.09529497474,0.1429424733,0.08552113175,2.396595955,-7.196970463,7.024587631,-462.8426966292135,-205.1123595505618,206.2134831460674,-8228.056179775282,567.2247191011236,1879.2696629213483,4
2024-06-15 12:29:05,-0.1295034289,0.04520402849,-0.2174680233,2.592920542,-7.055712223,6.943184853,-33.26373626373629,23.571428571428584,-74.38461538461536,-8092.2307692307695,306.5164835164835,1714.098901098901,4
2024-06-15 12:29:05,0.3872885704,-0.2333505303,0.1832595766,2.183511972,-7.931990147,6.107608318,-150.94557823129253,219.8639455782313,35.823129251700664,-8143.952380952381,229.7278911564626,1890.802721088436,4
2024-06-15 12:29:05,0.3872885704,-0.2333505303,0.1832595766,2.183511972,-7.931990147,6.107608318,-410.0114942528736,144.54022988505747,276.71264367816093,-8190.620689655172,379.91954022988506,1831.0804597701149,4
2024-06-15 12:29:05,0.6462954283,-0.3909537494,-0.2394591719,4.134786129,-3.19865346,7.979874134,-214.84615384615384,-55.0,61.46153846153846,-8433.538461538461,152.6153846153846,1857.3076923076924,4
2024-06-15 12:29:05,-0.1319468915,0.1466076523,-0.06352998316,2.552218914,-7.062894821,6.818686485,-327.65909090909093,-48.75,-119.8409090909091,-8180.875,166.76136363636363,1817.8522727272727,4
2024-06-15 12:29:06,-0.1319468915,0.1466076523,-0.06352998316,2.552218914,-7.062894821,6.818686485,-217.45454545454544,-152.27272727272728,-692.9090909090909,-8265.818181818182,-39.90909090909091,1845.0,4
2024-06-15 12:29:06,-0.06352998316,0.01832595654,-0.1783726513,2.497152328,-6.505045891,6.746860504,-115.59550561797752,-471.7752808988764,-158.19101123595505,-8319.168539325843,-185.6292134831461,1907.3483146067413,4
2024-06-15 12:29:06,-0.06352998316,0.01832595654,-0.1783726513,2.497152328,-6.505045891,6.746860504,2895.8,95.66666666666666,-809.0222222222222,-8281.355555555556,-95.28888888888888,1837.4888888888888,4
2024-06-15 12:29:06,-0.2455678284,0.1380555481,-0.1221730486,2.233790159,-7.381323814,6.540958881,3540.4606741573034,1050.797752808989,-77.32584269662921,-8055.988764044944,305.9550561797753,1724.685393258427,4
2024-06-15 12:29:06,-0.04520402849,0.09651670605,-0.106290549,2.408566952,-7.429207802,6.397306919,3191.164705882353,1328.6235294117646,-542.4117647058823,-8371.211764705882,215.65882352941176,1600.7176470588236,4
2024-06-15 12:29:06,-0.04520402849,0.09651670605,-0.106290549,2.408566952,-7.429207802,6.397306919,1188.120481927711,1848.879518072289,1351.421686746988,-8136.843373493976,811.1204819277109,773.5301204819277,4
2024-06-15 12:29:06,0.1001819,-0.02076941915,-0.0171042271,2.109291792,-7.627926826,6.074089527,-1529.9213483146068,-262.92134831460675,1757.865168539326,-8258.056179775282,1275.9775280898875,600.8539325842696,4
2024-06-15 12:29:06,0.1001819,-0.02076941915,-0.0171042271,2.109291792,-7.627926826,6.074089527,-1162.821428571429,118.89285714285714,1404.7261904761904,-8121.214285714285,2050.6428571428573,422.0595238095238,4
2024-06-15 12:29:06,0.0109955743,0.0171042271,-0.02565634064,2.202665567,-7.838616371,6.088454723,-1274.268817204301,-75.9784946236559,839.483870967742,-8286.064516129032,2151.6559139784945,787.3548387096774,4
2024-06-15 12:29:07,0.0109955743,0.0171042271,-0.02565634064,2.202665567,-7.838616371,6.088454723,-1453.1627906976744,-223.5813953488372,378.4418604651163,-8258.558139534884,1998.488372093024,699.8139534883721,4
2024-06-15 12:29:07,0.1001819,0.003665191587,0.0109955743,2.212242365,-7.503427982,6.330269337,-1356.81875,-209.825,-10.06875,-8216.98125,2160.69375,1055.34375,4
2024-06-15 12:29:07,0.04886921868,-0.007330383174,-0.00122173049,2.094926596,-7.347805023,6.344634533,-1011.19375,-162.325,110.55625,-8222.60625,2152.56875,952.21875,4
2024-06-15 12:29:07,0.04886921868,-0.007330383174,-0.00122173049,2.094926596,-7.347805023,6.344634533,-740.314606741573,-537.0112359550562,-335.0561797752809,-7978.393258426966,2059.112359550562,1048.685393258427,4
2024-06-15 12:29:07,0.003665191587,-0.0171042271,-0.01343903504,2.276885748,-7.580042362,6.24168396,-511.1904761904762,-247.6190476190476,-700.2857142857143,-8223.666666666666,2342.809523809524,1011.1428571428572,4
2024-06-15 12:29:07,-0.125838235,0.03909537569,0.01954768784,2.111685991,-7.778761387,6.172252178,-869.1797752808989,-214.3258426966292,-1460.2921348314608,-8248.224719101123,1824.9325842696628,1198.2134831460671,4
2024-06-15 12:29:07,-0.125838235,0.03909537569,0.01954768784,2.111685991,-7.778761387,6.172252178,-768.1777777777778,-281.3777777777778,-1215.3777777777775,-8254.58888888889,1515.6777777777777,1599.9333333333334,4
2024-06-15 12:29:07,-0.02443460934,0.02443460934,-0.006108652335,2.255337954,-7.520187378,6.361393929,-453.75,-605.125,-1465.465909090909,-8131.431818181818,1153.7613636363635,1688.3068181818182,4
2024-06-15 12:29:07,-0.02443460934,0.02443460934,-0.006108652335,2.255337954,-7.520187378,6.361393929,-59.03370786516854,-1149.9325842696628,-2254.2808988764045,-8171.23595505618,787.0,1850.3595505617973,4
2024-06-15 12:29:07,0.07819075137,0.00122173049,-0.003665191587,2.133233786,-7.546523571,6.301538944,990.2558139534884,-500.1046511627907,-1500.546511627907,-8098.418604651163,40.62790697674421,2098.9767441860463,4
2024-06-15 12:29:08,-0.03298672289,0.03909537569,-0.00122173049,2.185906172,-7.620744228,6.227318764,1796.8,-168.64444444444445,-1323.7333333333331,-8127.044444444445,-21.31111111111111,2109.911111111111,4
2024-06-15 12:29:08,-0.03298672289,0.03909537569,-0.00122173049,2.185906172,-7.620744228,6.227318764,1244.75,-177.36363636363637,-1036.25,-8159.568181818182,179.9318181818182,1853.9318181818185,4
2024-06-15 12:29:08,0.02076941915,0.007330383174,-0.004886921961,2.15478158,-7.541735172,6.311115742,-1400.632183908046,-428.7126436781609,742.9080459770115,-8277.425287356322,-355.3793103448276,2276.8390804597702,4
2024-06-15 12:29:08,0.0171042271,0.003665191587,0.01588249579,2.118868589,-7.65186882,6.263231754,-530.0439560439561,-370.5384615384616,-594.7142857142857,-8180.659340659341,-172.0989010989011,2202.8901098901097,4
2024-06-15 12:29:08,0.0171042271,0.003665191587,0.01588249579,2.118868589,-7.65186882,6.263231754,265.2093023255814,207.81395348837208,-137.95348837209303,-8259.32558139535,-240.11627906976744,2425.232558139535,4
2024-06-15 12:29:08,-0.1429424733,0.03054326214,0.0415388383,1.855506301,-7.529764175,6.260837555,-14.715909090909092,505.7840909090909,528.9659090909091,-8163.556818181818,-267.5113636363636,2299.7727272727275,4
2024-06-15 12:29:08,-0.1429424733,0.03054326214,0.0415388383,1.855506301,-7.529764175,6.260837555,-407.0,1427.5,2794.0,-8173.75,408.0,1879.5,4
2024-06-15 12:29:08,-0.00122173049,-0.00122173049,-0.006108652335,2.475604534,-7.783549786,5.899312973,-678.7292817679559,1270.46408839779,2535.806629834254,-8539.674033149171,432.0055248618785,1824.0552486187848,4
2024-06-15 12:29:08,0.1136209369,-0.03909537569,-0.07819075137,2.111685991,-7.697358608,6.095637321,-818.5082872928176,1059.414364640884,2607.0773480662983,-8485.53038674033,541.3977900552486,1817.9779005524863,4
2024-06-15 12:29:08,0.1136209369,-0.03909537569,-0.07819075137,2.111685991,-7.697358608,6.095637321,-578.5625,168.4375,215.375,-8172.625,1332.1875,1544.375,4
2024-06-15 12:29:09,0.248011291,-0.1087340117,-0.02443460934,2.147598982,-7.845798969,6.040570736,-221.2808988764045,30.62921348314609,-127.8876404494382,-8124.101123595506,1043.0224719101125,1587.3932584269662,4
2024-06-15 12:29:09,0.05619960278,-0.05986479297,-0.03787364438,2.11647439,-7.17063427,6.555324078,129.61797752808988,-144.74157303370785,-437.370786516854,-8231.337078651686,992.5505617977528,1609.2921348314608,4
2024-06-15 12:29:09,0.05619960278,-0.05986479297,-0.03787364438,2.11647439,-7.17063427,6.555324078,-365.4772727272728,-149.72727272727272,-490.02272727272725,-8427.09090909091,909.931818181818,1628.7272727272727,4
2024-06-15 12:29:09,0.05253441259,-0.09407325089,-0.05864306539,2.487575531,-7.376535416,6.275202751,511.57954545454544,-575.3181818181819,-957.5454545454544,-8457.886363636364,779.7272727272727,1470.590909090909,4
2024-06-15 12:29:09,0.05253441259,-0.09407325089,-0.05864306539,2.487575531,-7.376535416,6.275202751,-347.80232558139534,-257.9186046511628,-377.3139534883721,-8226.03488372093,619.0697674418604,1473.5697674418604,4
2024-06-15 12:29:09,0.1075122803,-0.003665191587,-0.01954768784,2.683900118,-7.235277653,6.500257492,-691.2471910112359,25.04494382022472,-309.9887640449438,-8254.85393258427,597.876404494382,1492.426966292135,4
2024-06-15 12:29:09,-0.2333505303,0.1441642046,0.09162978828,2.075772762,-7.580042362,6.512228489,-602.75,-520.625,-269.625,-8166.875,620.0,1878.25,4
2024-06-15 12:29:09,-0.2333505303,0.1441642046,0.09162978828,2.075772762,-7.580042362,6.512228489,-221.18604651162792,-344.74418604651163,-297.62790697674416,-8169.418604651163,211.02325581395348,1726.7674418604652,4
2024-06-15 12:29:09,0.1185078546,-0.08185594529,-0.04031710699,2.327163935,-7.484274387,6.212953568,90.55421686746988,24.674698795180724,-225.53012048192767,-8159.0,230.4578313253012,1888.6506024096384,4
2024-06-15 12:29:09,-0.04886921868,0.06475171447,0.01832595654,2.379836559,-7.469909191,6.476315498,35.46666666666667,17.42222222222222,-262.9555555555555,-8173.222222222223,222.7555555555556,1770.5333333333333,4
2024-06-15 12:29:10,-0.04886921868,0.06475171447,0.01832595654,2.379836559,-7.469909191,6.476315498,-261.0,-212.7764705882353,-76.29411764705883,-8400.623529411765,263.6,2030.894117647059,4
2024-06-15 12:29:10,0.09896016866,-0.00244346098,0.01221730467,2.296039343,-7.556100368,6.35421133,-18.94505494505495,-374.7032967032967,13.681318681318686,-8128.846153846154,506.9230769230769,2069.879120879121,4
2024-06-15 12:29:10,0.09896016866,-0.00244346098,0.01221730467,2.296039343,-7.556100368,6.35421133,-338.7243243243243,-292.8540540540541,-568.2918918918919,-8108.627027027027,132.96756756756756,2095.162162162162,4
2024-06-15 12:29:10,-0.07819075137,0.02809980139,-0.00122173049,2.152387381,-7.563282967,6.323086739,-229.5351351351352,-287.9891891891892,-578.0216216216216,-8096.194594594594,131.8864864864865,2100.5675675675675,4
2024-06-15 12:29:10,0.00122173049,-0.0171042271,-0.00122173049,2.427720547,-7.534552574,6.366182327,-754.6178343949044,-191.0955414012739,-410.2165605095541,-8106.248407643312,-79.96815286624204,1976.0,4
2024-06-15 12:29:10,0.00122173049,-0.0171042271,-0.00122173049,2.427720547,-7.534552574,6.366182327,-727.2292993630573,-322.9426751592357,-549.0700636942674,-8089.050955414013,63.980891719745216,1976.0,4
2024-06-15 12:29:10,-0.05619960278,0.0354301855,0.03176499158,2.161964178,-7.639897823,6.344634533,1582.0555555555557,173.7111111111111,-126.04444444444444,-8179.011111111111,-262.5444444444444,2339.8555555555554,4
2024-06-15 12:29:10,-0.00244346098,0.003665191587,0.006108652335,2.217030764,-7.51300478,6.399701118,74.61363636363637,958.9090909090908,2087.818181818182,-8310.136363636364,-56.40909090909091,2088.340909090909,4
2024-06-15 12:29:10,-0.00244346098,0.003665191587,0.006108652335,2.217030764,-7.51300478,6.399701118,933.9880952380952,687.2261904761905,1324.202380952381,-8356.0,540.3809523809524,1850.809523809524,4
2024-06-15 12:29:10,-0.05375614017,0.02809980139,0.01221730467,2.073378563,-7.697358608,6.284779549,583.8314606741574,262.0674157303371,572.5393258426966,-8538.640449438202,1018.5617977528092,1611.1460674157304,4
2024-06-15 12:29:11,-0.05375614017,0.02809980139,0.01221730467,2.073378563,-7.697358608,6.284779549,-316.64044943820227,-251.59550561797755,-155.92134831460675,-8471.280898876405,991.9325842696628,1615.8426966292134,4
2024-06-15 12:29:11,-0.05742133409,0.01954768784,0.0,2.195482969,-7.501033783,6.31829834,-287.0,-68.0,341.5,-8191.5,706.0,1451.0,4
2024-06-15 12:29:11,0.03298672289,0.0,-0.004886921961,2.245761156,-7.565677166,6.31829834,-41.46153846153846,-53.84615384615385,2.7692307692307665,-8187.615384615385,733.6923076923077,1612.3076923076924,4
2024-06-15 12:29:11,0.03298672289,0.0,-0.004886921961,2.245761156,-7.565677166,6.31829834,-72.9438202247191,-6.966292134831459,-226.2584269662921,-8463.41573033708,682.056179775281,1421.426966292135,4
2024-06-15 12:29:11,0.004886921961,0.0171042271,0.01221730467,2.255337954,-7.486668587,6.363788128,-426.3,-343.0333333333333,-242.4333333333333,-8392.433333333332,643.8,1514.8666666666666,4
2024-06-15 12:29:11,-0.05253441259,0.01466076635,0.01588249579,2.032677174,-7.635109425,6.263231754,-518.6551724137931,-739.3793103448276,-1198.7931034482758,-8470.620689655172,581.2413793103449,1875.1379310344828,4
2024-06-15 12:29:11,-0.05253441259,0.01466076635,0.01588249579,2.032677174,-7.635109425,6.263231754,-252.896551724138,-453.4827586206897,-837.9655172413793,-8123.724137931034,161.68965517241378,1934.0344827586207,4
2024-06-15 12:29:11,-0.07452555746,0.02443460934,0.0171042271,2.303221941,-7.505822182,6.246472359,82.88297872340425,-46.29787234042553,78.54255319148936,-8246.404255319148,199.60638297872345,1872.382978723404,4
2024-06-15 12:29:11,-0.07452555746,0.02443460934,0.0171042271,2.303221941,-7.505822182,6.246472359,778.320987654321,202.80246913580248,573.8765432098766,-8273.148148148148,290.7654320987654,2137.1728395061727,4
2024-06-15 12:29:11,0.0293215327,-0.004886921961,0.01588249579,1.977610588,-7.931990147,6.105214119,263.6,322.4222222222222,237.2,-8466.077777777778,394.5777777777778,1773.7555555555557,4
2024-06-15 12:29:12,0.09285151958,-0.02443460934,-0.04398229718,2.121262789,-7.412448406,6.335057735,-256.25,-573.8863636363636,-187.8636363636364,-8523.204545454546,476.4090909090909,2048.5227272727275,4
2024-06-15 12:29:12,0.09285151958,-0.02443460934,-0.04398229718,2.121262789,-7.412448406,6.335057735,-146.15686274509804,-586.8888888888889,-199.1307189542484,-8130.104575163398,224.86274509803923,2152.8823529411766,4
2024-06-15 12:29:12,0.1123992056,-0.05986479297,-0.06475171447,2.248155355,-7.419631004,6.378153324,-250.078431372549,-609.1111111111111,-202.3986928104575,-8132.718954248366,446.4313725490196,1999.9411764705883,4
2024-06-15 12:29:12,-0.06230825558,0.02443460934,0.008552113548,2.480392933,-7.35977602,6.404489517,26.280898876404493,-38.34831460674158,328.2584269662921,-8187.483146067416,481.0337078651685,1960.1685393258424,4
2024-06-15 12:29:12,-0.06230825558,0.02443460934,0.008552113548,2.480392933,-7.35977602,6.404489517,1079.340909090909,-371.8409090909091,148.61363636363637,-8158.363636363636,346.4318181818182,1941.8181818181813,4
2024-06-15 12:29:12,-0.02199114859,0.02565634064,0.02565634064,2.248155355,-7.479485989,6.375759125,1346.0224719101125,-349.43820224719104,29.730337078651672,-8090.38202247191,665.8876404494382,1965.8426966292127,4
2024-06-15 12:29:12,-0.02199114859,0.02565634064,0.02565634064,2.248155355,-7.479485989,6.375759125,710.1609195402299,82.54022988505747,533.6436781609195,-8115.16091954023,710.0919540229885,2345.436781609196,4
2024-06-15 12:29:12,-0.06475171447,0.03665191308,0.0232128799,2.133233786,-7.54891777,6.349422932,732.978021978022,194.53846153846155,1527.1208791208792,-8284.318681318682,740.2527472527472,2308.813186813187,4
2024-06-15 12:29:12,0.02443460934,-0.006108652335,-0.007330383174,2.22900176,-7.515398979,6.363788128,-3.6590909090909065,357.9318181818182,344.88636363636374,-8291.386363636364,1021.5,2056.1136363636365,4
2024-06-15 12:29:13,0.0171042271,-0.01221730467,-0.003665191587,2.23139596,-7.477091789,6.270414352,-295.2282608695652,-238.7934782608696,269.8369565217391,-8254.29347826087,1239.2608695652175,1965.0108695652173,4
2024-06-15 12:29:13,0.0171042271,0.004886921961,-0.01588249579,2.252943754,-7.592013359,6.416460514,-1413.428571428571,268.7142857142857,-147.92857142857144,-8253.142857142857,1220.5,1980.857142857143,4
2024-06-15 12:29:13,0.0171042271,0.004886921961,-0.01588249579,2.252943754,-7.592013359,6.416460514,-2632.7333333333336,69.53333333333333,-1636.5,-8234.5,1276.5666666666666,2091.833333333333,4
2024-06-15 12:29:13,-0.07819075137,0.05864306539,0.0354301855,2.276885748,-7.405265808,6.327875137,-3314.0666666666666,-56.18888888888889,-1725.3777777777775,-8175.677777777778,702.7888888888889,2076.555555555556,4
2024-06-15 12:29:13,-0.07819075137,0.05864306539,0.0354301855,2.276885748,-7.405265808,6.327875137,-2492.046511627907,-173.25581395348837,-844.7674418604652,-8154.883720930233,-139.7325581395349,2391.3372093023254,4
2024-06-15 12:29:13,-0.006108652335,-0.004886921961,0.01466076635,2.123656988,-7.481880188,6.186617374,-1263.391304347826,194.17391304347825,-628.9130434782609,-8491.478260869566,-226.0434782608696,2268.7391304347825,4
2024-06-15 12:29:13,0.106290549,-0.5791002512,-0.5668829679,1.877054095,-8.307879448,6.411672115,-131.65517241379314,248.42528735632183,-448.3908045977012,-8172.6551724137935,-538.5402298850574,2110.9540229885056,4
2024-06-15 12:29:13,0.106290549,-0.5791002512,-0.5668829679,1.877054095,-8.307879448,6.411672115,-144.80838323353294,224.5988023952096,-447.4131736526946,-8157.604790419162,-383.9161676646706,1997.760479041916,4
2024-06-15 12:29:13,2.668259382,-0.9615018964,0.1808161139,4.953603268,-5.997475147,6.617573261,-803.2988505747127,-98.34482758620688,185.29885057471265,-8184.0114942528735,-232.54022988505747,2107.0689655172414,4
2024-06-15 12:29:13,-0.2113593817,0.1624901593,0.196698606,3.67988801,-6.215347767,8.066065788,-480.9213483146068,260.5842696629214,715.0112359550562,-8290.202247191011,-278.5842696629214,2109.516853932584,4
2024-06-15 12:29:14,-0.2113593817,0.1624901593,0.196698606,3.67988801,-6.215347767,8.066065788,-271.82954545454544,472.5,391.7272727272728,-8243.65909090909,26.306818181818183,1815.4886363636365,4
2024-06-15 12:29:14,3.016452551,-0.6707300544,0.5522221923,5.171475887,-1.467645645,9.169792175,-859.494623655914,500.97849462365593,410.8279569892473,-8472.075268817205,-52.12903225806451,1852.064516129032,4
2024-06-15 12:29:14,-1.787391663,0.1710422635,-0.3982841372,2.990357876,-6.428431511,8.010998726,-733.939024390244,557.3414634146342,248.4878048780488,-8471.353658536585,124.4878048780488,1659.6341463414633,4
2024-06-15 12:29:14,-1.787391663,0.1710422635,-0.3982841372,2.990357876,-6.428431511,8.010998726,176.64444444444445,404.9555555555556,337.5888888888889,-8298.944444444445,284.74444444444447,1483.0,4
2024-06-15 12:29:14,-0.4728097022,0.2492330223,0.03665191308,3.840299606,-3.629609823,8.032546997,372.7415730337079,520.1797752808989,498.685393258427,-8385.370786516854,242.2696629213483,1543.1685393258426,4
2024-06-15 12:29:14,-0.4728097022,0.2492330223,0.03665191308,3.840299606,-3.629609823,8.032546997,-150.1590909090909,722.784090909091,957.4431818181818,-8486.102272727272,428.0568181818182,1186.909090909091,4
2024-06-15 12:29:14,0.09529497474,-0.05986479297,-0.03909537569,3.481169224,-5.42765522,8.152256966,-425.82758620689657,389.1724137931034,1221.2068965517242,-8543.586206896553,863.2413793103449,1334.0344827586207,4
2024-06-15 12:29:14,0.8527678847,-0.2260201424,0.0232128799,4.520252705,-3.222595453,8.281543732,-296.9130434782609,109.3913043478261,-36.0,-8190.0,1115.3478260869565,1027.6521739130435,4
2024-06-15 12:29:14,0.8527678847,-0.2260201424,0.0232128799,4.520252705,-3.222595453,8.281543732,-29.471910112359552,-22.04494382022472,-333.30337078651684,-8187.70786516854,1136.2359550561798,1292.7640449438202,4
2024-06-15 12:29:14,0.141720742,0.003665191587,-0.1209513173,4.175487995,-2.523488522,8.808267593,79.72413793103448,-194.82758620689657,-486.5172413793104,-8145.758620689655,1137.896551724138,1302.344827586207,4
2024-06-15 12:29:15,0.141720742,0.003665191587,-0.1209513173,4.175487995,-2.523488522,8.808267593,-57.03488372093023,78.76744186046511,-156.36046511627907,-8175.290697674419,743.4767441860465,1393.8023255813953,4
2024-06-15 12:29:15,0.2064724565,-0.09162978828,0.04031710699,3.845088005,-4.350264549,8.635885239,52.56043956043956,-289.83516483516485,-375.6263736263736,-8431.021978021978,735.0879120879121,1168.2637362637363,4
2024-06-15 12:29:15,-0.1808161139,0.01832595654,0.0232128799,4.572925091,-3.672705412,8.279149055,-81.70588235294117,-259.7058823529412,-202.58823529411765,-8494.176470588236,597.1176470588235,1191.4117647058824,4
2024-06-15 12:29:15,-0.1808161139,0.01832595654,0.0232128799,4.572925091,-3.672705412,8.279149055,-279.20454545454544,-181.01136363636363,-689.3636363636364,-8226.829545454546,478.8409090909091,1210.4886363636365,4
2024-06-15 12:29:15,-0.2186897546,0.1685988009,-0.04520402849,4.106055737,-3.770867586,8.288725853,-297.3353293413174,-23.868263473053887,-336.5329341317365,-8152.988023952096,408.4850299401198,1221.5988023952095,4
2024-06-15 12:29:15,-0.02076941915,-0.0109955743,-0.03176499158,3.974374771,-4.122815132,8.154650688,-160.0,87.0,155.0,-8182.0,590.5,1242.0,4
2024-06-15 12:29:15,-0.02076941915,-0.0109955743,-0.03176499158,3.974374771,-4.122815132,8.154650688,-64.78651685393258,-61.80898876404494,-188.91011235955057,-8327.393258426966,481.46067415730334,1248.8202247191011,4
2024-06-15 12:29:15,0.05986479297,-0.009773843922,-0.07330382615,4.472368717,-4.039018154,8.24802494,328.0888888888889,-347.4888888888889,-510.4333333333333,-8512.077777777778,556.2,1272.1555555555556,4
2024-06-15 12:29:15,0.05986479297,-0.009773843922,-0.07330382615,4.472368717,-4.039018154,8.24802494,857.453488372093,-607.2325581395348,-1096.9418604651162,-8505.441860465116,556.0697674418604,1550.5,4
2024-06-15 12:29:15,0.01466076635,-0.1441642046,-0.1172861308,3.627215624,-4.012681961,8.231265068,761.5555555555555,-402.1111111111111,-769.3555555555556,-8392.08888888889,184.9777777777778,1577.5555555555557,4
2024-06-15 12:29:16,-0.08429940045,-0.00244346098,0.0171042271,4.618414879,-3.60566783,8.027758598,466.4494382022472,-364.7752808988764,141.42696629213484,-8158.38202247191,199.87640449438203,1474.426966292135,4
2024-06-15 12:29:16,-0.08429940045,-0.00244346098,0.0171042271,4.618414879,-3.60566783,8.027758598,-119.30232558139534,65.09302325581396,803.2325581395348,-8093.046511627907,332.2325581395349,1868.1627906976744,4
2024-06-15 12:29:16,-0.9431759119,0.393397212,0.1001819,4.625597477,-4.970362663,8.315062523,-89.77272727272727,-480.9545454545455,-319.93181818181813,-8429.272727272728,589.8636363636364,1594.9545454545455,4
2024-06-15 12:29:16,-0.7867944241,0.3677408695,0.1319468915,3.155557871,-6.390124321,7.314286232,-364.0112359550562,-251.7303370786517,253.3258426966292,-8246.011235955057,487.3932584269663,1752.6179775280898,4
2024-06-15 12:29:16,-0.7867944241,0.3677408695,0.1319468915,3.155557871,-6.390124321,7.314286232,207.1685393258427,75.49438202247191,598.6067415730338,-8176.303370786517,783.8314606741573,1865.2696629213483,4
2024-06-15 12:29:16,-0.106290549,0.06475171447,0.04764748737,2.846705914,-6.133944988,7.486668587,763.0112359550562,-177.47191011235955,568.4157303370787,-8173.213483146067,679.5955056179776,1700.2247191011236,4
2024-06-15 12:29:16,-0.106290549,0.06475171447,0.04764748737,3.239354849,-6.143521786,7.256825447,847.672131147541,-618.2131147540983,-276.40983606557376,-8101.049180327869,788.9016393442623,1765.983606557377,4
2024-06-15 12:29:16,0.009773843922,-0.0354301855,-0.02687807009,3.239354849,-6.143521786,7.256825447,744.0,-526.4545454545455,-282.44444444444446,-8141.292929292929,1014.6565656565656,1851.010101010101,4
2024-06-15 12:29:16,0.01832595654,0.003665191587,-0.00122173049,3.411737442,-6.138733387,7.189787865,-111.4074074074074,-471.2962962962963,-86.74074074074073,-8244.962962962964,855.3333333333334,2027.2222222222224,4
2024-06-15 12:29:16,0.01832595654,0.003665191587,-0.00122173049,3.411737442,-6.138733387,7.189787865,-236.97777777777776,-278.76666666666665,-3.333333333333336,-8089.011111111111,764.7333333333333,1973.388888888889,4
2024-06-15 12:29:17,0.03176499158,0.01221730467,0.00244346098,3.241749048,-6.138733387,7.189787865,174.16149068322983,-275.7391304347826,-236.3664596273292,-8104.894409937888,775.6149068322982,2198.801242236025,4
2024-06-15 12:29:17,-0.1221730486,0.08185594529,0.03665191308,3.167528868,-6.20337677,7.237671852,224.472049689441,-271.39130434782606,-254.37888198757764,-8091.229813664596,678.72049689441,1990.726708074534,4
2024-06-15 12:29:17,-0.1221730486,0.08185594529,0.03665191308,3.167528868,-6.20337677,7.237671852,-9.707865168539328,-224.9438202247191,-24.51685393258427,-8105.651685393258,740.6179775280899,1941.808988764045,4
2024-06-15 12:29:17,-0.07086037099,0.007330383174,0.01588249579,3.038241863,-6.378153324,7.161057472,-610.5111111111111,-332.1555555555556,425.4222222222222,-8249.577777777778,1049.4666666666667,1987.2,4
2024-06-15 12:29:17,-0.07086037099,0.007330383174,0.01588249579,3.038241863,-6.378153324,7.161057472,-347.24418604651163,-178.5,-521.4069767441861,-8081.395348837209,1042.7558139534883,2018.9186046511627,4
2024-06-15 12:29:17,0.07574728876,-0.1160643995,-0.08918632567,3.143586874,-6.533776283,7.026981831,-151.30769230769232,-340.61538461538464,-586.1538461538462,-8269.76923076923,743.8461538461538,2070.230769230769,4
2024-06-15 12:29:17,0.06352998316,0.06108652428,0.0171042271,3.471592426,-6.272808552,7.000645638,-461.8,-287.0705882352941,-264.3176470588235,-8310.564705882352,446.9294117647059,2200.6117647058823,4
2024-06-15 12:29:17,0.06352998316,0.06108652428,0.0171042271,3.471592426,-6.272808552,7.000645638,-54.826086956521735,-151.76086956521738,-398.8913043478261,-8312.304347826086,434.5652173913044,2215.521739130435,4
2024-06-15 12:29:17,0.03787364438,0.05986479297,0.04642575979,3.129221678,-6.138733387,7.362170219,78.01098901098901,18.35164835164835,-362.4945054945055,-8310.307692307691,435.7142857142857,2311.21978021978,4
2024-06-15 12:29:17,-0.08063421398,-0.0171042271,-0.004886921961,2.964021683,-6.404489517,7.149086475,-315.685393258427,-75.92134831460675,23.26966292134832,-8216.741573033707,425.4494382022472,2317.876404494382,4
2024-06-15 12:29:18,-0.08063421398,-0.0171042271,-0.004886921961,2.964021683,-6.404489517,7.149086475,-68.36904761904762,-23.642857142857142,-222.73809523809524,-8171.035714285715,421.1666666666667,2416.9761904761904,4
2024-06-15 12:29:18,-0.04398229718,-0.01588249579,-0.01588249579,3.292027235,-6.617573261,7.036558628,-291.3736263736264,45.43956043956044,-770.8681318681319,-8099.615384615385,433.2307692307692,2341.978021978022,4
2024-06-15 12:29:18,-0.04398229718,-0.01588249579,-0.01588249579,3.167528868,-6.332663536,7.158663273,97.91954022988506,-354.45977011494256,-1350.425287356322,-8178.632183908046,534.7126436781609,2423.5632183908046,4
2024-06-15 12:29:18,0.06841690838,0.03909537569,-0.00122173049,3.167528868,-6.332663536,7.158663273,-38.03370786516854,-311.40449438202245,-379.685393258427,-8266.719101123595,273.8314606741573,2628.123595505618,4
2024-06-15 12:29:18,-0.07330382615,0.03665191308,0.02199114859,2.870647907,-6.251260757,7.345410824,114.76744186046513,69.11627906976744,-300.30232558139534,-8090.604651162791,-93.48837209302326,2629.232558139535,4
2024-06-15 12:29:18,-0.07330382615,0.03665191308,0.02199114859,2.870647907,-6.251260757,7.345410824,-82.48863636363636,67.73863636363637,20.25,-8128.375,112.73863636363636,2602.375,4
2024-06-15 12:29:18,-0.01343903504,-0.03176499158,-0.0354301855,3.253720045,-6.452373505,6.981492043,-37.31137724550898,614.1616766467066,273.23353293413174,-8261.91017964072,-44.23353293413174,2430.604790419162,4
2024-06-15 12:29:18,0.02076941915,0.0354301855,0.01466076635,3.181894064,-6.421248913,7.058106422,-59.46706586826348,623.7425149700599,264.8502994011976,-8134.365269461078,-35.8502994011976,2429.4071856287424,4
2024-06-15 12:29:18,0.02076941915,0.0354301855,0.01466076635,3.181894064,-6.421248913,7.058106422,-48.82758620689656,-15.89655172413793,-365.5172413793104,-8132.551724137931,71.06896551724137,2364.310344827586,4
2024-06-15 12:29:18,0.01588249579,0.04398229718,0.009773843922,3.021482468,-6.210559368,7.12993288,-44.38636363636364,-197.75,-1015.3522727272727,-8107.431818181818,-72.67045454545455,2346.784090909091,4
2024-06-15 12:29:19,0.01588249579,0.04398229718,0.009773843922,3.021482468,-6.210559368,7.12993288,-339.3255813953489,-6.558139534883708,-10.395348837209326,-8232.558139534884,-71.83720930232559,2376.7441860465115,4
2024-06-15 12:29:19,-0.09285151958,-0.01343903504,0.00244346098,2.746149302,-6.459556103,7.175422668,29.67045454545456,727.3522727272727,1078.443181818182,-8310.977272727272,-90.6931818181818,2344.9886363636365,4
2024-06-15 12:29:19,0.02076941915,-0.06108652428,-0.0354301855,3.277662039,-6.586448669,6.921637058,604.5,1098.7906976744189,1109.2093023255811,-8151.011627906977,520.453488372093,2048.8255813953488,4
2024-06-15 12:29:19,0.02076941915,-0.06108652428,-0.0354301855,3.277662039,-6.586448669,6.921637058,484.3076923076923,1034.6153846153843,494.61538461538464,-8240.461538461539,770.3846153846154,1783.3076923076924,4
2024-06-15 12:29:19,0.05864306539,0.06352998316,0.02687807009,3.239354849,-6.50983429,7.101202011,-344.5333333333333,517.4,451.1333333333333,-8506.288888888888,1037.6888888888889,1607.9555555555555,4
2024-06-15 12:29:19,0.0109955743,0.07330382615,0.02809980139,2.851494312,-6.16506958,7.381323814,-566.6395348837209,-16.581395348837212,220.77906976744185,-8486.511627906977,915.8837209302326,1357.186046511628,4
2024-06-15 12:29:19,0.0109955743,0.07330382615,0.02809980139,2.851494312,-6.16506958,7.381323814,-1038.3793103448277,-478.91954022988506,325.98850574712645,-8325.367816091954,1127.9310344827586,1416.5172413793102,4
2024-06-15 12:29:19,0.02565634064,-0.08674286306,-0.0293215327,2.834734917,-6.4691329,7.134721279,-671.7727272727273,-241.27272727272728,-660.9545454545455,-8153.636363636364,907.0909090909092,1513.909090909091,4
2024-06-15 12:29:19,0.02565634064,-0.08674286306,-0.0293215327,2.834734917,-6.4691329,7.134721279,-591.9418604651163,-557.0581395348837,-865.8372093023256,-8156.116279069767,780.5232558139535,1508.3372093023256,4
2024-06-15 12:29:19,-0.09651670605,0.01954768784,-0.00122173049,3.34230566,-6.679822922,6.912060261,-561.1724137931035,-13.586206896551744,-76.68965517241378,-8085.3448275862065,512.3103448275863,1672.9655172413793,4
2024-06-15 12:29:20,0.287106663,-0.1624901593,-0.04398229718,3.165134668,-6.301538944,7.070077419,-263.8181818181818,251.02272727272725,-82.02272727272728,-8169.818181818182,440.7045454545455,1782.909090909091,4
2024-06-15 12:29:20,0.287106663,-0.1624901593,-0.04398229718,3.165134668,-6.301538944,7.070077419,-23.955056179775283,340.35955056179773,586.2696629213483,-8187.247191011236,887.438202247191,1804.76404494382,4
2024-06-15 12:29:20,0.03176499158,0.01466076635,-0.006108652335,3.016694069,-6.308721542,7.223306656,352.78205128205127,317.06410256410254,443.8974358974359,-8459.73076923077,753.4871794871794,1774.128205128205,4
2024-06-15 12:29:20,-0.1502728462,0.0720821023,0.02443460934,3.224989653,-6.643909931,7.019799232,372.6538461538461,281.8076923076923,600.3076923076924,-8307.807692307691,935.5384615384615,1603.6153846153843,4
2024-06-15 12:29:20,-0.1502728462,0.0720821023,0.02443460934,3.224989653,-6.643909931,7.019799232,-935.16091954023,907.9425287356322,-246.80459770114945,-8588.149425287356,923.1724137931036,1222.8850574712644,4
2024-06-15 12:29:20,0.09651670605,-0.008552113548,-0.004886921961,3.349488258,-6.148310184,7.180211067,-775.5869565217391,459.7391304347826,-253.98913043478265,-8657.380434782608,986.4782608695652,1351.3152173913045,4
2024-06-15 12:29:20,0.02443460934,0.02443460934,-0.004886921961,2.901772499,-6.351817131,7.225700855,327.1304347826087,-846.1304347826087,286.0434782608696,-8252.521739130434,1073.0,1765.5652173913045,4
2024-06-15 12:29:20,0.02443460934,0.02443460934,-0.004886921961,2.901772499,-6.351817131,7.225700855,262.0,-1421.6438356164383,-1072.13698630137,-7928.657534246576,1906.972602739726,1876.4794520547944,4
2024-06-15 12:29:20,-0.06352998316,0.0171042271,-0.00122173049,3.181894064,-6.239289761,7.065289021,-766.3555555555556,-856.6222222222223,-2750.488888888889,-7971.088888888888,1180.4,2085.4222222222224,4
2024-06-15 12:29:20,-0.06352998316,0.0171042271,-0.00122173049,3.181894064,-6.239289761,7.065289021,-495.1379310344828,136.18390804597698,-2760.7471264367814,-8105.3448275862065,308.72413793103453,1715.2758620689656,4
2024-06-15 12:29:21,-0.006108652335,0.02565634064,0.01343903504,3.138798475,-6.512228489,7.043741226,-559.6666666666666,1110.3333333333333,-1191.3333333333337,-8386.333333333334,-100.0,1606.3333333333333,4
2024-06-15 12:29:21,-0.004886921961,0.03298672289,0.009773843922,2.995146275,-6.442796707,7.046135426,258.6588235294118,167.69411764705882,413.2823529411765,-8523.258823529412,86.2,1442.8,4
2024-06-15 12:29:21,-0.004886921961,0.03298672289,0.009773843922,2.995146275,-6.442796707,7.046135426,223.6777777777777,215.94444444444449,150.5,-8492.788888888888,82.5,1574.4333333333334,4
2024-06-15 12:29:21,0.00244346098,-0.01466076635,-0.01221730467,2.913743496,-6.375759125,7.10359621,-68.56666666666666,-109.73333333333336,150.83333333333331,-8494.6,-16.533333333333335,1711.5666666666666,4
2024-06-15 12:29:21,0.00244346098,-0.01466076635,-0.01221730467,3.088520288,-6.567295074,7.024587631,-129.93333333333334,-1085.2666666666669,450.1777777777778,-8416.477777777778,141.27777777777777,2002.0333333333333,4
2024-06-15 12:29:21,-0.02443460934,0.00244346098,0.00122173049,3.088520288,-6.567295074,7.024587631,221.49438202247188,-1342.5393258426966,-244.9213483146067,-8351.449438202248,203.2134831460674,2040.8988764044943,4
2024-06-15 12:29:21,0.02809980139,0.02687807009,0.0,3.019088268,-6.449979305,7.026981831,730.367816091954,-962.1149425287356,-830.735632183908,-8274.735632183909,228.26436781609195,2302.977011494253,4
2024-06-15 12:29:21,0.02809980139,0.02687807009,0.0,3.019088268,-6.449979305,7.026981831,1352.1818181818182,-1042.5454545454545,-1676.0,-8235.272727272728,-325.9090909090909,2638.818181818182,4
2024-06-15 12:29:21,0.03665191308,0.0109955743,0.00244346098,2.952050686,-6.349422932,7.122750282,2015.3103448275865,-482.64367816091954,-1983.057471264368,-8204.643678160919,42.48275862068965,2418.5172413793102,4
2024-06-15 12:29:21,0.02687807009,-0.04276056588,-0.02076941915,2.987963676,-6.459556103,7.070077419,594.1818181818181,242.2840909090909,-1411.2272727272727,-8217.056818181818,-797.25,2658.329545454545,4
2024-06-15 12:29:22,0.02687807009,-0.04276056588,-0.02076941915,2.987963676,-6.459556103,7.070077419,247.0888888888889,344.6555555555556,-2027.8111111111111,-8272.288888888888,-653.7888888888889,2304.4222222222224,4
2024-06-15 12:29:22,0.00122173049,0.02076941915,0.0,3.114856482,-6.536170483,7.005434036,-232.4367816091954,-87.28735632183907,-1171.1264367816093,-8474.597701149425,-940.9885057471264,2349.735632183908,4
2024-06-15 12:29:22,0.00122173049,0.02076941915,0.0,2.920926094,-6.449979305,7.144298077,-652.375,-204.625,-717.75,-8365.125,-944.25,2191.5,4
2024-06-15 12:29:22,0.04276056588,0.007330383174,0.00122173049,2.920926094,-6.449979305,7.144298077,-927.159090909091,-1004.4204545454544,-2792.068181818182,-7444.159090909091,-2292.806818181818,3092.1022727272725,4
2024-06-15 12:29:22,-0.009773843922,-0.0171042271,-0.00244346098,2.968810081,-6.416460514,7.079654217,298.9213483146067,229.876404494382,-1987.0337078651685,-7778.91011235955,-1565.3258426966293,2739.561797752809,4
2024-06-15 12:29:22,-0.009773843922,-0.0171042271,-0.00244346098,2.968810081,-6.416460514,7.079654217,-281.17241379310343,1104.2068965517242,1210.1264367816093,-8072.298850574713,-1794.4597701149426,2363.1954022988507,4
