Timestamp,Gyro_x_x,Gyro_y_x,Gyro_z_x,Acc_x_x,Acc_y_x,Acc_z_x,Gyro_x_y,Gyro_y_y,Gyro_z_y,Acc_x_y,Acc_y_y,Acc_z_y,combined_action_num
2024-06-15 11:36:33,-0.04398229718,-0.00244346098,0.01588249579,-0.07900865376,0.9576807022,9.809044838,855.5795454545455,-784.2272727272727,1889.647727272728,-7957.579545454545,891.5795454545455,-2093.6363636363635,1
2024-06-15 11:36:33,-0.09040805697,0.003665191587,0.00122173049,0.0191536136,1.019929886,9.830592155,815.125,-674.0227272727273,1880.5568181818185,-7992.306818181818,1543.5227272727273,-1689.8522727272727,1
2024-06-15 11:36:33,-0.09040805697,0.003665191587,0.00122173049,0.0191536136,1.019929886,9.830592155,562.6966292134831,-685.6629213483146,1211.505617977528,-8036.011235955056,1939.629213483146,-1645.415730337079,1
2024-06-15 11:36:33,-0.04398229718,-0.009773843922,0.004886921961,-0.004788403399,0.9552865028,9.823410034,134.0,-746.8235294117646,1299.3529411764705,-7635.470588235294,1989.7058823529408,-1579.8823529411766,1
2024-06-15 11:36:33,-0.04398229718,-0.009773843922,0.004886921961,-0.004788403399,0.9552865028,9.823410034,96.2247191011236,-633.3483146067416,702.629213483146,-7627.640449438202,2254.258426966292,-1327.2696629213483,1
2024-06-15 11:36:33,-0.1747074574,0.05009094998,0.008552113548,0.02154781483,0.7422025204,9.809044838,82.33333333333333,-365.7011494252873,311.8735632183908,-7627.931034482759,2476.793103448276,-1353.103448275862,1
2024-06-15 11:36:33,-0.1747074574,-0.00244346098,-0.09896016866,-0.007182605099,0.85473001,9.701305389,-266.6744186046512,-377.7441860465116,-66.86046511627907,-7617.325581395349,2567.6046511627906,-1353.6511627906978,1
2024-06-15 11:36:33,-0.1747074574,-0.00244346098,-0.09896016866,-0.007182605099,0.85473001,9.701305389,-98.55172413793105,17.03448275862069,-75.13793103448276,-7963.620689655172,2540.103448275862,-1174.7931034482758,1
2024-06-15 11:36:34,-1.767843962,-0.05253441259,-0.5021312237,0.07900865376,1.261744261,9.133879662,-364.24444444444447,-571.3333333333334,43.06666666666666,-7690.2,2586.9777777777776,-1094.8,1
2024-06-15 11:36:34,-1.767843962,-0.05253441259,-0.5021312237,0.07900865376,1.261744261,9.133879662,192.11111111111111,-93.61111111111111,128.51388888888889,-7603.277777777777,2381.847222222222,-1065.9722222222222,1
2024-06-15 11:36:34,-3.181386232,0.8185594082,-0.2956587672,0.7709329724,-6.440402508,9.30386734,19.0,-191.0,196.0,-7631.0,2522.0,-1009.5,1
2024-06-15 11:36:34,-4.108679771,0.2028072625,0.779464066,-2.209848166,-7.35977602,0.9289502501,101.2,-70.53684210526316,14.031578947368422,-7722.263157894737,2524.2631578947367,-916.5368421052632,1
2024-06-15 11:36:34,-4.108679771,0.2028072625,0.779464066,-2.209848166,-7.35977602,0.9289502501,-194.3333333333333,-225.8333333333333,60.833333333333336,-7590.0,2666.0,-710.5,1
2024-06-15 11:36:34,-0.6120869517,-0.3323107064,-1.149648428,-0.8834604025,-10.12507915,1.400607944,-188.8333333333333,189.0,-103.83333333333331,-7746.611111111111,2749.055555555556,-793.7222222222222,1
2024-06-15 11:36:34,0.2003637999,-0.03298672289,-0.3445279896,0.08379705995,-12.13142014,-0.04309562966,-344.7865168539326,101.9438202247191,-80.97752808988764,-7786.595505617977,2710.865168539326,-964.8314606741573,1
2024-06-15 11:36:34,0.2003637999,-0.03298672289,-0.3445279896,0.08379705995,-12.13142014,-0.04309562966,-318.4659090909091,155.9318181818182,-322.375,-7634.647727272727,2527.693181818182,-941.4204545454544,1
2024-06-15 11:36:34,0.779464066,0.09407325089,0.141720742,0.3974374831,-9.411606789,1.036689281,-289.2857142857143,277.57142857142856,-3.0,-7876.571428571428,2479.0,-1087.857142857143,1
2024-06-15 11:36:34,0.779464066,0.09407325089,0.141720742,0.3974374831,-9.411606789,1.036689281,-27.60227272727272,-75.32954545454547,63.136363636363626,-7632.295454545455,2450.954545454545,-919.6363636363636,1
2024-06-15 11:36:35,-0.9150761366,0.1918116808,0.7452555895,-0.490811348,-10.43632507,2.243366957,-258.94117647058823,90.3294117647059,-73.29411764705883,-7613.329411764706,2822.788235294118,-940.964705882353,1
2024-06-15 11:36:35,-0.6194173694,-0.3787364662,-1.495398164,0.6224924326,-9.593565941,3.677493811,36.77272727272727,252.3181818181818,-54.86363636363636,-7689.363636363636,2559.090909090909,-920.6363636363636,1
2024-06-15 11:36:35,-0.6194173694,-0.3787364662,-1.495398164,0.6224924326,-9.593565941,3.677493811,47.91111111111111,49.51111111111111,-80.3111111111111,-7604.088888888888,2547.9333333333334,-982.3777777777776,1
2024-06-15 11:36:35,1.572367191,0.06108652428,-0.2174680233,0.8619126081,-8.729259491,3.45722723,-57.01149425287356,-320.735632183908,56.10344827586207,-7657.586206896552,2777.896551724138,-957.2413793103448,1
2024-06-15 11:36:35,0.3604104817,0.06108652428,-0.1783726513,0.5937620401,-9.634267807,2.834734917,20.359550561797747,-374.2921348314607,-100.5505617977528,-7590.7191011235955,2545.696629213483,-1014.7865168539324,1
2024-06-15 11:36:35,0.3604104817,0.06108652428,-0.1783726513,0.5937620401,-9.634267807,2.834734917,-74.65217391304347,-168.42391304347825,-65.90217391304347,-7597.369565217391,2710.293478260869,-1127.1739130434785,1
2024-06-15 11:36:35,0.05619960278,0.5082398653,0.5986479521,0.4405331016,-9.267954826,3.045424461,26.855172413793102,-368.88965517241377,-10.434482758620687,-7562.337931034483,2847.268965517241,-1036.3103448275865,1
2024-06-15 11:36:35,0.05619960278,0.5082398653,0.5986479521,0.4405331016,-9.267954826,3.045424461,-44.87096774193549,43.70967741935484,-47.80645161290322,-7580.677419354839,2926.903225806452,-1047.774193548387,1
2024-06-15 11:36:35,0.1209513173,-0.326202035,0.006108652335,1.039083481,-11.08275986,3.79480958,-109.73076923076924,-208.6153846153846,37.5,-7575.807692307692,2835.769230769231,-1108.7692307692307,1
2024-06-15 11:36:35,-0.1441642046,0.01588249579,0.1111774743,0.2561795712,-9.785101891,3.665522814,-142.6451612903226,74.19354838709677,-261.6774193548387,-7586.580645161291,2869.5806451612902,-1064.8387096774193,1
2024-06-15 11:36:36,-0.1441642046,0.01588249579,0.1111774743,0.2561795712,-9.785101891,3.665522814,-349.1630434782609,23.70652173913044,41.31521739130434,-7617.228260869565,2780.804347826087,-739.6630434782609,1
2024-06-15 11:36:36,-0.08063421398,0.07452555746,-0.02443460934,0.6679822803,-8.947132111,3.931279182,-236.19540229885047,15.310344827586206,-274.42528735632186,-7642.574712643678,2803.367816091954,-712.5632183908046,1
2024-06-15 11:36:36,-0.08063421398,0.07452555746,-0.02443460934,0.6871358752,-8.997409821,4.182670593,-342.1208791208791,55.175824175824175,104.75824175824177,-7770.054945054945,2755.285714285714,-669.8021978021978,1
2024-06-15 11:36:36,0.1808161139,-0.01832595654,-0.09040805697,0.6871358752,-8.997409821,4.182670593,-276.08045977011494,439.64367816091954,-229.05747126436785,-7528.643678160919,2919.5172413793102,-890.7011494252873,1
2024-06-15 11:36:36,0.2089159191,-0.04764748737,-0.09773843735,0.4620809257,-8.568847656,4.139574528,-506.0,803.0,-208.0,-7837.5,2763.0,-1324.0,1
2024-06-15 11:36:36,0.2089159191,-0.04764748737,-0.09773843735,0.4620809257,-8.568847656,4.139574528,-490.2608695652174,699.7391304347826,-194.08695652173915,-7799.260869565217,2829.782608695652,-1353.8260869565215,1
2024-06-15 11:36:36,0.08918632567,-0.01954768784,-0.06597344577,0.02154781483,-10.05804157,3.550601006,-201.4367816091954,286.2758620689655,-280.0574712643678,-7872.689655172414,2493.436781609196,-1310.3793103448277,1
2024-06-15 11:36:36,-0.1429424733,0.05375614017,0.1209513173,0.3878606856,-8.971074104,3.715801001,-130.38823529411764,-103.87058823529412,118.08235294117648,-7607.658823529412,2514.0941176470587,-1381.5058823529412,1
2024-06-15 11:36:36,-0.1429424733,0.05375614017,0.1209513173,0.3878606856,-8.971074104,3.715801001,-104.88888888888889,-2.0,-117.5,-7664.222222222223,2896.3888888888887,-1388.888888888889,1
2024-06-15 11:36:36,-0.09651670605,0.04642575979,0.1001819,0.4884171486,-8.987833023,4.007893562,-31.35955056179776,-84.62921348314607,62.662921348314605,-7621.067415730337,2566.0224719101125,-1345.0337078651685,1
2024-06-15 11:36:37,-0.09651670605,0.04642575979,0.1001819,0.4884171486,-8.987833023,4.007893562,-297.2528735632184,9.022988505747126,-39.58620689655172,-7774.873563218391,2857.2413793103447,-1339.1724137931035,1
2024-06-15 11:36:37,-0.05131268129,0.01954768784,0.0,0.6751648784,-8.678980827,3.945644379,-4.208791208791212,68.78021978021978,-271.3956043956044,-7710.813186813187,2596.5824175824177,-1302.3406593406594,1
2024-06-15 11:36:37,-0.04031710699,0.01832595654,0.008552113548,0.672770679,-8.803479195,3.907337189,-339.44370860927154,69.94701986754967,-100.02649006622516,-7622.907284768212,2861.735099337748,-1324.894039735099,1
2024-06-15 11:36:37,-0.04031710699,0.01832595654,0.008552113548,0.672770679,-8.803479195,3.907337189,-369.9072847682119,63.32450331125828,-103.33774834437088,-7761.317880794702,2828.6225165562914,-1311.6490066225165,1
2024-06-15 11:36:37,-0.03909537569,-0.1441642046,-0.1759291887,-0.181959331,-9.777919769,4.50109911,-182.0,56.0,-77.2,-7603.8,2873.6,-1259.4,1
2024-06-15 11:36:37,-0.2981022298,0.106290549,-0.1209513173,0.2585737705,-9.962273598,3.066972494,-14.235955056179776,-33.46067415730337,85.70786516853933,-7628.438202247191,2741.202247191012,-1228.1011235955057,1
2024-06-15 11:36:37,-0.2981022298,0.106290549,-0.1209513173,0.2585737705,-9.962273598,3.066972494,-12.07936507936508,-42.99470899470899,-4.825396825396823,-7659.465608465608,2844.671957671958,-1170.6296296296296,1
2024-06-15 11:36:37,-0.141720742,0.1123992056,0.07452555746,0.6967126727,-8.963891029,3.991134167,18.079365079365083,8.32804232804233,-111.17460317460316,-7775.867724867725,2862.661375661376,-1178.037037037037,1
2024-06-15 11:36:37,-0.141720742,0.1123992056,0.07452555746,0.6967126727,-8.963891029,3.991134167,-212.7191011235955,-121.8988764044944,9.808988764044944,-7748.483146067416,2898.1011235955057,-1332.3932584269662,1
2024-06-15 11:36:37,-0.08063421398,-0.05009094998,-0.06475171447,0.0,-9.971850395,3.840299606,-40.369565217391305,284.0652173913044,-78.1086956521739,-7595.282608695652,2892.695652173913,-1232.9130434782608,1
2024-06-15 11:36:38,0.1392772794,-0.007330383174,0.1282816976,0.3926490843,-9.385271072,4.086902142,-353.9638554216868,-87.89156626506025,-21.67469879518072,-7699.265060240964,3019.4457831325303,-1219.6265060240964,1
2024-06-15 11:36:38,0.1392772794,-0.007330383174,0.1282816976,0.3926490843,-9.385271072,4.086902142,-861.6136363636364,811.5454545454545,-552.0909090909091,-7346.431818181818,2939.0,-1299.5227272727273,1
2024-06-15 11:36:38,-0.05742133409,-0.08307767659,0.07452555746,0.6512228847,-10.58476543,3.828328609,-1131.0337078651685,1045.2921348314608,-413.7191011235955,-7673.842696629214,2896.112359550562,-1444.2696629213483,1
2024-06-15 11:36:38,-0.02076941915,0.01588249579,0.006108652335,0.1915361285,-8.937555313,3.82593441,-940.9894736842105,571.5052631578948,-439.4842105263158,-7611.663157894737,2500.6526315789474,-1553.221052631579,1
2024-06-15 11:36:38,-0.02076941915,0.01588249579,0.006108652335,0.1915361285,-8.937555313,3.82593441,-260.38461538461536,286.3076923076923,-98.53846153846156,-7640.923076923077,2479.846153846154,-1431.1538461538462,1
2024-06-15 11:36:38,-0.03787364438,0.08674286306,0.1221730486,0.3687070608,-9.119514465,3.919308186,34.0,-197.16666666666669,212.0,-7622.666666666667,2792.5,-1581.5,1
2024-06-15 11:36:38,-0.03787364438,0.08674286306,0.1221730486,0.3687070608,-9.119514465,3.919308186,-327.5652173913044,48.0,-290.0434782608696,-7424.913043478261,2465.608695652174,-1244.695652173913,1
2024-06-15 11:36:38,0.0,0.02199114859,-0.02443460934,0.4333505034,-8.927978516,3.785232782,42.80434782608695,358.80434782608694,118.5,-7715.869565217391,2517.6739130434785,-1451.5652173913045,1
2024-06-15 11:36:38,0.08185594529,-0.03787364438,-0.1087340117,0.1675941199,-9.212887764,4.319139957,-359.25,272.5,-26.08333333333333,-7590.75,2819.833333333333,-1523.1666666666667,1
2024-06-15 11:36:38,0.08185594529,-0.03787364438,-0.1087340117,0.1675941199,-9.212887764,4.319139957,-245.78846153846155,68.65384615384616,-226.7243589743589,-7681.134615384615,2587.782051282052,-1493.6794871794873,1
2024-06-15 11:36:39,0.01588249579,-0.04764748737,-0.1111774743,0.08858546615,-9.306262016,3.955221176,-877.5,1104.0,315.875,-7481.875,3126.75,-2053.5,1
2024-06-15 11:36:39,0.01588249579,-0.04764748737,-0.1111774743,-0.2250549644,-9.672574997,3.854664803,-5240.478260869565,2430.478260869565,405.1304347826087,-7261.086956521739,3364.521739130435,-2243.3478260869565,1
2024-06-15 11:36:39,0.05986479297,0.006108652335,0.08796459436,-0.2250549644,-9.672574997,3.854664803,-5703.686046511628,2608.7093023255816,-315.6860465116279,-7499.860465116279,2796.8255813953488,-1785.6627906976744,1
2024-06-15 11:36:39,-0.05253441259,0.05497787148,0.08063421398,0.4860229492,-9.136273384,4.05577755,-3109.314606741573,1842.1573033707864,-700.7303370786517,-7150.606741573034,3068.2696629213483,-1722.3932584269662,1
2024-06-15 11:36:39,-0.05253441259,0.05497787148,0.08063421398,0.4860229492,-9.136273384,4.05577755,-2014.3333333333333,1534.6666666666667,-636.6666666666666,-7246.0,3233.1666666666665,-2007.0,1
2024-06-15 11:36:39,-0.01588249579,-0.0293215327,-0.06841690838,0.5243301988,-9.11233139,3.804386616,-1057.1363636363635,738.8636363636364,-191.6818181818182,-7202.954545454545,3630.045454545456,-2333.181818181818,1
2024-06-15 11:36:39,0.09162978828,-0.04398229718,-0.08185594529,0.2968810201,-9.009381294,3.869029999,-151.88372093023256,769.5116279069767,-568.0232558139535,-6893.6511627906975,3647.0,-2408.1627906976746,1
2024-06-15 11:36:39,0.09162978828,-0.04398229718,-0.08185594529,0.2968810201,-9.009381294,3.869029999,271.7752808988764,473.14606741573033,-526.9550561797753,-7188.988764044944,3432.7078651685392,-2236.2921348314608,1
2024-06-15 11:36:39,-0.334754169,0.04520402849,-0.1514945775,0.3543418646,-9.047688484,4.216189384,486.8131868131868,547.1428571428571,-474.38461538461536,-7210.285714285715,3288.538461538461,-2335.318681318681,1
2024-06-15 11:36:39,-0.334754169,0.04520402849,-0.1514945775,0.3543418646,-9.047688484,4.216189384,1763.0697674418604,278.7906976744186,-195.06976744186045,-6847.46511627907,3092.0697674418607,-2726.0232558139537,1
2024-06-15 11:36:40,-0.03298672289,-0.02565634064,0.06352998316,0.6368576288,-9.569623947,3.711012602,2530.0,544.5,342.5,-6845.0,3138.5,-2737.5,1
2024-06-15 11:36:40,0.2076941878,-0.08674286306,-0.05009094998,0.3806780577,-9.016563416,3.722983599,2869.181818181818,193.88636363636363,-1.1590909090909065,-6950.488636363636,2824.6022727272725,-3193.965909090909,1
2024-06-15 11:36:40,0.2076941878,-0.08674286306,-0.05009094998,0.3806780577,-9.016563416,3.722983599,2240.1573033707864,220.7977528089888,-218.2696629213483,-6967.516853932584,2897.191011235955,-3425.921348314607,1
2024-06-15 11:36:40,0.06108652428,0.3543018401,0.228463605,0.7517793179,-9.655815125,6.145915985,973.5280898876404,-6.820224719101134,-192.5056179775281,-7002.70786516854,2454.887640449438,-3516.5955056179773,1
2024-06-15 11:36:40,-0.5351179838,-0.1307251602,-0.196698606,0.8044517636,-10.08437729,3.265691042,-197.4318181818182,335.54545454545456,-224.7159090909091,-6933.0,2286.068181818182,-3498.784090909091,1
2024-06-15 11:36:40,-0.5351179838,-0.1307251602,-0.196698606,0.8044517636,-10.08437729,3.265691042,-433.6315789473685,282.39473684210526,-477.5,-6981.815789473684,2185.815789473684,-3683.368421052632,1
2024-06-15 11:36:40,0.1050688252,-0.04642575979,-0.109955743,1.146822572,-8.487444878,4.228160381,174.74157303370785,51.056179775280896,-1535.0786516853932,-6654.29213483146,2518.449438202247,-3253.7078651685392,1
2024-06-15 11:36:40,0.1050688252,-0.04642575979,-0.109955743,1.146822572,-8.487444878,4.228160381,341.86046511627904,407.1627906976744,-2756.813953488372,-6460.697674418605,1506.5348837209303,-3385.3023255813955,1
2024-06-15 11:36:40,-0.0232128799,0.08185594529,0.02443460934,-0.1795651317,-8.702922821,4.060565948,523.4444444444445,1783.1666666666667,-2986.277777777778,-7069.388888888889,693.4444444444445,-3956.1111111111113,1
2024-06-15 11:36:40,0.4166100919,0.00244346098,-0.09285151958,0.7015010715,-8.978256226,4.228160381,-183.88636363636363,1411.340909090909,-1243.5227272727273,-6685.954545454545,641.7954545454545,-4615.954545454545,1
2024-06-15 11:36:41,0.4166100919,0.00244346098,-0.09285151958,0.7015010715,-8.978256226,4.228160381,-558.4555555555555,1377.7222222222222,-1160.8222222222223,-6555.5,286.7111111111111,-4798.255555555556,1
2024-06-15 11:36:41,-0.02565634064,0.2211332172,-0.2370157093,0.538695395,-8.621520042,2.731784105,-763.8068181818182,959.5909090909092,-754.2727272727273,-6636.318181818182,275.42045454545456,-4967.590909090909,1
2024-06-15 11:36:41,-0.1551597714,0.09773843735,0.08063421398,0.7326257229,-9.009381294,3.883395195,-538.5764705882353,445.4352941176471,-814.2117647058824,-6166.2,222.38823529411764,-4524.623529411765,1
2024-06-15 11:36:41,-0.1551597714,0.09773843735,0.08063421398,0.7326257229,-9.009381294,3.883395195,-610.6593406593406,661.3736263736264,-531.945054945055,-6058.32967032967,196.934065934066,-4766.197802197802,1
2024-06-15 11:36:41,0.1014036313,-0.04398229718,0.004886921961,0.141257897,-9.457097054,3.277662039,-601.7272727272727,228.3636363636364,-33.63636363636363,-6143.272727272727,546.7727272727273,-5069.863636363636,1
2024-06-15 11:36:41,0.1014036313,-0.04398229718,0.004886921961,0.141257897,-9.457097054,3.277662039,-505.37894736842105,196.2421052631579,-55.7578947368421,-6128.505263157895,540.6526315789474,-5074.2947368421055,1
2024-06-15 11:36:41,0.1527163088,-0.01221730467,0.06108652428,0.4812345505,-9.40681839,3.770867586,65.47191011235955,-163.3932584269663,83.65168539325843,-6106.359550561798,553.2808988764045,-5059.76404494382,1
2024-06-15 11:36:41,-0.08185594529,0.009773843922,-0.03665191308,0.383072257,-9.097966194,3.488351822,36.01190476190476,-219.0,88.91666666666667,-6110.511904761905,544.0,-4820.75,1
2024-06-15 11:36:41,-0.08185594529,0.009773843922,-0.03665191308,0.383072257,-9.097966194,3.488351822,14.829545454545457,53.67045454545455,216.1136363636364,-6147.852272727273,551.6704545454545,-4790.125,1
2024-06-15 11:36:41,-0.1270599663,0.03787364438,0.01588249579,0.9504981041,-8.70771122,3.744531393,-147.2,-96.2,-30.93333333333333,-6121.266666666666,423.26666666666665,-5012.066666666667,1
2024-06-15 11:36:42,-0.1270599663,0.03787364438,0.01588249579,0.5458779931,-9.030928612,4.211400986,-330.97222222222223,23.625,96.72222222222224,-6117.888888888889,605.5833333333334,-5162.555555555556,1
2024-06-15 11:36:42,0.1014036313,-0.03054326214,0.00122173049,0.5458779931,-9.030928612,4.211400986,-158.90322580645162,52.96774193548387,320.2258064516129,-6106.645161290323,541.0,-4820.451612903225,1
2024-06-15 11:36:42,0.1600466967,-0.09773843735,-0.1441642046,0.5458779931,-8.851364136,3.658340216,55.36144578313253,-7.879518072289159,288.855421686747,-6050.939759036145,499.7951807228916,-5190.3975903614455,1
2024-06-15 11:36:42,0.1600466967,-0.09773843735,-0.1441642046,0.5458779931,-8.851364136,3.658340216,-126.69411764705882,35.811764705882354,-118.65882352941176,-6050.917647058824,460.0470588235294,-5132.788235294118,1
2024-06-15 11:36:42,-0.06719517708,0.00122173049,-0.08674286306,0.1771709323,-9.516951561,3.883395195,-37.1685393258427,-49.17977528089887,-66.71910112359551,-6098.640449438202,470.7865168539326,-4848.494382022472,1
2024-06-15 11:36:42,-0.141720742,0.05131268129,0.08796459436,0.1675941199,-9.54807663,3.409343243,54.0,-259.57142857142856,28.57142857142857,-6181.857142857143,462.2857142857143,-4843.714285714285,1
2024-06-15 11:36:42,-0.141720742,0.05131268129,0.08796459436,0.1675941199,-9.54807663,3.409343243,-82.46067415730337,1.2471910112359552,166.12359550561797,-6067.876404494382,627.4943820224719,-4955.191011235955,1
2024-06-15 11:36:42,-0.08185594529,0.02565634064,0.1123992056,0.5817909837,-9.641449928,3.900154591,-319.9673913043478,-184.0978260869565,42.84782608695652,-6095.326086956522,483.5217391304348,-5016.586956521739,1
2024-06-15 11:36:42,-0.08185594529,0.02565634064,0.1123992056,0.5817909837,-9.641449928,3.900154591,-175.64367816091954,-89.41379310344828,12.229885057471265,-6098.183908045977,657.5977011494253,-4853.482758620689,1
2024-06-15 11:36:42,-0.109955743,-0.007330383174,-0.07819075137,0.5027823448,-9.880870819,3.847482204,34.0,-353.3636363636364,30.545454545454533,-6184.363636363636,810.0,-5127.363636363636,1
2024-06-15 11:36:43,0.01343903504,0.0109955743,-0.1014036313,0.09097966552,-8.966285706,3.248931646,-88.29545454545453,260.97727272727275,-57.01136363636363,-6116.488636363636,794.1022727272727,-4821.022727272727,1
2024-06-15 11:36:43,0.01343903504,0.0109955743,-0.1014036313,0.09097966552,-8.966285706,3.248931646,-116.17977528089888,32.7865168539326,32.17977528089888,-6182.61797752809,787.4494382022472,-5143.76404494382,1
2024-06-15 11:36:43,-0.1795943826,0.1087340117,0.06108652428,0.6320692301,-8.82263279,3.502717018,-48.96629213483146,-241.5505617977528,68.88764044943821,-6036.29213483146,763.9101123595506,-5111.91011235955,1
2024-06-15 11:36:43,0.04276056588,0.01588249579,0.05375614017,0.457292527,-9.337387085,3.720589399,81.23076923076923,-88.92307692307692,60.46153846153846,-6073.615384615385,486.1538461538461,-4833.076923076923,1
2024-06-15 11:36:43,0.04276056588,0.01588249579,0.05375614017,0.457292527,-9.337387085,3.720589399,47.20481927710844,-204.8192771084337,30.83132530120482,-6072.710843373494,430.144578313253,-4915.036144578313,1
2024-06-15 11:36:43,-0.1734857261,-0.006108652335,-0.09285151958,0.3711012602,-9.667786598,3.548206806,61.95555555555556,38.577777777777776,-3.9777777777777743,-6195.288888888889,434.4,-4958.488888888889,1
2024-06-15 11:36:43,-0.1734857261,-0.006108652335,-0.09285151958,0.3711012602,-9.667786598,3.548206806,-24.307692307692307,-111.71597633136096,-41.34319526627219,-6138.082840236686,548.9704142011834,-5128.94674556213,1
2024-06-15 11:36:43,0.08063421398,-0.02809980139,0.03420845419,0.2513911724,-8.961497307,3.897760391,-70.46153846153847,-238.3431952662721,53.331360946745576,-6242.816568047338,732.9940828402366,-5140.189349112426,1
2024-06-15 11:36:43,0.01221730467,-0.03909537569,-0.04642575979,0.5410895944,-9.39484787,3.993528366,57.285714285714285,-249.28571428571428,35.285714285714285,-6104.714285714285,434.8571428571428,-4862.142857142857,1
2024-06-15 11:36:43,0.01221730467,-0.03909537569,-0.04642575979,0.5410895944,-9.39484787,3.993528366,19.786516853932586,42.674157303370805,-45.14606741573033,-6261.426966292135,407.9887640449438,-5128.685393258427,1
2024-06-15 11:36:44,-0.1942551434,0.03420845419,0.03787364438,0.5147533417,-10.00297451,4.220977783,-114.27777777777776,-257.72222222222223,-94.0,-6435.833333333333,420.22222222222223,-4794.333333333333,1
2024-06-15 11:36:44,-0.2199114859,0.04520402849,0.1038470939,0.739808321,-9.928754807,3.541024208,-65.14772727272727,-62.75,-75.20454545454545,-6077.909090909091,462.96590909090907,-4794.965909090909,1
2024-06-15 11:36:44,-0.2199114859,0.04520402849,0.1038470939,0.739808321,-9.928754807,3.541024208,-50.16091954022989,-110.20689655172414,-61.57471264367816,-6418.793103448276,479.64367816091954,-4837.333333333333,1
2024-06-15 11:36:44,-0.1075122803,0.01954768784,0.05009094998,1.218648672,-9.145850182,3.866635799,-245.5862068965517,-267.55172413793105,-281.7241379310345,-6117.0344827586205,457.1149425287357,-4828.551724137931,1
2024-06-15 11:36:44,-0.1075122803,0.01954768784,0.05009094998,1.218648672,-9.145850182,3.866635799,-295.4,-79.95555555555555,182.9111111111111,-6244.444444444444,642.0,-5073.755555555556,1
2024-06-15 11:36:44,0.1844813079,-0.03787364438,-0.02076941915,0.07422025502,-9.622296333,4.046200752,-3099.4772727272725,-404.77272727272725,829.9545454545455,-6482.943181818182,1270.1818181818182,-5010.318181818182,1
2024-06-15 11:36:44,0.4728097022,-0.1026253626,-0.03787364438,0.7996633649,-8.200140953,4.165910721,-3829.875,-543.125,662.625,-6238.625,1046.375,-4721.0,1
2024-06-15 11:36:44,0.4728097022,-0.1026253626,-0.03787364438,0.7996633649,-8.200140953,4.165910721,-2198.0666666666666,-502.1333333333333,435.6666666666666,-6408.2,1477.7333333333331,-4375.533333333334,1
2024-06-15 11:36:44,0.0415388383,0.008552113548,0.003665191587,1.393425345,-7.922413349,3.330334663,-516.032967032967,-476.3186813186813,313.5164835164835,-6462.593406593407,1724.7252747252746,-4382.681318681319,1
2024-06-15 11:36:44,-0.2247984111,0.06719517708,0.03298672289,0.7445967197,-8.532935143,2.834734917,-14.071428571428555,-96.91666666666669,296.4404761904762,-6502.714285714285,1955.178571428572,-4422.988095238095,1
2024-06-15 11:36:45,-0.2247984111,0.06719517708,0.03298672289,0.7445967197,-8.532935143,2.834734917,3.772727272727274,23.329545454545453,261.3181818181818,-6411.909090909091,2366.909090909091,-4257.022727272727,1
2024-06-15 11:36:45,-1.881464958,-0.2260201424,0.0,-0.05267243832,-10.26394272,3.205836058,38.13924050632912,-3.683544303797469,-40.55696202531646,-6507.417721518988,2068.1012658227846,-4456.291139240507,1
2024-06-15 11:36:45,-1.881464958,-0.2260201424,0.0,-0.05267243832,-10.26394272,3.205836058,74.84810126582278,-15.708860759493673,-37.392405063291136,-6517.544303797468,2240.253164556962,-4301.227848101265,1
2024-06-15 11:36:45,-1.087340117,0.669508338,0.6719517708,1.501164436,-8.437167168,1.63763392,-109.6627906976744,-179.52325581395348,-325.43023255813955,-6496.860465116279,2343.0116279069766,-4446.767441860465,1
2024-06-15 11:36:45,1.232726097,0.3714060783,0.5436700583,0.08858546615,-12.33732128,2.26970315,-153.16091954022988,47.10344827586207,-25.781609195402297,-6387.563218390805,2192.310344827586,-4238.149425287356,1
2024-06-15 11:36:45,1.232726097,0.3714060783,0.5436700583,0.08858546615,-12.33732128,2.26970315,-244.8260869565217,109.47826086956522,-15.782608695652174,-6344.652173913043,2403.1304347826085,-4377.304347826087,1
2024-06-15 11:36:45,-0.7061602473,-0.009773843922,-0.762359798,-0.806845963,-8.844181061,2.26970315,432.76666666666665,-382.81111111111113,-100.97777777777776,-6354.022222222222,2339.3555555555554,-4267.977777777778,1
2024-06-15 11:36:45,-0.7061602473,-0.009773843922,-0.762359798,-0.806845963,-8.844181061,2.26970315,521.1,-506.7,-283.2,-6321.8,2323.8,-4250.2,1
2024-06-15 11:36:45,-0.4251621962,-0.1209513173,0.01954768784,0.5602431893,-7.163451672,1.484405041,1081.0975609756097,-709.560975609756,-126.46341463414636,-6550.146341463415,1802.0487804878048,-4415.756097560976,1
2024-06-15 11:36:45,0.4300491214,-2.092824221,-0.7867944241,3.552995205,-10.29506683,3.790021181,1224.4333333333334,-1255.8444444444444,-73.95555555555555,-6645.788888888889,1663.3555555555556,-3915.8777777777777,1
2024-06-15 11:36:46,0.4300491214,-2.092824221,-0.7867944241,3.552995205,-10.29506683,3.790021181,2327.068181818182,-1977.2272727272727,-22.715909090909093,-7297.602272727273,992.0340909090908,-3797.340909090909,1
2024-06-15 11:36:46,0.48014009,-0.04520402849,-0.1331686229,1.230619669,-8.394071579,4.486733913,2603.057471264368,-3384.8390804597702,1740.942528735632,-7309.931034482759,1318.5172413793102,-3501.425287356322,1
2024-06-15 11:36:46,6.157521725,1.163087368,-1.216843605,-0.05746084079,-6.050147533,5.149928093,2644.125,-3349.0,2227.5,-7139.5,1695.75,-3007.0,1
2024-06-15 11:36:46,6.157521725,1.163087368,-1.216843605,-0.05746084079,-6.050147533,5.149928093,1870.888888888889,-1629.1555555555556,1933.9555555555555,-7488.711111111111,1994.1777777777777,-2490.9333333333334,1
2024-06-15 11:36:46,-1.083674908,0.1857030392,-0.381179899,2.640804529,-6.093243122,9.562441826,1273.2921348314608,-1338.438202247191,1275.876404494382,-7648.112359550561,2261.348314606741,-2287.213483146068,1
2024-06-15 11:36:46,-1.083674908,0.1857030392,-0.381179899,2.640804529,-6.093243122,9.562441826,752.8522727272727,-1543.375,868.7045454545455,-7707.090909090909,2092.3863636363635,-2125.3863636363635,1
2024-06-15 11:36:46,0.1356120855,0.2492330223,-0.1661553532,1.309628367,-4.800374508,9.004592896,987.2359550561798,-1365.1685393258426,738.6404494382023,-7743.955056179775,1992.494382022472,-1756.887640449438,1
2024-06-15 11:36:46,-0.2553416789,-0.08307767659,-0.07941248268,1.733402014,-3.639186621,9.232041359,938.2777777777778,-919.6944444444443,629.1111111111111,-7696.472222222223,2290.972222222222,-1808.7222222222224,1
2024-06-15 11:36:46,-0.2553416789,-0.08307767659,-0.07941248268,1.733402014,-3.639186621,9.232041359,236.0,-1069.5,355.5,-7644.0,2275.5,-1513.5,1
2024-06-15 11:36:46,0.2431243658,0.05619960278,0.3445279896,0.6679822803,-4.910507679,9.619902611,168.17045454545456,-448.9090909090909,589.0568181818181,-7606.556818181818,2267.954545454545,-1203.715909090909,1
2024-06-15 11:36:47,0.8185594082,0.1123992056,0.1844813079,1.745373011,-2.00873518,9.358934402,282.4155844155844,-379.4285714285714,515.7207792207793,-7607.409090909091,2334.512987012987,-1365.6883116883116,1
2024-06-15 11:36:47,0.8185594082,0.1123992056,0.1844813079,1.745373011,-2.00873518,9.358934402,20.077922077922096,-265.1428571428571,382.6038961038961,-7621.045454545455,2532.564935064935,-1212.4415584415583,1
2024-06-15 11:36:47,-0.09040805697,0.1075122803,-0.1808161139,1.434126854,-2.669534922,9.414001465,62.87640449438202,-326.6292134831461,316.4943820224719,-7637.516853932584,2641.224719101124,-985.2022471910112,1
2024-06-15 11:36:47,-0.09040805697,0.1075122803,-0.1808161139,1.434126854,-2.669534922,9.414001465,72.8,-68.0,308.2,-7630.8,2568.0,-955.2,1
2024-06-15 11:36:47,-3.661526203,0.4007275999,1.225395679,0.8283938169,-5.940014362,5.394136429,-298.5,97.04545454545456,365.17045454545456,-7608.352272727273,2498.909090909091,-1011.3863636363636,1
2024-06-15 11:36:47,-3.100751877,-0.9773843884,-0.3909537494,-1.41257906,-10.27591324,5.753266811,-306.9438202247191,106.34831460674155,204.3932584269663,-7567.651685393258,2789.887640449438,-1255.067415730337,1
2024-06-15 11:36:47,-3.100751877,-0.9773843884,-0.3909537494,-1.41257906,-10.27591324,5.753266811,-12.722222222222229,121.88888888888889,-11.388888888888886,-7595.555555555556,2842.1666666666665,-1292.9444444444443,1
2024-06-15 11:36:47,1.112996459,0.01954768784,0.1576032341,-0.0191536136,-8.43956089,1.539471745,292.8181818181818,12.863636363636363,-8.5,-7627.772727272727,2867.454545454545,-1019.8636363636364,1
2024-06-15 11:36:47,-0.2211332172,-0.05864306539,-0.06352998316,0.6320692301,-10.7188406,2.671929121,-73.25806451612902,-168.4193548387097,220.0967741935484,-7646.967741935484,2733.322580645161,-981.1612903225806,1
2024-06-15 11:36:47,-0.2211332172,-0.05864306539,-0.06352998316,0.6320692301,-10.7188406,2.671929121,-10.20930232558139,-221.11627906976744,-81.93023255813954,-7735.953488372093,2812.395348837209,-1080.4418604651162,1
2024-06-15 11:36:48,0.1160643995,-0.2125810981,0.1160643995,0.9241618514,-11.24317074,3.869029999,-28.172413793103445,-114.09195402298852,276.82758620689657,-7595.114942528736,2767.885057471264,-1005.6666666666666,1
2024-06-15 11:36:48,0.1160643995,-0.2125810981,0.1160643995,0.9241618514,-11.24317074,3.869029999,37.78823529411764,-264.7294117647059,-40.72941176470589,-7594.811764705882,2918.9058823529413,-944.470588235294,1
2024-06-15 11:36:48,0.235793978,-0.1050688252,0.06230825558,-0.1221042871,-9.564835548,1.977610588,143.4494382022472,-159.02247191011236,315.1460674157304,-7604.224719101124,3018.6404494382023,-930.1573033707864,1
2024-06-15 11:36:48,0.3787364662,-0.07452555746,-0.00122173049,0.3591302633,-8.683769226,3.691859007,22.10112359550562,-624.8089887640449,12.337078651685388,-7773.247191011236,2819.5730337078653,-777.1123595505618,1
2024-06-15 11:36:48,0.3787364662,-0.07452555746,-0.00122173049,0.3591302633,-8.683769226,3.691859007,231.370786516854,-330.4269662921348,-61.82022471910112,-7602.460674157303,2747.6629213483147,-709.1348314606741,1
2024-06-15 11:36:48,0.1038470939,-0.07574728876,-0.00244346098,0.3064578176,-9.358934402,4.019864559,-63.395348837209305,-364.1744186046512,-32.03488372093023,-7567.1511627906975,3093.651162790697,-662.3953488372093,1
2024-06-15 11:36:48,0.1038470939,-0.07574728876,-0.00244346098,0.3064578176,-9.358934402,4.019864559,-68.18518518518519,-140.0,-73.7037037037037,-7789.037037037037,3076.5925925925926,-894.7777777777778,1
2024-06-15 11:36:48,-0.1172861308,0.0,0.08796459436,0.1843535304,-9.308655739,3.787626982,-119.5090909090909,45.52727272727273,-31.27272727272728,-7752.872727272727,3096.472727272728,-835.1090909090909,1
2024-06-15 11:36:48,-0.1795943826,0.0109955743,-0.03054326214,0.8116343617,-9.263166428,4.170699596,338.2,-323.0,303.38666666666666,-7571.053333333333,2822.04,-663.1733333333333,1
2024-06-15 11:36:48,-0.1795943826,0.0109955743,-0.03054326214,0.8116343617,-9.263166428,4.170699596,-107.6153846153846,-152.07692307692307,-5.0,-7782.846153846154,3142.0,-875.6923076923077,1
2024-06-15 11:36:49,0.3042109013,-0.03787364438,0.0354301855,0.8355764151,-8.769960403,4.417302132,354.69767441860466,32.23255813953489,-6.79069767441861,-7558.976744186047,3156.4186046511627,-842.3953488372093,1
2024-06-15 11:36:49,0.1600466967,-0.03054326214,-0.1148426682,0.3327940404,-9.069235802,4.431667328,53.5,48.61111111111112,-112.33333333333331,-7568.777777777777,3029.0,-885.5,1
2024-06-15 11:36:49,0.1600466967,-0.03054326214,-0.1148426682,0.3327940404,-9.069235802,4.431667328,-201.76404494382024,-276.6966292134832,48.57303370786517,-7725.797752808989,3124.584269662921,-843.9887640449438,1
2024-06-15 11:36:49,0.2651155293,0.1759291887,-0.09529497474,0.2633621991,-8.858546257,4.414907932,-97.88372093023256,117.48837209302326,-62.32558139534885,-7576.604651162791,3036.953488372093,-827.5348837209302,1
2024-06-15 11:36:49,0.2651155293,0.1759291887,-0.09529497474,0.2633621991,-8.858546257,4.414907932,-346.6590909090909,275.02272727272725,-317.89772727272725,-7740.602272727273,3124.7613636363635,-828.0795454545455,1
2024-06-15 11:36:49,0.09040805697,0.003665191587,-0.06841690838,1.240196466,-8.942343712,4.311957359,-142.7111111111111,-96.84444444444443,-280.3111111111112,-7643.155555555555,3123.266666666667,-653.6666666666666,1
2024-06-15 11:36:49,0.04642575979,-0.1001819,-0.05619960278,0.5770025849,-9.54807663,4.199429989,-291.4942528735632,96.22988505747126,0.8735632183908031,-7593.091954022989,2904.908045977012,-848.6436781609195,1
2024-06-15 11:36:49,0.04642575979,-0.1001819,-0.05619960278,0.5770025849,-9.54807663,4.199429989,7.846153846153847,115.05494505494504,63.86813186813187,-7577.505494505494,3068.934065934066,-885.0989010989011,1
2024-06-15 11:36:49,0.03176499158,-0.04031710699,-0.07452555746,0.5195417404,-9.272743225,4.213795185,-293.3793103448276,-76.93103448275862,62.86206896551724,-7751.551724137931,3103.4137931034484,-889.0344827586207,1
2024-06-15 11:36:49,-0.02565634064,-0.03665191308,0.0720821023,-0.05027823523,-9.722852707,3.667917013,-3.696629213483149,83.07865168539325,-142.8314606741573,-7584.730337078651,3058.6516853932585,-699.6741573033707,1
2024-06-15 11:36:50,-0.02565634064,-0.03665191308,0.0720821023,-0.05027823523,-9.722852707,3.667917013,-368.247191011236,-272.96629213483146,-163.4494382022472,-7670.606741573034,2948.303370786517,-833.0,1
2024-06-15 11:36:50,-0.2015855312,0.1722639948,0.02443460934,1.082179189,-9.385271072,4.443638325,-124.3111111111111,-41.37777777777778,-271.5777777777778,-7635.7555555555555,2987.0666666666666,-712.0444444444445,1
2024-06-15 11:36:50,-0.2015855312,0.1722639948,0.02443460934,1.082179189,-9.385271072,4.443638325,-26.453416149068325,-19.403726708074537,-115.03105590062113,-7624.844720496894,3114.44099378882,-697.2732919254659,1
2024-06-15 11:36:50,-0.0415388383,-0.04398229718,-0.08185594529,0.8619126081,-8.535328865,4.060565948,-40.333333333333336,64.0,-13.333333333333329,-7721.333333333333,2903.0,-767.0,1
2024-06-15 11:36:50,0.4227187634,-0.1038470939,-0.004886921961,0.8762778044,-8.659827232,3.907337189,-271.09090909090907,-110.77272727272728,-71.95454545454545,-7657.863636363636,2990.090909090909,-724.7272727272727,1
2024-06-15 11:36:50,0.4227187634,-0.1038470939,-0.004886921961,0.8762778044,-8.659827232,3.907337189,-3.450549450549449,-326.27472527472526,38.69230769230769,-7758.340659340659,3048.516483516484,-682.4725274725274,1
2024-06-15 11:36:50,0.008552113548,0.02565634064,-0.05253441259,0.5458779931,-8.82263279,3.950432777,336.41379310344826,-36.72413793103448,44.6551724137931,-7564.0,3091.0689655172414,-688.1379310344828,1
2024-06-15 11:36:50,0.3066543639,-0.08063421398,-0.0415388383,0.4692635238,-9.639056206,3.581725836,73.72413793103448,-296.51724137931035,-5.919540229885058,-7652.827586206897,3062.264367816092,-746.0689655172414,1
2024-06-15 11:36:50,0.3066543639,-0.08063421398,-0.0415388383,0.4692635238,-9.639056206,3.581725836,-52.91954022988506,42.80459770114943,-115.367816091954,-7797.574712643678,2953.655172413793,-639.5747126436781,1
2024-06-15 11:36:50,0.0293215327,-0.05497787148,-0.06841690838,0.04788403213,-9.998186111,3.584120035,69.30769230769232,-9.69230769230768,97.6923076923077,-7650.846153846154,3077.846153846154,-851.8461538461538,1
2024-06-15 11:36:51,0.0293215327,-0.05497787148,-0.06841690838,0.04788403213,-9.998186111,3.584120035,-151.33333333333334,-48.66666666666667,-194.66666666666663,-7748.666666666667,2885.333333333333,-817.3333333333334,1
2024-06-15 11:36:51,-0.1209513173,0.02443460934,-0.01832595654,0.215478152,-9.835380554,3.373430252,-92.98863636363636,25.36363636363637,1.761363636363626,-7639.75,3166.590909090909,-723.5568181818182,1
2024-06-15 11:36:51,-0.03176499158,0.02076941915,0.007330383174,0.0718260482,-9.162610054,4.060565948,-347.84090909090907,-278.90909090909093,-121.4090909090909,-7785.295454545455,2977.568181818182,-658.7954545454545,1
2024-06-15 11:36:51,-0.03176499158,0.02076941915,0.007330383174,0.0718260482,-9.162610054,4.060565948,75.23076923076923,-113.6153846153846,-346.46153846153845,-7566.384615384615,2798.4615384615386,-829.4615384615385,1
2024-06-15 11:36:51,-0.145385921,0.07574728876,0.1026253626,0.5458779931,-9.481039047,3.502717018,-360.2631578947368,-278.55263157894734,88.60526315789474,-7762.184210526316,3108.0263157894738,-849.7631578947369,1
2024-06-15 11:36:51,-0.145385921,0.07574728876,0.1026253626,0.5243301988,-9.607931137,4.141968727,47.89655172413793,84.75862068965517,-206.3793103448276,-7741.67816091954,2885.1954022988507,-833.6206896551724,1
2024-06-15 11:36:51,-0.02443460934,-0.0109955743,-0.06963863969,0.5243301988,-9.607931137,4.141968727,-353.15384615384613,58.30769230769231,107.21153846153848,-7749.461538461538,3124.788461538461,-843.3461538461538,1
2024-06-15 11:36:51,-0.009773843922,-0.03298672289,0.03909537569,0.09576806426,-9.84974575,3.531447411,-350.5897435897436,86.51282051282051,74.51923076923077,-7741.7692307692305,3090.8141025641025,-829.2435897435897,1
2024-06-15 11:36:51,-0.009773843922,-0.03298672289,0.03909537569,0.09576806426,-9.84974575,3.531447411,-285.5882352941176,144.76470588235293,62.23529411764706,-7574.705882352941,3099.235294117647,-678.6470588235294,1
2024-06-15 11:36:51,0.003665191587,0.0171042271,-0.01343903504,1.055842996,-9.093177795,4.046200752,41.37931034482759,-8.298850574712645,-270.3333333333333,-7578.632183908046,3001.9885057471265,-835.6551724137931,1
2024-06-15 11:36:52,0.2785545588,-0.1197295859,-0.02565634064,0.5458779931,-9.35654068,4.331110954,-307.4782608695652,-264.5108695652174,-495.0,-7780.0,2862.195652173913,-827.4782608695652,1
2024-06-15 11:36:52,0.2785545588,-0.1197295859,-0.02565634064,0.5458779931,-9.35654068,4.331110954,-200.6896551724137,16.264367816091948,-508.5287356321839,-8013.367816091954,2806.4827586206898,-723.6551724137931,1
2024-06-15 11:36:52,-0.08063421398,0.2638937831,0.03054326214,0.5793967843,-8.875306129,5.075707436,-132.16470588235293,-1024.5882352941176,-1379.3411764705882,-7828.470588235294,2893.211764705882,-885.2352941176471,1
2024-06-15 11:36:52,-0.08063421398,0.2638937831,0.03054326214,0.5793967843,-8.875306129,5.075707436,-475.72093023255815,-2057.860465116279,-1780.360465116279,-8293.453488372093,1736.1162790697674,121.3953488372093,1
2024-06-15 11:36:52,-0.0720821023,0.02809980139,-0.109955743,0.8906430602,-8.839392662,3.677493811,33.54545454545455,-1861.0,-1065.6363636363635,-7863.090909090909,1463.6363636363635,435.8181818181818,1
2024-06-15 11:36:52,0.02443460934,-0.03909537569,-0.004886921961,1.060631394,-8.954314232,4.264073372,8.032258064516128,-549.0967741935484,-36.16129032258064,-7999.4731182795695,1837.505376344086,462.3440860215054,1
2024-06-15 11:36:52,0.02443460934,-0.03909537569,-0.004886921961,1.060631394,-8.954314232,4.264073372,171.01149425287355,462.65517241379314,517.735632183908,-8211.057471264368,2239.494252873564,390.6781609195402,1
2024-06-15 11:36:52,0.07452555746,-0.0293215327,0.02809980139,0.7062895298,-8.899248123,4.335899353,31.0,13.200000000000005,306.0,-8286.6,2310.4,319.2,1
2024-06-15 11:36:52,0.2015855312,-0.04276056588,-0.05986479297,0.6440402865,-9.107542992,3.926490784,21.87951807228916,15.409638554216867,228.59036144578312,-8082.21686746988,2224.4578313253014,201.36144578313247,1
2024-06-15 11:36:52,0.2015855312,-0.04276056588,-0.05986479297,0.6440402865,-9.107542992,3.926490784,29.62222222222222,-139.75555555555556,220.3111111111112,-7846.844444444445,2232.3555555555554,242.7333333333333,1
2024-06-15 11:36:53,-0.02565634064,0.03054326214,0.01343903504,0.2681505978,-9.186552048,3.926490784,-55.17045454545453,-10.840909090909063,314.14772727272725,-7911.375,2274.8977272727275,530.5340909090909,1
2024-06-15 11:36:53,-0.02565634064,0.03054326214,0.01343903504,0.2681505978,-9.186552048,3.926490784,61.29213483146067,-96.19101123595506,1.1573033707865168,-7876.213483146067,2263.3370786516853,224.8202247191012,1
2024-06-15 11:36:53,-0.02199114859,0.03420845419,0.03787364438,0.8331822157,-9.287108421,4.156333923,97.30061349693251,-82.86503067484662,285.9877300613497,-7903.01226993865,2264.993865030675,223.8527607361964,1
2024-06-15 11:36:53,0.1233947799,-0.05986479297,-0.08429940045,0.5003881454,-9.454702377,4.278438568,12.638036809815958,-108.6319018404908,179.23926380368098,-7909.760736196319,2511.6196319018404,242.87116564417173,1
2024-06-15 11:36:53,0.1233947799,-0.05986479297,-0.08429940045,0.5003881454,-9.454702377,4.278438568,42.96739130434783,100.83695652173913,16.956521739130437,-7877.260869565217,2639.728260869565,245.5326086956522,1
2024-06-15 11:36:53,0.07452555746,-0.0109955743,0.0,0.2681505978,-9.502586365,4.153939724,-109.275,-295.3,-49.1125,-8044.75,2552.4375,237.025,1
2024-06-15 11:36:53,-0.007330383174,0.02199114859,0.07819075137,0.4955997467,-9.313444138,4.031835556,-50.07692307692308,68.0,99.3076923076923,-7918.2307692307695,2644.923076923077,349.7692307692308,1
2024-06-15 11:36:53,-0.007330383174,0.02199114859,0.07819075137,0.4955997467,-9.313444138,4.031835556,-278.27272727272725,-203.95454545454547,-102.45454545454544,-7850.545454545455,2495.4772727272725,464.59090909090907,1
2024-06-15 11:36:53,-0.04276056588,0.007330383174,-0.05619960278,0.7086837292,-9.248801231,4.127603531,-359.5757575757576,-299.8787878787879,77.36363636363637,-7949.818181818182,2460.848484848485,592.3030303030303,1
2024-06-15 11:36:53,-0.04276056588,0.007330383174,-0.05619960278,0.7086837292,-9.248801231,4.127603531,-9.59375,225.453125,282.03125,-7847.296875,2819.0625,262.9375,1
2024-06-15 11:36:54,0.1576032341,-0.01588249579,0.02809980139,0.3854664862,-9.504981041,3.818751812,95.42696629213484,-25.91011235955056,-347.9550561797753,-7826.101123595506,2487.213483146068,135.93258426966293,1
2024-06-15 11:36:54,0.02565634064,0.00244346098,0.0293215327,0.7517793179,-9.06205368,4.259284973,88.88505747126436,-46.41379310344828,76.0344827586207,-7843.551724137931,2480.8735632183907,173.8735632183908,1
2024-06-15 11:36:54,0.02565634064,0.00244346098,0.0293215327,0.7517793179,-9.06205368,4.259284973,259.0949720670391,-300.85474860335194,-98.81564245810056,-8028.759776536312,2548.854748603352,206.4413407821229,1
2024-06-15 11:36:54,0.0171042271,-0.02565634064,-0.01343903504,0.8930372596,-9.332598686,4.307168961,267.4748603351956,-276.2737430167598,-106.0782122905028,-7895.7988826815645,2724.27374301676,204.2067039106145,1
2024-06-15 11:36:54,-0.1160643995,-0.003665191587,-0.0109955743,0.6177040339,-9.141061783,4.158728123,143.4111111111111,-122.05555555555554,-104.2,-8018.011111111111,2631.8,416.33333333333337,1
2024-06-15 11:36:54,-0.1160643995,-0.003665191587,-0.0109955743,0.6177040339,-9.141061783,4.158728123,148.0,-1.3793103448275872,-52.44827586206897,-7922.0,2772.862068965517,404.8275862068965,1
2024-06-15 11:36:54,0.2076941878,-0.04398229718,-0.07452555746,0.5985504389,-8.604761124,4.125209332,-137.34831460674158,-219.0112359550561,-22.662921348314605,-7912.561797752809,2866.123595505618,550.8314606741573,1
2024-06-15 11:36:54,0.2076941878,-0.04398229718,-0.07452555746,0.5985504389,-8.604761124,4.125209332,-278.2558139534884,232.3255813953488,44.72093023255814,-8019.023255813953,2876.6976744186045,216.4883720930233,1
2024-06-15 11:36:54,-0.07574728876,0.00122173049,0.03787364438,0.6344634295,-9.064447403,4.474762917,-295.967032967033,-68.28571428571428,72.51648351648352,-8055.351648351649,2709.21978021978,144.73626373626374,1
2024-06-15 11:36:54,0.03420845419,-0.00122173049,-0.0354301855,0.5841852427,-8.992621422,2.942473888,-104.14864864864865,-69.74324324324324,-177.6216216216216,-8045.445945945946,2795.283783783784,162.18243243243242,1
2024-06-15 11:36:55,0.03420845419,-0.00122173049,-0.0354301855,0.5841852427,-8.992621422,2.942473888,-283.58620689655174,-313.4942528735632,94.57471264367815,-7834.402298850575,2544.367816091954,532.5862068965517,1
2024-06-15 11:36:55,0.0,-0.06841690838,0.01466076635,0.2561795712,-10.35971069,3.435679436,17.5,7.25,8.0,-8037.75,2591.75,491.25,1
2024-06-15 11:36:55,0.0,-0.06841690838,0.01466076635,0.2561795712,-10.35971069,3.435679436,65.42500000000001,-127.3625,212.875,-8005.6,2977.3125,345.675,1
2024-06-15 11:36:55,0.1001819,0.1502728462,0.06352998316,0.2681505978,-9.234436035,4.031835556,-193.04255319148936,6.680851063829785,-306.09574468085106,-7838.510638297872,2860.478723404255,602.9255319148937,1
2024-06-15 11:36:55,-0.1624901593,0.04398229718,0.08674286306,0.605733037,-9.418789864,3.79241538,20.05555555555556,-20.55555555555556,-53.16666666666666,-8013.111111111111,2772.611111111112,347.3888888888889,1
2024-06-15 11:36:55,-0.1624901593,0.04398229718,0.08674286306,0.605733037,-9.418789864,3.79241538,-68.05681818181819,-56.34090909090909,-310.0681818181818,-7887.784090909091,2843.590909090909,236.88636363636363,1
2024-06-15 11:36:55,-0.08796459436,0.02809980139,-0.003665191587,0.7733271718,-9.354146004,3.651157618,-9.204545454545451,64.79545454545453,-25.477272727272748,-7982.022727272727,2834.7727272727275,244.8409090909091,1
2024-06-15 11:36:55,0.2028072625,0.02443460934,0.06230825558,0.5339069963,-9.366117477,3.7181952,115.63636363636364,-51.0,-1.5,-7824.227272727273,2556.181818181818,257.72727272727275,1
2024-06-15 11:36:55,0.2028072625,0.02443460934,0.06230825558,0.5339069963,-9.366117477,3.7181952,-154.8470588235294,41.70588235294117,-48.16470588235294,-7997.976470588235,2868.235294117647,234.14117647058825,1
2024-06-15 11:36:55,1.159422278,-0.02809980139,0.04886921868,1.582567334,-8.535328865,3.849876404,-2.9770114942528707,-85.6896551724138,46.80459770114943,-7999.827586206897,2845.919540229885,197.9885057471264,1
2024-06-15 11:36:56,1.159422278,-0.02809980139,0.04886921868,1.582567334,-8.535328865,3.849876404,-84.03370786516854,106.98876404494382,119.95505617977528,-8053.842696629214,2755.067415730337,174.86516853932585,1
2024-06-15 11:36:56,-2.377487421,0.3225368559,0.728151381,0.5650315881,-7.682993412,3.742137194,-174.82758620689654,46.44827586206897,-314.2068965517241,-7996.0,2516.862068965517,542.3793103448276,1
2024-06-15 11:36:56,0.9285151958,-0.004886921961,1.877799749,-1.158793569,-10.02212811,1.654393315,-111.93103448275862,-56.83908045977012,-105.86206896551724,-7932.126436781609,2740.2528735632186,213.4712643678161,1
2024-06-15 11:36:56,0.9285151958,-0.004886921961,1.877799749,-1.158793569,-10.02212811,1.654393315,-369.55555555555554,76.38888888888889,-121.33333333333331,-8009.611111111111,2881.4444444444443,231.61111111111111,1
2024-06-15 11:36:56,-1.276708364,-2.338392258,-0.924849987,-1.053448796,-6.564900875,2.825158119,74.04395604395604,-24.307692307692307,31.142857142857142,-8046.384615384615,2769.208791208792,206.3846153846154,1
2024-06-15 11:36:56,-0.4911356568,0.2247984111,-0.4850270152,0.004788403399,-10.0269165,3.60566783,81.66459627329192,-96.33540372670808,117.9192546583851,-8051.16149068323,2901.76397515528,140.9503105590062,1
2024-06-15 11:36:56,-0.4911356568,0.2247984111,-0.4850270152,0.004788403399,-10.0269165,3.60566783,87.0,-79.84615384615384,-66.69230769230768,-7975.615384615385,2859.6153846153848,203.0,1
2024-06-15 11:36:56,-0.09285151958,-0.07452555746,-0.07941248268,0.1292868853,-13.17289734,2.398990154,54.54838709677419,375.010752688172,90.44086021505376,-8008.354838709677,2924.075268817204,376.3225806451613,1
2024-06-15 11:36:56,-0.09285151958,-0.07452555746,-0.07941248268,0.1292868853,-13.17289734,2.398990154,-94.1891891891892,-85.22972972972973,76.1891891891892,-7975.824324324324,2882.5810810810813,148.5,1
2024-06-15 11:36:56,0.4251621962,-0.08063421398,-0.03787364438,0.5746083856,-7.606379032,3.952826977,-189.8571428571429,-40.285714285714285,-161.14285714285714,-8014.428571428572,2800.8571428571427,293.1428571428572,1
2024-06-15 11:36:57,0.3591887653,-0.02687807009,-0.05131268129,0.323217243,-8.863334656,4.589684486,-92.24137931034484,107.0,111.60919540229884,-8038.735632183908,2885.333333333333,362.7471264367816,1
2024-06-15 11:36:57,0.3591887653,-0.02687807009,-0.05131268129,0.323217243,-8.863334656,4.589684486,8.222222222222229,-97.24444444444444,118.64444444444445,-7935.133333333333,2747.5777777777776,348.4222222222222,1
2024-06-15 11:36:57,-0.7745771408,-0.1148426682,0.1637118906,0.5267243981,-8.609549522,4.965574265,32.125,-93.75,76.0,-7778.875,2889.625,183.5,1
2024-06-15 11:36:57,-0.7745771408,-0.1148426682,0.1637118906,0.5267243981,-8.609549522,4.965574265,71.45454545454545,-42.72727272727273,28.63636363636364,-7989.090909090909,2766.3636363636365,302.0,1
2024-06-15 11:36:57,0.1148426682,0.01343903504,-0.07819075137,0.14844051,-9.490615845,4.072536945,-207.76344086021504,-12.193548387096774,55.33333333333333,-8015.258064516129,2694.3870967741937,336.6559139784946,1
2024-06-15 11:36:57,-0.1343903542,0.00122173049,0.07452555746,0.181959331,-9.708487511,3.835511208,103.66666666666666,-100.9047619047619,65.42857142857143,-8060.0,2722.333333333333,289.6190476190476,1
2024-06-15 11:36:57,-0.1343903542,0.00122173049,0.07452555746,0.181959331,-9.708487511,3.835511208,121.4090909090909,96.625,48.0,-7986.215909090909,2817.7954545454545,157.52272727272728,1
2024-06-15 11:36:57,-0.4105014503,0.1478293836,0.1307251602,0.538695395,-8.398859978,4.153939724,-268.8850574712644,63.55172413793103,93.41379310344828,-8042.574712643678,2751.32183908046,341.4022988505747,1
2024-06-15 11:36:57,-0.05131268129,0.0109955743,-0.04764748737,0.5027823448,-8.870517731,4.079719543,-205.6117647058824,74.85882352941177,69.12941176470588,-7962.235294117647,2889.3411764705884,139.3294117647059,1
2024-06-15 11:36:57,-0.05131268129,0.0109955743,-0.04764748737,0.5027823448,-8.870517731,4.079719543,76.89655172413794,-76.37931034482759,16.724137931034484,-8040.413793103448,2744.8275862068967,340.0,1
2024-06-15 11:36:58,0.0171042271,0.009773843922,-0.05864306539,0.3615244627,-8.887276649,4.189853191,-358.3207547169811,62.60377358490566,62.71698113207548,-7987.66037735849,2900.981132075472,355.64150943396226,1
2024-06-15 11:36:58,0.0171042271,0.009773843922,-0.05864306539,0.3615244627,-8.887276649,4.189853191,-316.811320754717,-78.27672955974842,28.75471698113208,-8000.238993710692,2838.7169811320755,372.622641509434,1
2024-06-15 11:36:58,-0.2712241709,0.196698606,0.1466076523,-0.248996973,-9.52173996,4.065354347,-323.04761904761904,-326.3690476190476,-100.38095238095238,-8008.023809523809,2837.7738095238096,194.20238095238096,1
2024-06-15 11:36:58,-0.1221730486,0.0720821023,-0.02199114859,0.2394201756,-8.987833023,3.445256233,-115.96808510638296,-156.27659574468086,-226.45744680851064,-7969.244680851064,2876.255319148936,142.37234042553192,1
2024-06-15 11:36:58,-0.1221730486,0.0720821023,-0.02199114859,0.2394201756,-8.987833023,3.445256233,-268.42857142857144,59.71428571428572,82.71428571428572,-8043.714285714285,2777.7619047619046,305.8095238095238,1
2024-06-15 11:36:58,0.00244346098,0.05742133409,0.1722639948,0.1125274822,-8.961497307,3.761290789,-112.5568181818182,-95.75,-354.89772727272725,-8043.988636363636,2854.704545454545,326.59090909090907,1
2024-06-15 11:36:58,0.2687807083,-0.0354301855,-0.0354301855,0.5482721925,-8.983044624,4.036623955,84.87640449438203,64.17977528089888,59.48314606741573,-8046.247191011236,2915.3595505617977,338.4494382022472,1
2024-06-15 11:36:58,0.2687807083,-0.0354301855,-0.0354301855,0.5482721925,-8.983044624,4.036623955,-59.28089887640449,-99.07865168539324,60.04494382022472,-7986.011235955056,2903.6629213483147,381.46067415730334,1
2024-06-15 11:36:58,-0.141720742,0.0109955743,-0.08918632567,0.2873041928,-9.464279175,4.120420933,-300.3908045977012,85.98850574712644,-110.86206896551724,-7975.701149425287,2911.574712643678,158.3448275862069,1
2024-06-15 11:36:58,-0.141720742,0.0109955743,-0.08918632567,0.2873041928,-9.464279175,4.120420933,19.5,-55.5,51.0,-7993.5,2792.5,259.5,1
2024-06-15 11:36:59,0.1368338168,-0.04886921868,-0.04276056588,-0.1675941199,-9.349357605,3.813963413,-326.2558139534884,-67.87209302325581,71.25581395348837,-8028.279069767442,2822.2558139534885,311.27906976744185,1
2024-06-15 11:36:59,-0.1466076523,0.08552113175,0.1698205322,0.08858546615,-9.502586365,3.950432777,-19.6629213483146,-80.68539325842697,-277.4719101123595,-8037.853932584269,2872.887640449438,278.7752808988764,1
2024-06-15 11:36:59,-0.1466076523,0.08552113175,0.1698205322,0.08858546615,-9.502586365,3.950432777,-319.16666666666663,-113.16666666666666,20.833333333333314,-8016.0,2921.333333333333,166.5,1
2024-06-15 11:36:59,0.007330383174,0.02076941915,0.07086037099,0.383072257,-8.954314232,4.244919777,-154.22988505747128,318.67816091954023,52.7816091954023,-7618.517241379311,2920.712643678161,197.5977011494253,1
2024-06-15 11:36:59,-0.01221730467,-0.0109955743,-0.05742133409,0.4644751251,-9.014169693,4.252102375,-2919.723404255319,3732.042553191489,-306.468085106383,-7468.978723404255,3658.936170212766,-521.3617021276596,1
2024-06-15 11:36:59,-0.01221730467,-0.0109955743,-0.05742133409,0.4644751251,-9.014169693,4.252102375,-6012.470588235294,5569.117647058823,-405.4705882352941,-7511.294117647059,3310.529411764706,-516.9411764705883,1
2024-06-15 11:36:59,-0.0720821023,0.04642575979,-0.1893682331,0.390254885,-9.323021889,3.655946016,-6601.31875,6388.3125,-1003.4,-7727.81875,2841.74375,-1343.9,1
2024-06-15 11:36:59,-0.0720821023,0.04642575979,-0.1893682331,0.390254885,-9.323021889,3.655946016,-5824.44375,6107.0625,-983.4,-7700.94375,2862.36875,-1573.9,1
2024-06-15 11:36:59,0.05497787148,-0.0232128799,0.03909537569,-0.5003881454,-9.196128845,4.082113743,-2571.125,3511.022727272727,-508.6590909090909,-7251.079545454545,3323.9204545454545,-3023.056818181818,1
2024-06-15 11:36:59,0.006108652335,-0.05497787148,-0.1576032341,0.06224924326,-9.655815125,3.780444384,-1761.5393258426966,2581.9101123595506,-275.123595505618,-7096.460674157303,3297.696629213483,-3264.011235955056,1
2024-06-15 11:37:00,0.006108652335,-0.05497787148,-0.1576032341,0.06224924326,-9.655815125,3.780444384,-825.8522727272727,1219.3636363636365,-54.46590909090909,-6789.159090909091,3589.204545454545,-3417.8977272727275,1
2024-06-15 11:37:00,-0.1588249654,0.07574728876,0.1111774743,-0.2992752194,-9.277531624,3.600879431,-299.80645161290323,905.6129032258063,72.7741935483871,-6671.086021505376,3521.322580645161,-3315.5913978494623,1
2024-06-15 11:37:00,-0.1588249654,0.07574728876,0.1111774743,0.5339069963,-9.18894577,3.691859007,87.23809523809524,379.6666666666667,-275.4761904761905,-6329.380952380952,3673.4761904761904,-3620.285714285714,1
2024-06-15 11:37:00,-0.2235766798,0.05986479297,0.04764748737,0.5339069963,-9.18894577,3.691859007,-35.96629213483146,244.17977528089887,-298.6179775280899,-6478.426966292135,3597.932584269663,-3626.494382022472,1
2024-06-15 11:37:00,-0.00244346098,0.05009094998,0.1123992056,0.2466027737,-8.918401718,3.797203779,-126.80898876404494,-20.98876404494382,87.28089887640449,-6442.303370786517,3316.8651685393256,-3631.775280898876,1
2024-06-15 11:37:00,-0.00244346098,0.05009094998,0.1123992056,0.2466027737,-8.918401718,3.797203779,-231.7752808988764,11.629213483146067,53.674157303370784,-6202.191011235955,3224.6067415730336,-3372.1573033707864,1
2024-06-15 11:37:00,0.04886921868,-0.0354301855,-0.03787364438,0.4764461517,-9.279925346,3.265691042,-95.57777777777778,-98.71111111111112,265.5111111111111,-6580.644444444444,3737.088888888889,-3622.6,1
2024-06-15 11:37:00,0.05253441259,-0.03420845419,-0.05619960278,0.117315881,-9.081207275,4.197035789,2.5411764705882405,-314.2470588235294,70.47058823529412,-6370.435294117647,3888.223529411765,-3562.658823529412,1
2024-06-15 11:37:00,0.05253441259,-0.03420845419,-0.05619960278,0.117315881,-9.081207275,4.197035789,-189.16666666666663,-272.55555555555554,-302.55555555555554,-6459.333333333333,3542.5,-3423.277777777778,1
2024-06-15 11:37:00,0.1221730486,0.03176499158,0.1185078546,0.2011129409,-9.255983353,4.371812344,-169.18493150684932,-265.75342465753425,33.02739726027397,-6517.157534246576,3476.0376712328766,-3295.9349315068494,1
2024-06-15 11:37:01,0.1221730486,0.03176499158,0.1185078546,0.2011129409,-9.255983353,4.371812344,-212.33561643835617,-208.2191780821917,-27.246575342465743,-6520.582191780822,3468.160958904109,-3364.0856164383563,1
2024-06-15 11:37:01,0.08552113175,-0.0109955743,0.007330383174,0.3423708379,-9.006986618,4.062960148,-255.486301369863,-150.68493150684932,-87.5205479452055,-6524.006849315068,3460.2842465753424,-3432.236301369863,1
2024-06-15 11:37:01,-0.2125810981,0.03054326214,-0.06352998316,0.2082955539,-9.375694275,4.185064793,448.53333333333336,183.7,-527.7333333333333,-6316.433333333333,3908.733333333333,-3442.866666666667,1
2024-06-15 11:37:01,-0.2125810981,0.03054326214,-0.06352998316,0.2082955539,-9.375694275,4.185064793,590.4878048780488,211.5487804878049,-761.5121951219512,-6429.182926829269,3618.060975609756,-3409.19512195122,1
2024-06-15 11:37:01,0.06963863969,0.00122173049,-0.02443460934,0.3663128614,-9.054870605,3.804386616,453.9559748427673,705.2830188679245,-726.3899371069183,-6157.176100628931,3183.0188679245284,-3653.522012578616,1
2024-06-15 11:37:01,-0.1478293836,0.003665191587,-0.09407325089,0.3136404157,-9.734824181,3.294421434,588.5471698113207,954.3396226415094,-962.867924528302,-6418.811320754717,3139.622641509434,-3986.22641509434,1
2024-06-15 11:37:01,-0.1478293836,0.003665191587,-0.09407325089,0.3136404157,-9.734824181,3.294421434,1214.3058823529411,-162.94117647058823,-250.04705882352943,-6300.35294117647,2298.5176470588235,-4080.658823529412,1
2024-06-15 11:37:01,0.05253441259,-0.008552113548,-0.0354301855,0.1867477298,-9.629479408,3.823540211,1482.8202247191011,-154.79775280898878,272.34831460674155,-6334.91011235955,2580.775280898876,-4292.516853932584,1
2024-06-15 11:37:01,0.05253441259,-0.008552113548,-0.0354301855,0.1867477298,-9.629479408,3.823540211,1359.5454545454545,-226.3636363636364,95.45454545454544,-6707.636363636364,2588.818181818182,-4385.454545454545,1
2024-06-15 11:37:01,-0.007330383174,-0.05497787148,0.007330383174,0.08619125932,-9.763554573,3.531447411,2533.0,76.66666666666666,-683.6666666666666,-6278.166666666667,1790.1666666666667,-4035.5,1
2024-06-15 11:37:02,0.03787364438,0.0,-0.05375614017,0.3064578176,-9.56004715,3.521870613,2858.2696629213483,399.96629213483146,-789.6966292134831,-6380.213483146067,2125.044943820225,-4670.213483146067,1
2024-06-15 11:37:02,0.03787364438,0.0,-0.05375614017,0.3064578176,-9.56004715,3.521870613,1742.031914893617,765.9787234042553,-619.0212765957447,-6482.617021276596,2052.5,-4918.670212765957,1
2024-06-15 11:37:02,-0.2186897546,0.0354301855,0.1270599663,0.07422025502,-10.44590187,3.440467834,-29.46341463414634,525.390243902439,-406.5365853658537,-6484.048780487805,1597.560975609756,-4945.048780487805,1
2024-06-15 11:37:02,-1.075122833,-0.06719517708,0.1881465018,0.1963245422,-8.200140953,4.38617754,-541.752688172043,365.9032258064516,-496.9354838709677,-6218.623655913979,1361.7096774193549,-4956.677419354839,1
2024-06-15 11:37:02,-1.075122833,-0.06719517708,0.1881465018,0.1963245422,-8.200140953,4.38617754,-407.98823529411766,165.8470588235294,-410.8588235294118,-6334.823529411765,1202.6235294117646,-4978.858823529412,1
2024-06-15 11:37:02,2.792876005,0.8930850029,-0.3530801237,0.1628057212,-7.524975777,-0.5267243981,-349.5168539325843,-80.65168539325842,-334.8314606741573,-6463.820224719101,1316.5280898876404,-4940.224719101124,1
2024-06-15 11:37:02,2.792876005,0.8930850029,-0.3530801237,0.1628057212,-7.524975777,-0.5267243981,-325.3033707865169,-3.932584269662925,-543.123595505618,-6064.719101123596,1143.3483146067415,-4988.213483146067,1
2024-06-15 11:37:02,-0.7000515461,0.2590068579,0.1172861308,-0.3327940404,-9.066842079,5.228936672,-392.77777777777777,221.22222222222223,-558.3888888888889,-6376.222222222223,1010.5555555555557,-4978.166666666667,1
2024-06-15 11:37:02,-1.99997282,0.009773843922,-0.2138028294,0.2633621991,-13.58948898,2.870647907,-439.13186813186815,243.7032967032967,-402.7802197802198,-6084.956043956044,923.3186813186812,-4858.571428571428,1
2024-06-15 11:37:02,-1.99997282,0.009773843922,-0.2138028294,0.2633621991,-13.58948898,2.870647907,-582.8720930232558,357.80232558139534,-338.98837209302326,-6108.116279069767,955.8837209302326,-4850.383720930233,1
2024-06-15 11:37:03,0.1356120855,-0.1539380401,-0.01343903504,0.6081272364,-9.694122314,3.837905407,24.203703703703702,-119.35185185185183,348.5925925925926,-6178.240740740741,1342.2222222222222,-4819.055555555556,1
2024-06-15 11:37:03,0.1356120855,-0.1539380401,-0.01343903504,0.2944868207,-9.651026726,3.991134167,-35.67283950617284,-64.41358024691358,501.679012345679,-6119.598765432099,1382.962962962963,-4820.907407407408,1
2024-06-15 11:37:03,0.2174680233,-0.06108652428,-0.1246165112,0.2944868207,-9.651026726,3.991134167,-49.18181818181818,-169.45454545454547,-80.81818181818181,-6042.727272727273,1396.1818181818182,-4845.0,1
2024-06-15 11:37:03,-0.07452555746,0.09407325089,0.08429940045,-0.1221042871,-9.476250648,3.260902643,344.2022471910112,-394.2134831460674,-64.15730337078651,-6116.921348314607,1302.415730337079,-4848.820224719101,1
2024-06-15 11:37:03,-0.07452555746,0.09407325089,0.08429940045,-0.1221042871,-9.476250648,3.260902643,124.5,-544.5,-142.5,-6109.5,1349.5,-4770.5,1
2024-06-15 11:37:03,0.09773843735,0.02809980139,0.08063421398,0.316034615,-9.279925346,3.936067581,115.82758620689656,-120.65517241379312,-51.67816091954023,-6064.83908045977,1315.574712643678,-4716.609195402299,1
2024-06-15 11:37:03,0.009773843922,-0.02076941915,0.00244346098,0.282515794,-9.564835548,4.003105164,215.0909090909091,265.3636363636364,74.36363636363637,-6386.727272727273,1381.1818181818182,-4567.090909090909,1
2024-06-15 11:37:03,0.009773843922,-0.02076941915,0.00244346098,0.282515794,-9.564835548,4.003105164,-28.426966292134807,335.1123595505618,-287.370786516854,-6107.033707865168,1343.9213483146068,-4831.067415730337,1
2024-06-15 11:37:03,-0.009773843922,-0.004886921961,-0.02565634064,0.3088520169,-9.385271072,3.833117008,-536.4457831325301,153.42168674698797,-141.7831325301205,-6475.819277108434,1391.301204819277,-4845.421686746988,1
2024-06-15 11:37:03,-0.009773843922,-0.004886921961,-0.02565634064,0.3088520169,-9.385271072,3.833117008,-1366.5876288659792,-377.0,-98.03092783505156,-6145.505154639175,1005.40206185567,-4970.298969072165,1
2024-06-15 11:37:04,-0.009773843922,0.0,0.01221730467,0.3758896589,-9.160215378,3.653551817,-1192.9550561797753,-144.2134831460674,407.5955056179776,-6420.067415730337,1830.820224719101,-4852.3258426966295,1
2024-06-15 11:37:04,0.109955743,0.00122173049,-0.06230825558,0.3351882398,-8.911218643,3.888183594,-3197.590909090909,-636.5795454545455,759.2386363636364,-6359.897727272727,1996.590909090909,-4717.795454545455,1
2024-06-15 11:37:04,0.109955743,0.00122173049,-0.06230825558,0.3351882398,-8.911218643,3.888183594,-2194.674157303371,-583.561797752809,487.5955056179776,-6146.426966292135,2073.4044943820227,-4061.9438202247193,1
2024-06-15 11:37:04,0.09651670605,-0.03420845419,-0.08429940045,0.2298433632,-9.488221169,3.742137194,-491.5,-368.5,555.0,-6435.0,2527.0,-3982.0,1
2024-06-15 11:37:04,-0.2272418737,0.0720821023,0.08307767659,0.5243301988,-9.069235802,3.41892004,-161.6279069767442,-221.82558139534885,577.8255813953489,-6441.1511627906975,2785.1976744186045,-4165.232558139535,1
2024-06-15 11:37:04,-0.2272418737,0.0720821023,0.08307767659,0.5243301988,-9.069235802,3.41892004,-236.7303370786517,-259.29213483146066,537.7752808988764,-6128.415730337079,3120.550561797753,-4196.2808988764045,1
2024-06-15 11:37:04,0.161268428,-0.06475171447,-0.09529497474,0.3543418646,-9.48343277,4.153939724,-603.1348314606741,-58.6629213483146,85.92134831460675,-6100.853932584269,3102.47191011236,-4173.550561797752,1
2024-06-15 11:37:04,0.161268428,-0.06475171447,-0.09529497474,0.3543418646,-9.48343277,4.153939724,-98.04347826086956,-40.0,-176.56521739130434,-6099.913043478261,2853.086956521739,-4134.0,1
2024-06-15 11:37:04,-0.07574728876,0.03665191308,0.04764748737,0.2920926213,-9.342175484,4.036623955,54.280373831775705,-6.355140186915888,-147.803738317757,-6183.626168224299,2902.373831775701,-4123.429906542056,1
2024-06-15 11:37:04,0.1698205322,-0.05742133409,-0.04642575979,0.4932055473,-9.222464561,4.206612587,212.53846153846155,-28.884615384615383,-253.69230769230768,-6103.7307692307695,2736.1153846153848,-4000.4615384615386,1
2024-06-15 11:37:05,0.1698205322,-0.05742133409,-0.04642575979,0.4932055473,-9.222464561,4.206612587,1026.0,71.75280898876404,114.6741573033708,-6316.662921348315,2490.123595505618,-4145.426966292135,1
2024-06-15 11:37:05,0.2370157093,-0.03909537569,-0.06475171447,0.1699883193,-9.490615845,4.276044369,2009.6966292134832,301.39325842696627,-25.04494382022472,-6072.348314606742,2489.112359550562,-4459.730337078651,1
2024-06-15 11:37:05,-0.02076941915,0.01588249579,0.02565634064,0.01197100803,-9.387664795,4.043806553,1006.1627906976744,107.72093023255816,52.95348837209302,-6231.720930232558,2381.488372093024,-4615.116279069767,1
2024-06-15 11:37:05,-0.02076941915,0.01588249579,0.02565634064,0.01197100803,-9.387664795,4.043806553,820.967032967033,333.02197802197804,-53.85714285714285,-6053.461538461538,2342.263736263736,-4713.879120879121,1
2024-06-15 11:37:05,0.03909537569,-0.008552113548,-0.09773843735,0.4860229492,-8.925583839,4.65193367,541.6551724137931,32.586206896551715,-22.241379310344826,-6046.241379310345,2348.689655172414,-4511.6551724137935,1
2024-06-15 11:37:05,0.03909537569,-0.008552113548,-0.09773843735,0.4860229492,-8.925583839,4.65193367,16.116279069767415,347.59302325581393,-586.9883720930233,-6206.302325581395,1959.3953488372088,-4571.2558139534885,1
2024-06-15 11:37:05,0.228463605,0.03909537569,-0.1979203373,0.5793967843,-8.429984093,4.49870491,85.5909090909091,149.13636363636363,-602.5454545454545,-6211.318181818182,2100.3636363636365,-4916.181818181818,1
2024-06-15 11:37:05,0.7648032904,-0.1001819,-0.08796459436,-0.1436520964,-9.165003777,4.558559895,-268.9340659340659,242.34065934065933,-522.7142857142857,-6153.802197802198,1717.7362637362637,-4789.054945054945,1
2024-06-15 11:37:05,0.7648032904,-0.1001819,-0.08796459436,-0.1436520964,-9.165003777,4.558559895,117.438202247191,-15.078651685393258,38.53932584269663,-6177.224719101124,1752.0449438202247,-4787.0,1
2024-06-15 11:37:05,-1.656666517,0.07696902007,0.07330382615,0.09576806426,-11.0133276,3.423708439,-334.7333333333333,3.200000000000003,3.933333333333333,-5812.266666666666,1688.2666666666669,-4779.266666666666,1
2024-06-15 11:37:06,-0.6072000265,0.106290549,-0.2932153046,0.3950432837,-6.488286495,1.357512355,-219.7674418604651,258.2093023255814,-104.6046511627907,-6158.581395348837,1705.3953488372092,-4780.813953488372,1
2024-06-15 11:37:06,-0.6072000265,0.106290549,-0.2932153046,0.3950432837,-6.488286495,1.357512355,35.0,-92.0,-25.0,-5940.0,1911.5,-4761.5,1
2024-06-15 11:37:06,-0.02565634064,-0.1551597714,0.3946189582,0.2920926213,-16.18480301,-1.848323703,-223.9120879120879,27.923076923076923,104.42857142857144,-6095.351648351649,2081.824175824176,-4866.065934065934,1
2024-06-15 11:37:06,-0.02565634064,-0.1551597714,0.3946189582,0.2920926213,-16.18480301,-1.848323703,-343.07272727272726,-286.44848484848484,115.62424242424242,-6204.10303030303,1765.739393939394,-4870.0,1
2024-06-15 11:37:06,3.095865011,0.3200933933,-0.08918632567,0.1867477298,-9.217676163,2.669534922,-301.25454545454545,-145.23636363636365,115.01818181818182,-6186.527272727273,1757.2545454545457,-4870.0,1
2024-06-15 11:37:06,1.098335743,0.05375614017,0.02687807009,-0.5770025849,-8.406042099,2.264914751,182.66666666666663,-17.72222222222222,295.8888888888889,-6142.888888888889,2107.055555555556,-4790.222222222223,1
2024-06-15 11:37:06,1.098335743,0.05375614017,0.02687807009,-0.5770025849,-8.406042099,2.264914751,-162.3033707865169,96.95505617977528,-310.39325842696627,-6156.483146067416,1902.6966292134832,-4916.730337078651,1
2024-06-15 11:37:06,0.1918116808,-0.1979203373,0.02565634064,0.1843535304,-8.748413086,4.115632534,-248.5340909090909,-56.39772727272727,41.98863636363636,-6194.704545454545,1684.8522727272727,-4905.0,1
2024-06-15 11:37:06,-0.1478293836,0.02076941915,-0.06841690838,0.4165911078,-9.239224434,3.828328609,-46.73033707865169,-228.2022471910112,-68.56179775280899,-6061.202247191011,1988.752808988764,-4935.921348314607,1
2024-06-15 11:37:06,-0.1478293836,0.02076941915,-0.06841690838,0.4165911078,-9.239224434,3.828328609,-107.0681818181818,138.8181818181818,-114.4090909090909,-6171.0,2024.272727272728,-4880.545454545455,1
2024-06-15 11:37:07,0.01588249579,0.0109955743,0.07941248268,1.039083481,-8.643068314,4.611232281,-1096.7078651685392,-306.5393258426966,-82.56179775280899,-6160.168539325843,2200.2808988764045,-4953.191011235955,1
2024-06-15 11:37:07,0.01588249579,0.0109955743,0.07941248268,1.039083481,-8.643068314,4.611232281,-3868.5365853658536,-599.609756097561,310.0731707317073,-6139.09756097561,2466.292682926829,-4504.292682926829,1
2024-06-15 11:37:07,0.1038470939,-0.07574728876,-0.1111774743,0.6703764796,-9.677363396,4.352658749,-4007.909407665505,-532.01393728223,303.10452961672473,-6248.8536585365855,2538.418118466899,-4547.84668989547,1
2024-06-15 11:37:07,-0.1221730486,-0.01221730467,0.02443460934,0.8930372596,-9.339780807,3.847482204,-4147.282229965157,-464.4181184668989,296.13588850174216,-6358.609756097561,2610.5435540069684,-4591.400696864112,1
2024-06-15 11:37:07,-0.1221730486,-0.01221730467,0.02443460934,0.8930372596,-9.339780807,3.847482204,-1610.155172413793,-284.6724137931035,248.5344827586207,-6047.0,2846.7241379310344,-3842.879310344827,1
2024-06-15 11:37:07,-0.6145304441,0.08307767659,-0.05375614017,0.1939303428,-9.392453194,2.944868088,-65.65882352941176,-88.48235294117647,96.56470588235294,-6436.929411764706,2946.0941176470587,-4121.564705882353,1
2024-06-15 11:37:07,-0.6145304441,0.08307767659,-0.05375614017,0.1939303428,-9.392453194,2.944868088,559.6153846153846,-275.0,-111.0989010989011,-6461.714285714285,3145.076923076923,-4169.065934065934,1
2024-06-15 11:37:07,0.3225368559,-0.0171042271,0.0232128799,0.4812345505,-9.255983353,3.960009575,1092.6470588235295,-729.4470588235295,64.4235294117647,-6450.682352941177,2805.752941176471,-4121.8117647058825,1
2024-06-15 11:37:07,-0.0415388383,0.05619960278,-0.05864306539,0.9457096457,-8.693346024,4.189853191,1244.2068965517242,-1132.0,392.5862068965517,-6721.793103448276,2713.862068965517,-3871.448275862069,1
2024-06-15 11:37:07,-0.0415388383,0.05619960278,-0.05864306539,0.9457096457,-8.693346024,4.189853191,1249.534090909091,-1246.2386363636365,527.4318181818182,-6326.079545454545,2887.7954545454545,-3712.159090909091,1
2024-06-15 11:37:08,0.2785545588,-0.02443460934,-0.125838235,0.6105214357,-8.961497307,4.343081951,1310.185393258427,-1087.3988764044943,573.2584269662922,-6708.331460674157,2765.9269662921347,-3858.5842696629215,1
2024-06-15 11:37:08,0.01588249579,-0.003665191587,0.05009094998,-0.2250549644,-9.646238327,3.983951569,1290.5224719101125,-1093.5786516853932,751.9101123595506,-6585.297752808989,2767.612359550562,-3845.1011235955057,1
2024-06-15 11:37:08,0.01588249579,-0.003665191587,0.05009094998,-0.2250549644,-9.646238327,3.983951569,1705.4268292682927,-1696.439024390244,715.9634146341464,-6753.109756097561,2652.5853658536585,-3348.731707317073,1
2024-06-15 11:37:08,0.08063421398,-0.00122173049,0.0720821023,0.4189853072,-8.808267593,4.608838081,2486.722222222222,-2324.3888888888887,736.3888888888889,-7153.888888888889,2496.555555555556,-3265.111111111112,1
2024-06-15 11:37:08,0.08063421398,-0.00122173049,0.0720821023,0.4189853072,-8.808267593,4.608838081,2630.5,-3095.909090909091,944.4545454545456,-7229.090909090909,2650.2272727272725,-3161.818181818182,1
2024-06-15 11:37:08,-0.1050688252,0.00244346098,-0.05619960278,0.9121908545,-8.856152534,4.541800499,2390.1666666666665,-2761.1666666666665,1615.5,-7104.333333333333,2543.833333333333,-2522.1666666666665,1
2024-06-15 11:37:08,0.1893682331,-0.06108652428,-0.125838235,0.1939303428,-9.107542992,4.23294878,1693.506329113924,-1993.0632911392408,1318.126582278481,-7217.7594936708865,3090.962025316456,-2391.9240506329115,1
2024-06-15 11:37:08,0.1893682331,-0.06108652428,-0.125838235,0.1939303428,-9.107542992,4.23294878,1217.9,-2090.766666666667,731.5666666666666,-7351.433333333333,2832.5333333333333,-2002.3666666666668,1
2024-06-15 11:37:08,0.07330382615,-0.00244346098,0.04886921868,-0.1364694983,-9.619902611,4.168305397,991.9540229885056,-2176.0344827586205,543.8620689655172,-7540.747126436781,2830.597701149425,-1688.0114942528735,1
2024-06-15 11:37:08,0.07330382615,-0.00244346098,0.04886921868,0.4477157295,-7.778761387,5.23611927,957.8461538461538,-1984.384615384616,543.3846153846154,-7707.0,2778.923076923077,-1426.6923076923076,1
2024-06-15 11:37:09,-0.2186897546,0.07819075137,0.006108652335,0.4477157295,-7.778761387,5.23611927,1062.6516853932585,-1580.415730337079,565.7078651685393,-7359.797752808989,2997.8988764044943,-851.314606741573,1
2024-06-15 11:37:09,0.1270599663,-0.01832595654,-0.07819075137,0.3878606856,-9.428366661,3.732560396,294.0,-803.7931034482758,545.0574712643678,-7669.229885057472,3300.2183908045977,-822.5172413793103,1
2024-06-15 11:37:09,0.1270599663,-0.01832595654,-0.07819075137,0.3878606856,-9.428366661,3.732560396,-76.94252873563218,-682.7126436781609,298.11494252873564,-7743.206896551724,3181.1264367816093,-492.3448275862069,1
2024-06-15 11:37:09,0.235793978,-0.1026253626,-0.02687807009,0.4548983276,-9.713275909,4.079719543,250.88888888888889,-544.2777777777778,-15.38888888888889,-7775.222222222223,3028.111111111112,-427.27777777777777,1
2024-06-15 11:37:09,0.4153883755,0.4471533597,0.02809980139,0.4189853072,-8.789113998,5.365406036,60.57471264367816,-222.71264367816093,319.8735632183908,-7800.712643678161,3176.4137931034484,-574.5172413793103,1
2024-06-15 11:37:09,0.4153883755,0.4471533597,0.02809980139,0.4189853072,-8.789113998,5.365406036,173.45263157894738,-47.38947368421053,208.31578947368425,-7787.452631578947,3375.484210526316,-590.3473684210526,1
2024-06-15 11:37:09,-0.5253441334,-0.007330383174,-0.1331686229,0.758961916,-9.665391922,3.861847401,-286.1764705882353,-242.58823529411765,225.1764705882353,-7710.470588235294,3425.235294117647,-411.2941176470589,1
2024-06-15 11:37:09,-0.5253441334,-0.007330383174,-0.1331686229,0.758961916,-9.665391922,3.861847401,59.26190476190476,72.28571428571429,81.02380952380952,-7757.238095238095,3383.4523809523807,-236.0952380952381,1
2024-06-15 11:37:09,0.05497787148,0.01954768784,0.0354301855,0.8403648138,-8.576030731,4.42209053,34.857142857142854,61.57142857142857,94.71428571428572,-7769.142857142857,3243.5714285714284,-240.8571428571429,1
2024-06-15 11:37:09,-0.04276056588,0.01832595654,0.106290549,0.4141969085,-9.222464561,4.455609322,40.0,36.888888888888886,36.0,-7744.277777777777,3357.111111111112,-310.83333333333337,1
2024-06-15 11:37:10,-0.04276056588,0.01832595654,0.106290549,0.4141969085,-9.222464561,4.455609322,48.38636363636364,104.8409090909091,19.727272727272727,-7735.704545454545,3340.4772727272725,-227.47727272727272,1
2024-06-15 11:37:10,0.08307767659,0.08674286306,0.06352998316,1.012747288,-8.549694061,4.199429989,37.22222222222223,329.22222222222223,59.27777777777778,-7611.333333333333,3267.222222222222,-562.8888888888889,1
2024-06-15 11:37:10,0.1698205322,-0.06963863969,-0.1209513173,0.653617084,-9.131484985,4.517858505,-561.0,-341.22222222222223,-315.8333333333333,-7757.944444444444,3351.611111111112,-365.77777777777777,1
2024-06-15 11:37:10,0.1698205322,-0.06963863969,-0.1209513173,0.653617084,-9.131484985,4.517858505,-56.93181818181818,59.94318181818181,-229.52272727272725,-7734.931818181818,3123.840909090909,-205.60227272727275,1
2024-06-15 11:37:10,0.2370157093,-0.06841690838,-0.05986479297,0.2178723514,-9.411606789,4.144362926,-235.25,287.75,-322.25,-7737.5,3248.5,-577.5,1
2024-06-15 11:37:10,0.2370157093,-0.06841690838,-0.05986479297,0.2178723514,-9.411606789,4.144362926,-101.65116279069768,-84.83720930232559,-344.5581395348837,-7635.558139534884,3377.6976744186045,-578.3488372093024,1
2024-06-15 11:37:10,-0.1111774743,0.0,0.02809980139,-0.08379705995,-9.239224434,4.161122322,-153.0,-331.5,-287.0,-7782.0,3103.0,-192.5,1
2024-06-15 11:37:10,-0.2260201424,0.04886921868,0.02199114859,0.01675941236,-8.968679428,4.115632534,-104.33333333333334,-189.94444444444449,-80.66666666666666,-7651.777777777777,3281.222222222222,-185.0,1
2024-06-15 11:37:10,-0.2260201424,0.04886921868,0.02199114859,0.01675941236,-8.968679428,4.115632534,-225.44444444444449,65.27777777777777,20.666666666666664,-7742.777777777777,3136.777777777778,-232.0,1
2024-06-15 11:37:10,-0.08429940045,0.01954768784,0.1087340117,0.5123591423,-8.777143478,4.747702122,-266.03370786516854,-260.0224719101124,-502.75280898876406,-7626.044943820225,3188.5280898876404,-502.8876404494382,1
2024-06-15 11:37:11,-0.004886921961,0.04886921868,0.09773843735,1.103726983,-8.561665535,4.137180328,-505.36470588235295,-807.4941176470588,-1109.5058823529412,-8032.282352941176,3218.5882352941176,-229.2,1
2024-06-15 11:37:11,-0.004886921961,0.04886921868,0.09773843735,1.103726983,-8.561665535,4.137180328,-1094.6511627906978,-1245.4186046511627,-2138.6744186046512,-8057.744186046511,2568.6279069767443,137.7906976744186,1
2024-06-15 11:37:11,0.01588249579,-0.0354301855,-0.07574728876,0.4165911078,-9.21528244,4.604049683,-673.1666666666666,-1182.3333333333333,-1683.3333333333333,-7882.833333333333,2008.8333333333333,492.3333333333333,1
2024-06-15 11:37:11,0.01588249579,-0.0354301855,-0.07574728876,0.4165911078,-9.21528244,4.604049683,-603.7317073170732,25.707317073170728,-461.8780487804878,-7900.804878048781,2078.9024390243903,421.1951219512195,1
2024-06-15 11:37:11,0.01832595654,0.09162978828,-0.07574728876,0.3711012602,-8.595184326,5.303156853,-556.780487804878,399.4878048780488,-65.53658536585368,-8141.658536585366,2111.829268292683,430.3414634146341,1
2024-06-15 11:37:11,-0.04886921868,0.05864306539,0.0720821023,1.927332401,-8.329427719,4.280832767,267.2413793103448,331.4482758620689,-16.862068965517242,-7906.0,2232.0344827586205,390.2068965517241,1
2024-06-15 11:37:11,-0.04886921868,0.05864306539,0.0720821023,1.927332401,-8.329427719,4.280832767,-171.0,-89.4,245.6,-8288.0,2216.8,573.0,1
2024-06-15 11:37:11,0.01221730467,-0.05131268129,-0.07574728876,0.5746083856,-9.500192642,4.240131378,7.8965517241379075,64.50574712643677,567.1034482758621,-7946.942528735633,2466.862068965517,616.264367816092,1
2024-06-15 11:37:11,0.01221730467,-0.05131268129,-0.07574728876,0.5961562395,-9.543288231,4.797980309,-93.125,83.3409090909091,341.27272727272725,-7821.556818181818,2671.784090909091,586.3863636363636,1
2024-06-15 11:37:11,0.1918116808,-0.05742133409,0.1148426682,0.5961562395,-9.543288231,4.797980309,-23.615384615384617,-44.23076923076923,-52.69230769230769,-7866.846153846154,2481.0,238.15384615384613,1
2024-06-15 11:37:12,-0.2089159191,0.05497787148,-0.02076941915,0.8643068075,-10.08916569,4.249708176,-309.3103448275862,29.20689655172414,-118.75862068965516,-7867.103448275862,2457.655172413793,542.3448275862069,1
2024-06-15 11:37:12,-0.2089159191,0.05497787148,-0.02076941915,0.8643068075,-10.08916569,4.249708176,-249.632183908046,64.67816091954023,46.172413793103445,-7822.333333333333,2617.551724137931,563.2988505747127,1
2024-06-15 11:37:12,-0.1759291887,0.07330382615,0.07330382615,0.5817909837,-8.798690796,3.928884983,77.88764044943821,116.80898876404494,75.96629213483146,-7851.606741573034,2467.14606741573,522.3483146067416,1
2024-06-15 11:37:12,-0.1087340117,0.03298672289,0.125838235,0.4740519226,-9.48343277,4.19464159,-308.5280898876405,-82.15730337078652,-92.25842696629212,-7816.0,2634.449438202247,243.7078651685393,1
2024-06-15 11:37:12,-0.1087340117,0.03298672289,0.125838235,0.4740519226,-9.48343277,4.19464159,-122.7471264367816,282.1609195402299,-316.1954022988506,-8050.689655172414,2574.4827586206898,217.55172413793105,1
2024-06-15 11:37:12,0.08552113175,-0.0720821023,0.04886921868,0.940921247,-8.983044624,4.400542736,60.901098901098905,65.24175824175825,64.2967032967033,-7876.307692307692,2273.4065934065934,212.27472527472528,1
2024-06-15 11:37:12,0.08552113175,-0.0720821023,0.04886921868,0.940921247,-8.983044624,4.400542736,177.8068181818182,25.84090909090909,-24.13636363636364,-7884.0,2547.284090909091,235.97727272727272,1
2024-06-15 11:37:12,0.01221730467,0.01588249579,-0.02443460934,0.9145850539,-9.042900085,3.94085598,-259.6179775280899,42.15730337078652,-70.11235955056179,-8026.943820224719,2460.314606741573,541.6179775280899,1
2024-06-15 11:37:12,0.1673770845,-0.03787364438,-0.09773843735,0.383072257,-8.975862503,4.213795185,-301.735632183908,-113.93103448275863,50.54022988505747,-7828.310344827586,2582.4827586206898,595.6206896551724,1
2024-06-15 11:37:12,0.1673770845,-0.03787364438,-0.09773843735,0.383072257,-8.975862503,4.213795185,-203.4,-39.121212121212125,3.012121212121212,-7852.79393939394,2480.448484848485,212.9272727272728,1
2024-06-15 11:37:13,-0.02565634064,0.004886921961,0.04764748737,0.06703764945,-9.15063858,4.302380562,-223.4,-45.18181818181818,3.618181818181818,-7842.490909090909,2602.8727272727274,209.29090909090908,1
2024-06-15 11:37:13,0.01343903504,0.01588249579,0.04031710699,0.5841852427,-8.83699894,4.034229755,-45.0,-54.75,-98.75,-7889.25,2476.0,147.0,1
2024-06-15 11:37:13,0.01343903504,0.01588249579,0.04031710699,0.5841852427,-8.83699894,4.034229755,-81.96808510638297,3.914893617021278,-107.84042553191487,-7890.787234042553,2496.063829787234,172.82978723404256,1
2024-06-15 11:37:13,0.05009094998,-0.02687807009,-0.01832595654,0.1029506698,-9.603142738,3.876212597,-231.68604651162792,74.98837209302326,64.46511627906978,-7833.767441860465,2582.546511627907,393.9418604651163,1
2024-06-15 11:37:13,0.05009094998,-0.02687807009,-0.01832595654,0.1029506698,-9.603142738,3.876212597,-85.69767441860465,30.36046511627908,86.03488372093024,-7865.302325581395,2490.139534883721,182.53488372093025,1
2024-06-15 11:37:13,0.05619960278,-0.01221730467,-0.04886921868,0.4860229492,-9.770736694,3.394978046,-249.3333333333333,-185.66666666666663,42.0,-7998.0,2596.6666666666665,424.6666666666666,1
2024-06-15 11:37:13,0.02809980139,0.0109955743,0.007330383174,0.5243301988,-9.351752281,3.670311213,-6.454545454545439,53.95454545454545,-295.59090909090907,-7827.159090909091,2517.681818181818,573.2727272727273,1
2024-06-15 11:37:13,0.02809980139,0.0109955743,0.007330383174,0.5243301988,-9.351752281,3.670311213,49.32954545454545,-74.11363636363636,123.4318181818182,-7859.545454545455,2493.840909090909,227.3068181818182,1
2024-06-15 11:37:13,0.06597344577,-0.02199114859,0.0293215327,0.6105214357,-9.320627213,3.97676897,-264.125,-55.89772727272727,-257.39772727272725,-7870.818181818182,2562.215909090909,506.9431818181818,1
2024-06-15 11:37:13,0.004886921961,-0.007330383174,0.05375614017,0.4261679053,-9.708487511,3.351882458,-103.6067415730337,-93.52808988764043,117.62921348314607,-7895.662921348315,2495.325842696629,181.7191011235955,1
2024-06-15 11:37:14,0.004886921961,-0.007330383174,0.05375614017,0.4261679053,-9.708487511,3.351882458,-208.95505617977528,20.528089887640448,61.3370786516854,-7996.943820224719,2607.808988764045,248.8426966292135,1
2024-06-15 11:37:14,-0.02443460934,0.03787364438,0.09773843735,0.7541735172,-9.157821655,3.950432777,-108.04545454545456,-68.86363636363636,113.0909090909091,-7879.0,2487.340909090909,181.0681818181818,1
2024-06-15 11:37:14,-0.02443460934,0.03787364438,0.09773843735,0.7541735172,-9.157821655,3.950432777,-317.34065934065933,72.6043956043956,-12.593406593406598,-7833.252747252747,2541.3296703296705,364.27472527472526,1
2024-06-15 11:37:14,0.02199114859,-0.0109955743,-0.01343903504,0.7972691655,-9.222464561,3.983951569,-58.98876404494382,-31.224719101123583,84.13483146067415,-7863.629213483146,2536.4157303370785,330.67415730337075,1
2024-06-15 11:37:14,-0.2138028294,0.0109955743,-0.02076941915,0.01197100803,-9.921571732,3.60566783,-190.3854748603352,89.07821229050279,-112.2290502793296,-7861.145251396648,2510.9608938547485,200.1564245810056,1
2024-06-15 11:37:14,-0.2138028294,0.0109955743,-0.02076941915,0.01197100803,-9.921571732,3.60566783,-294.29608938547483,44.94413407821229,-104.40782122905028,-7822.039106145251,2483.027932960894,211.88826815642457,1
2024-06-15 11:37:14,-0.1869247705,0.0720821023,0.05864306539,0.3974374831,-9.828198433,3.847482204,15.119565217391305,-253.75,92.7391304347826,-7887.271739130435,2510.554347826087,218.30434782608697,1
2024-06-15 11:37:14,0.01343903504,-0.02199114859,-0.0109955743,0.4046200812,-9.133879662,3.993528366,-54.63636363636363,-54.94318181818182,59.63636363636363,-7848.022727272727,2465.25,514.0795454545455,1
2024-06-15 11:37:14,0.01343903504,-0.02199114859,-0.0109955743,0.4046200812,-9.133879662,3.993528366,-344.77272727272725,92.45454545454544,-77.86363636363636,-7863.636363636364,2494.3636363636365,297.1136363636364,1
2024-06-15 11:37:14,0.008552113548,-0.007330383174,0.106290549,0.4932055473,-9.660603523,3.64158082,47.4468085106383,13.765957446808514,25.606382978723403,-8006.148936170212,2591.521276595745,446.75531914893617,1
2024-06-15 11:37:15,0.008552113548,-0.007330383174,0.106290549,0.4932055473,-9.660603523,3.64158082,-39.364705882352936,123.2470588235294,48.90588235294118,-7841.423529411764,2481.6823529411763,189.28235294117647,1
2024-06-15 11:37:15,0.106290549,-0.04886921868,0.05009094998,0.6847416759,-9.39484787,3.778050184,3.827586206896555,-85.98850574712644,-294.04597701149424,-7846.068965517241,2680.5632183908046,189.9655172413793,1
2024-06-15 11:37:15,0.007330383174,-0.01954768784,-0.1685988009,0.5339069963,-9.603142738,3.840299606,-219.16666666666669,74.22222222222223,-278.5,-7880.777777777777,2492.722222222222,174.16666666666666,1
2024-06-15 11:37:15,0.007330383174,-0.01954768784,-0.1685988009,0.5339069963,-9.603142738,3.840299606,-245.93023255813955,-60.48837209302326,-31.697674418604663,-7851.162790697675,2380.4186046511627,442.90697674418607,1
2024-06-15 11:37:15,0.04764748737,-0.05009094998,-0.0109955743,0.3734954596,-9.543288231,3.634398222,-62.79347826086956,-39.06521739130434,-35.0,-7844.032608695652,2742.032608695652,247.70652173913044,1
2024-06-15 11:37:15,0.04764748737,-0.05009094998,-0.0109955743,0.5817909837,-9.078812599,3.97676897,-415.0919540229885,105.33333333333334,45.62068965517241,-8022.218390804598,2572.5402298850577,595.0574712643678,1
2024-06-15 11:37:15,-0.9297369123,0.1930334121,0.1808161139,0.5817909837,-9.078812599,3.97676897,-370.3181818181818,538.0,-144.04545454545453,-7843.045454545455,2612.954545454545,217.0909090909091,1
2024-06-15 11:37:15,-0.3555235863,0.08552113175,-0.829554975,-0.09816227108,-8.257601738,1.74776721,-233.7977528089888,242.7528089887641,-284.2584269662921,-7971.202247191011,2672.5393258426966,10.280898876404493,1
2024-06-15 11:37:15,-0.3555235863,0.08552113175,-0.829554975,-0.09816227108,-8.257601738,1.74776721,-450.65517241379314,179.82758620689654,-289.0,-8151.091954022989,2628.448275862069,323.9310344827586,1
2024-06-15 11:37:15,0.1356120855,0.2577851415,1.08611846,-1.034295082,-21.93088722,0.7996633649,-794.375,977.625,-202.25,-7679.75,2723.375,48.375,1
2024-06-15 11:37:16,-0.4899139404,0.4728097022,0.09407325089,0.3208230138,-10.35731697,1.261744261,-5462.428571428572,3727.076923076923,164.3736263736264,-7788.659340659341,3377.670329670329,-736.4615384615385,1
2024-06-15 11:37:16,-0.4899139404,0.4728097022,0.09407325089,0.3208230138,-10.35731697,1.261744261,-8381.695652173914,5102.652173913043,521.0434782608695,-7778.086956521739,2679.260869565217,-717.7391304347826,1
2024-06-15 11:37:16,-0.07574728876,-0.06597344577,0.07452555746,0.2681505978,-9.244012833,4.118026733,-6649.892857142857,4402.75,111.77380952380952,-7971.297619047619,2692.809523809524,-947.3571428571428,1
2024-06-15 11:37:16,-0.07574728876,-0.06597344577,0.07452555746,0.2681505978,-9.244012833,4.118026733,-3887.295454545456,2871.568181818182,-322.0,-7699.818181818182,3126.0,-1286.4545454545455,1
2024-06-15 11:37:16,-0.03298672289,0.05619960278,-0.007330383174,0.7517793179,-8.35097599,3.995922565,-1910.093023255814,1970.2325581395348,-548.8837209302326,-7302.674418604651,3397.6046511627906,-1619.953488372093,1
2024-06-15 11:37:16,0.09651670605,-0.03054326214,-0.06475171447,0.9289502501,-9.047688484,4.218583584,-222.5505617977528,915.8426966292136,5.370786516853933,-7511.561797752809,3253.629213483146,-1709.2921348314608,1
2024-06-15 11:37:16,0.09651670605,-0.03054326214,-0.06475171447,0.9289502501,-9.047688484,4.218583584,-95.95402298850574,446.6781609195402,21.77011494252873,-7111.0114942528735,3570.2183908045977,-2100.114942528736,1
2024-06-15 11:37:16,0.1832595766,-0.08918632567,-0.05375614017,0.4644751251,-9.402029991,4.012681961,-120.6842105263158,733.7894736842105,-327.6842105263158,-7050.631578947368,3268.157894736842,-1970.1052631578948,1
2024-06-15 11:37:16,0.09407325089,-0.02565634064,-0.05864306539,0.2394201756,-9.229647636,3.998316765,-60.29032258064516,587.8494623655914,-335.55913978494624,-7065.462365591397,3312.2903225806454,-2009.043010752688,1
2024-06-15 11:37:16,0.09407325089,-0.02565634064,-0.05864306539,0.2394201756,-9.229647636,3.998316765,381.52941176470586,372.05882352941177,-165.88235294117646,-7224.882352941177,3379.4117647058824,-2402.5882352941176,1
2024-06-15 11:37:17,0.3152064681,-0.17715092,-0.08796459436,0.55784899,-7.113173485,5.588066578,1023.4615384615385,108.06593406593409,-274.61538461538464,-7152.3626373626375,2996.978021978022,-2211.736263736264,1
2024-06-15 11:37:17,0.3152064681,-0.17715092,-0.08796459436,0.55784899,-7.113173485,5.588066578,1402.1190476190477,-104.71428571428572,-266.7619047619048,-7214.690476190476,3188.9523809523807,-2621.595238095238,1
2024-06-15 11:37:17,-1.387885809,-0.7745771408,2.100154638,0.09097966552,-13.19205093,0.4405331016,1160.8461538461538,262.0769230769231,-54.15384615384616,-7093.692307692308,2992.923076923077,-2460.0,1
2024-06-15 11:37:17,-0.7171558142,-1.936442852,-0.5913175344,-0.6105214357,-6.732495308,6.665457726,623.0,-111.35955056179776,78.11235955056179,-6923.685393258427,3111.505617977528,-2518.5393258426966,1
2024-06-15 11:37:17,-0.7171558142,-1.936442852,-0.5913175344,-0.6105214357,-6.732495308,6.665457726,739.8636363636364,72.86363636363636,-279.40909090909093,-7085.045454545455,2744.7727272727275,-2545.181818181818,1
2024-06-15 11:37:17,-0.161268428,0.02809980139,-0.1050688252,1.726219416,-18.66040802,4.486733913,1287.5632183908046,-266.7011494252873,-258.2183908045977,-7226.942528735633,2489.528735632184,-2856.885057471264,1
2024-06-15 11:37:17,-0.03909537569,-0.1429424733,0.1380555481,-0.1388636976,-9.507374763,3.790021181,2132.681818181818,36.5,-612.7386363636364,-7255.5,2228.034090909091,-2846.6136363636365,1
2024-06-15 11:37:17,-0.03909537569,-0.1429424733,0.1380555481,-0.1388636976,-9.507374763,3.790021181,3179.076923076923,216.84615384615384,-1327.076923076923,-7268.538461538462,1935.076923076923,-2928.3076923076924,1
2024-06-15 11:37:17,0.1527163088,-0.08552113175,-0.05986479297,-0.01197100803,-9.660603523,3.921702385,1918.5529411764703,791.8235294117648,-1330.023529411765,-7259.247058823529,1873.717647058824,-3667.3764705882354,1
2024-06-15 11:37:17,0.1527163088,-0.08552113175,-0.05986479297,-0.01197100803,-9.660603523,3.921702385,802.6153846153846,367.38461538461536,-777.4615384615385,-7210.384615384615,1323.5384615384614,-3559.076923076923,1
2024-06-15 11:37:18,-0.00244346098,0.06841690838,-0.2040289938,-0.3351882398,-9.085995674,3.974374771,319.6823529411765,613.3411764705883,-466.2470588235294,-7121.976470588235,1074.6588235294118,-3529.95294117647,1
2024-06-15 11:37:18,-0.228463605,0.0415388383,0.1514945775,0.9145850539,-9.162610054,4.249708176,198.3333333333333,2.5,-615.3333333333334,-7200.0,1072.3333333333333,-3645.6666666666665,1
2024-06-15 11:37:18,-0.228463605,0.0415388383,0.1514945775,0.9145850539,-9.162610054,4.249708176,377.38461538461536,338.3076923076923,-751.1538461538462,-7156.769230769231,955.3076923076924,-3542.6153846153848,1
2024-06-15 11:37:18,-0.1832595766,0.1038470939,-0.0109955743,0.7757213712,-8.841787338,4.082113743,-922.818181818182,-110.77272727272728,-993.4545454545456,-7144.318181818182,765.5909090909091,-3343.0454545454545,1
2024-06-15 11:37:18,-0.1832595766,0.1038470939,-0.0109955743,0.9074024558,-8.825027466,4.402936935,-749.2888888888889,1496.0777777777778,-2397.0444444444443,-6895.455555555555,335.0777777777778,-3730.155555555556,1
2024-06-15 11:37:18,0.1881465018,-0.06719517708,-0.1014036313,0.9074024558,-8.825027466,4.402936935,-467.7142857142857,1161.7142857142858,-1935.809523809524,-7108.142857142857,317.8095238095238,-4014.5238095238096,1
2024-06-15 11:37:18,0.342084527,-0.02076941915,-0.1514945775,0.653617084,-8.975862503,4.402936935,-581.2954545454545,772.5,-812.1818181818182,-6982.431818181818,-14.84090909090909,-4348.636363636364,1
2024-06-15 11:37:18,0.342084527,-0.02076941915,-0.1514945775,0.653617084,-8.975862503,4.402936935,-517.0,636.5,-530.5,-6651.0,115.0,-4479.0,1
2024-06-15 11:37:18,0.1331686229,-0.0171042271,-0.003665191587,-0.4596867263,-9.538499832,4.544194698,-485.0561797752809,465.0,-488.07865168539325,-6689.550561797752,22.84269662921349,-4340.966292134832,1
2024-06-15 11:37:18,-0.1221730486,0.05375614017,0.05742133409,0.08858546615,-9.366117477,4.024652958,-561.8333333333334,509.77777777777777,-466.55555555555554,-6711.388888888889,-158.05555555555554,-4342.611111111111,1
2024-06-15 11:37:19,-0.1221730486,0.05375614017,0.05742133409,0.08858546615,-9.366117477,4.024652958,-553.7303370786517,444.4943820224719,-152.1573033707865,-6353.865168539326,-70.08988764044943,-4758.786516853933,1
2024-06-15 11:37:19,-0.2186897546,0.07330382615,0.1197295859,0.6799532771,-9.555258751,4.443638325,79.11111111111109,-318.94444444444446,432.94444444444446,-6925.111111111111,269.72222222222223,-4604.0,1
2024-06-15 11:37:19,-0.2186897546,0.07330382615,0.1197295859,0.6799532771,-9.555258751,4.443638325,123.56069364161849,-389.4104046242775,498.3294797687861,-6305.745664739884,337.5780346820809,-4676.0115606936415,1
2024-06-15 11:37:19,-0.006108652335,0.01343903504,-0.0109955743,0.8762778044,-8.913613319,4.616020679,-781.2619047619048,161.04761904761904,328.0238095238095,-6764.619047619048,237.1428571428572,-4715.238095238095,1
2024-06-15 11:37:19,0.1295034289,-0.06841690838,-0.1331686229,0.1675941199,-8.66940403,4.441244125,-835.3333333333334,-62.16666666666667,195.66666666666663,-6740.611111111111,548.9444444444445,-4665.666666666667,1
2024-06-15 11:37:19,0.1295034289,-0.06841690838,-0.1331686229,0.1675941199,-8.66940403,4.441244125,-439.5,-124.88888888888889,213.5,-6687.388888888889,577.3333333333334,-4534.888888888889,1
2024-06-15 11:37:19,-0.125838235,0.05131268129,-0.1380555481,0.2944868207,-9.157821655,4.395754337,38.8876404494382,14.044943820224717,140.26966292134833,-6521.662921348315,538.6629213483146,-4531.08988764045,1
2024-06-15 11:37:19,0.1026253626,-0.004886921961,0.04276056588,-0.3303998411,-9.507374763,4.187458992,-84.33707865168539,98.2134831460674,-23.39325842696629,-6476.314606741573,475.85393258426967,-4643.988764044944,1
2024-06-15 11:37:19,0.1026253626,-0.004886921961,0.04276056588,-0.3303998411,-9.507374763,4.187458992,-104.52083333333331,-352.1979166666667,-61.552083333333336,-6509.489583333333,460.90625,-4669.458333333333,1
2024-06-15 11:37:19,-0.08429940045,0.1197295859,0.009773843922,0.8212111592,-8.856152534,4.750096321,-100.72151898734175,35.40506329113924,100.79746835443038,-6699.974683544304,447.43037974683546,-4700.050632911392,1
2024-06-15 11:37:20,-0.08429940045,0.1197295859,0.009773843922,0.8212111592,-8.856152534,4.750096321,-117.25423728813558,-30.186440677966104,63.0,-6536.406779661017,429.1694915254237,-4600.440677966101,1
2024-06-15 11:37:20,0.3152064681,-0.07696902007,-0.1331686229,-0.4525041282,-8.228871346,3.919308186,-448.08988764044943,-156.1685393258427,170.97752808988764,-6568.752808988764,751.3483146067416,-4581.044943820225,1
2024-06-15 11:37:20,0.3152064681,-0.07696902007,-0.1331686229,-0.4525041282,-8.228871346,3.919308186,-4091.456790123457,61.28395061728395,1955.4444444444443,-6397.049382716049,1493.9012345679012,-4342.086419753086,1
2024-06-15 11:37:20,0.2675589919,-0.08307767659,-0.09773843735,0.1508347094,-9.581595421,4.268861771,-2551.955555555556,-86.62222222222223,1493.7111111111112,-6339.2,1914.1333333333328,-3985.511111111111,1
2024-06-15 11:37:20,0.0720821023,0.003665191587,-0.02076941915,-0.06224924326,-9.277531624,3.962403774,-1316.159090909091,-360.3636363636364,801.5227272727273,-6498.181818181818,2414.6136363636365,-4001.0,1
2024-06-15 11:37:20,0.0720821023,0.003665191587,-0.02076941915,-0.06224924326,-9.277531624,3.962403774,-518.6705882352941,-359.49411764705883,-67.09411764705882,-6424.517647058824,2841.3411764705884,-4160.964705882353,1
2024-06-15 11:37:20,-0.03787364438,0.07941248268,0.05131268129,0.2059013397,-8.482656479,3.744531393,-180.28048780487805,-287.8292682926829,108.39024390243902,-6307.243902439024,2880.5975609756097,-3788.0975609756097,1
2024-06-15 11:37:20,-0.03787364438,0.07941248268,0.05131268129,0.2059013397,-8.482656479,3.744531393,-352.2584269662921,-353.123595505618,-111.1011235955056,-6350.865168539326,2894.3932584269664,-3744.7078651685392,1
2024-06-15 11:37:20,-0.1844813079,0.1136209369,-0.003665191587,0.8116343617,-8.303091049,4.189853191,67.22727272727275,-501.3068181818182,284.97727272727275,-6735.647727272727,2882.875,-3891.409090909091,1
2024-06-15 11:37:21,-0.4532620013,0.2101376504,-0.06597344577,0.4716577232,-10.42435455,3.517082214,710.1609195402299,-463.3793103448276,513.5057471264367,-6645.6781609195405,2875.367816091954,-3905.057471264368,1
2024-06-15 11:37:21,-0.4532620013,0.2101376504,-0.06597344577,0.4716577232,-10.42435455,3.517082214,982.2666666666668,-498.6,158.53333333333333,-6686.133333333333,2901.222222222222,-3902.911111111111,1
2024-06-15 11:37:21,0.1857030392,-0.04520402849,-0.08063421398,0.1604115069,-9.301473618,4.029441357,937.9886363636364,-677.5,153.8181818181818,-6329.159090909091,2823.7386363636365,-3916.227272727273,1
2024-06-15 11:37:21,-0.04276056588,0.1295034289,0.07696902007,0.282515794,-9.241618156,3.720589399,1049.0217391304348,-281.6304347826087,169.80434782608697,-6666.195652173913,2544.521739130435,-3783.195652173913,1
2024-06-15 11:37:21,-0.04276056588,0.1295034289,0.07696902007,0.282515794,-9.241618156,3.720589399,2044.941860465116,-824.1860465116279,-5.813953488372093,-6568.860465116279,2297.4651162790697,-3886.5348837209294,1
2024-06-15 11:37:21,-0.109955743,0.06108652428,-0.006108652335,0.349553436,-8.652645111,4.357447147,1461.2954545454545,-307.29545454545456,-82.43181818181819,-6632.340909090909,2658.340909090909,-3777.090909090909,1
2024-06-15 11:37:21,-0.109955743,0.06108652428,-0.006108652335,0.349553436,-8.652645111,4.357447147,568.3586956521739,-45.71739130434783,69.63043478260869,-6538.239130434783,2350.163043478261,-3746.054347826087,1
2024-06-15 11:37:21,0.106290549,-0.05131268129,-0.007330383174,0.4118026793,-9.114726067,4.826710701,597.8139534883721,30.44186046511628,-88.69767441860465,-6959.023255813953,1999.8837209302328,-3954.116279069768,1
2024-06-15 11:37:21,0.1404990107,-0.01343903504,-0.02199114859,0.3064578176,-8.731653214,4.75249052,959.6741573033707,-1116.4269662921347,290.6741573033708,-6885.91011235955,2091.370786516854,-3959.752808988764,1
2024-06-15 11:37:21,0.1404990107,-0.01343903504,-0.02199114859,0.3064578176,-8.731653214,4.75249052,1284.945652173913,-1278.9239130434785,529.0869565217391,-6813.0,2110.478260869565,-3891.934782608696,1
2024-06-15 11:37:22,0.1808161139,0.2296853364,-0.02565634064,0.5434837937,-9.344569206,5.075707436,985.896551724138,-1695.0,592.6551724137931,-7182.206896551724,1733.3103448275865,-3603.344827586207,1
2024-06-15 11:37:22,0.1808161139,0.2296853364,-0.02565634064,0.5434837937,-9.344569206,5.075707436,1589.0,-1577.2727272727273,569.1818181818181,-7165.636363636364,2085.6363636363635,-3086.6363636363635,1
2024-06-15 11:37:22,0.0354301855,0.07941248268,0.1001819,0.4189853072,-8.171410561,3.751713991,1339.4444444444443,-1848.555555555556,230.0,-7523.444444444444,1754.1666666666667,-2779.1666666666665,1
2024-06-15 11:37:22,-0.02687807009,0.06230825558,0.04276056588,0.02633621916,-9.033323288,4.458003521,993.0114942528736,-1843.7586206896551,386.45977011494256,-7601.586206896552,1791.425287356322,-2660.551724137931,1
2024-06-15 11:37:22,-0.02687807009,0.06230825558,0.04276056588,0.02633621916,-9.033323288,4.458003521,1224.1847826086955,-2491.858695652174,613.5,-7654.978260869565,1636.195652173913,-2373.3804347826085,1
2024-06-15 11:37:22,-0.161268428,0.1185078546,0.05864306539,0.7709329724,-8.789113998,3.588908434,1750.964705882353,-2296.6117647058823,1297.7411764705882,-7709.729411764706,1752.0,-1861.1882352941177,1
2024-06-15 11:37:22,0.1392772794,-0.03909537569,-0.08552113175,0.2466027737,-9.220070839,4.086902142,1571.2954545454545,-1897.9431818181813,1344.9772727272727,-7564.227272727273,1991.9545454545453,-1486.3977272727273,1
2024-06-15 11:37:22,0.1392772794,-0.03909537569,-0.08552113175,0.2466027737,-9.220070839,4.086902142,763.0666666666666,-1613.0,677.6,-7642.266666666666,2007.0666666666664,-1217.6666666666667,1
2024-06-15 11:37:22,-0.2089159191,0.09407325089,0.07086037099,0.03351882473,-8.990227699,3.366247654,561.2222222222222,-1617.5,354.72222222222223,-7881.0,2412.1666666666665,-1065.888888888889,1
2024-06-15 11:37:22,-0.2089159191,0.09407325089,0.07086037099,0.03351882473,-8.990227699,3.366247654,452.2325581395349,-1510.186046511628,-97.3953488372093,-8063.697674418605,2344.3837209302324,-765.6976744186046,1
2024-06-15 11:37:23,-0.2089159191,0.04642575979,-0.01832595654,0.3016694188,-9.069235802,3.778050184,464.13186813186815,-1462.6043956043957,-91.62637362637362,-8061.10989010989,2382.351648351648,-448.2637362637363,1
2024-06-15 11:37:23,0.3506366611,-0.08185594529,-0.07330382615,0.4979939461,-9.119514465,3.897760391,194.66666666666663,-1316.4615384615386,-51.20512820512821,-7833.358974358975,2403.589743589744,-135.6153846153846,1
2024-06-15 11:37:23,0.3506366611,-0.08185594529,-0.07330382615,0.4979939461,-9.119514465,3.897760391,119.0,-844.5,-25.5,-7835.0,2314.0,-45.0,1
2024-06-15 11:37:23,0.03420845419,-0.08063421398,-0.1001819,0.0359130241,-9.655815125,3.907337189,85.49450549450549,-236.934065934066,13.439560439560438,-7849.725274725275,2335.395604395605,169.54945054945054,1
2024-06-15 11:37:23,-0.05619960278,0.01954768784,0.04031710699,-0.1939303428,-9.358934402,3.928884983,-63.75862068965517,-6.862068965517238,53.0,-7860.172413793103,2267.2758620689656,266.55172413793105,1
2024-06-15 11:37:23,-0.05619960278,0.01954768784,0.04031710699,-0.1939303428,-9.358934402,3.928884983,45.97802197802198,23.736263736263737,119.57142857142856,-7909.615384615385,2225.362637362637,-47.01098901098901,1
2024-06-15 11:37:23,-0.08063421398,0.03909537569,0.05497787148,0.2130839527,-8.937555313,3.991134167,-96.71264367816092,-81.0919540229885,26.03448275862069,-7890.367816091954,2381.4827586206898,109.01149425287358,1
2024-06-15 11:37:23,-0.1588249654,-0.008552113548,-0.04031710699,0.141257897,-9.514557838,3.988739967,-40.14772727272727,-348.34090909090907,79.27272727272727,-8173.318181818182,2219.431818181818,90.98863636363636,1
2024-06-15 11:37:23,-0.07330382615,-0.04276056588,-0.006108652335,-0.09816227108,-9.241618156,4.223371983,58.36363636363637,-187.0909090909091,-173.63636363636363,-7912.545454545455,2318.3636363636365,-24.81818181818182,1
2024-06-15 11:37:24,-0.07330382615,-0.04276056588,-0.006108652335,-0.09816227108,-9.241618156,4.223371983,-24.69662921348315,56.73033707865169,57.53932584269663,-7917.4157303370785,2339.887640449438,101.29213483146069,1
2024-06-15 11:37:24,0.02809980139,0.03298672289,-0.003665191587,0.3016694188,-8.705317497,3.452438831,-319.8181818181818,14.295454545454549,-29.90909090909091,-7851.0,2407.8863636363635,286.1363636363636,1
2024-06-15 11:37:24,-0.03787364438,0.0415388383,0.05131268129,0.215478152,-8.892065048,3.845088005,-87.5,-10.023255813953485,120.83720930232558,-8075.755813953488,2250.5232558139537,-70.74418604651163,1
2024-06-15 11:37:24,-0.03787364438,0.0415388383,0.05131268129,0.215478152,-8.892065048,3.845088005,-335.9090909090909,-228.3636363636364,44.45454545454545,-8228.181818181818,2326.818181818182,-53.81818181818181,1
2024-06-15 11:37:24,0.09529497474,0.05253441259,0.0293215327,-0.423773706,-8.942343712,4.039018154,81.63157894736841,-266.9157894736842,-56.242105263157896,-8001.694736842105,2205.0315789473684,176.17894736842106,1
2024-06-15 11:37:24,0.09529497474,0.05253441259,0.0293215327,-0.423773706,-8.942343712,4.039018154,41.78048780487805,-56.48780487804879,-89.92682926829268,-8022.707317073171,2653.292682926829,342.8536585365854,1
2024-06-15 11:37:24,-0.01588249579,-0.07696902007,-0.08429940045,0.5099649429,-8.142680168,4.307168961,-458.9347826086956,-100.2608695652174,-529.0326086956521,-7920.239130434783,2372.141304347826,353.5434782608696,1
2024-06-15 11:37:24,-0.2590068579,0.4532620013,-0.1563815027,0.1723825186,-9.859322548,2.717418909,-113.50561797752808,-14.786516853932584,-298.5393258426966,-8226.629213483146,2081.179775280899,327.2247191011236,1
2024-06-15 11:37:24,-0.2590068579,0.4532620013,-0.1563815027,0.1723825186,-9.859322548,2.717418909,53.10344827586207,39.770114942528735,-65.08045977011494,-7918.689655172414,2385.4827586206898,268.2758620689655,1
2024-06-15 11:37:24,-0.1038470939,-0.00244346098,-0.05009094998,0.05027823523,-8.904036522,3.620033026,-58.65909090909091,16.75,-304.79545454545456,-8025.477272727273,2347.704545454545,173.86363636363637,1
2024-06-15 11:37:25,-0.1038470939,-0.00244346098,-0.05009094998,0.05027823523,-8.904036522,3.620033026,-437.0,53.0,-305.0,-8039.5,2265.0,290.5,1
2024-06-15 11:37:25,0.1148426682,-0.03054326214,0.01588249579,0.4070142806,-9.296685219,3.744531393,-1040.8791208791208,17.879120879120876,-276.0659340659341,-8061.076923076923,2314.4835164835163,231.47252747252747,1
2024-06-15 11:37:25,0.009773843922,-0.01832595654,0.1429424733,0.117315881,-9.160215378,3.835511208,-1117.8181818181818,61.0,-226.3636363636364,-8223.818181818182,2160.181818181818,486.54545454545456,1
2024-06-15 11:37:25,0.009773843922,-0.01832595654,0.1429424733,0.117315881,-9.160215378,3.835511208,-343.85227272727275,-49.69318181818181,-223.51136363636363,-8171.784090909091,2017.0113636363635,528.7272727272727,1
2024-06-15 11:37:25,0.04398229718,0.008552113548,-0.008552113548,0.7278373241,-9.076418877,4.182670593,-119.06741573033707,128.01123595505618,42.31460674157304,-8288.842696629214,1934.5280898876404,162.0,1
2024-06-15 11:37:25,-0.07696902007,-0.02199114859,0.04520402849,-0.1436520964,-9.629479408,3.411737442,472.8928571428572,-83.60714285714286,3.5595238095238093,-7929.916666666667,2168.25,170.57142857142858,1
2024-06-15 11:37:25,-0.07696902007,-0.02199114859,0.04520402849,-0.1436520964,-9.629479408,3.411737442,283.86021505376345,160.61290322580646,259.7741935483871,-8236.397849462366,2357.956989247312,-69.35483870967742,1
2024-06-15 11:37:25,-0.07574728876,0.01343903504,0.05497787148,0.6607996821,-9.449913979,3.833117008,-192.5862068965517,194.0,108.3793103448276,-8077.241379310345,2017.1379310344828,-51.82758620689656,1
2024-06-15 11:37:25,-0.07574728876,0.01343903504,0.05497787148,0.6607996821,-9.449913979,3.833117008,53.96428571428572,-305.35714285714283,-156.8452380952381,-8245.297619047618,2139.4166666666665,343.07142857142856,1
2024-06-15 11:37:25,0.1905899495,-0.0171042271,-0.07696902007,0.009576806799,-9.090784073,4.046200752,128.5,-135.5,61.5,-7864.0,2084.0,150.0,1
2024-06-15 11:37:26,0.1429424733,-0.03054326214,0.0232128799,0.282515794,-9.543288231,3.7181952,-154.15463917525773,337.96907216494844,69.12371134020619,-8116.938144329897,2010.5051546391755,-61.18556701030928,1
2024-06-15 11:37:26,0.1429424733,-0.03054326214,0.0232128799,0.282515794,-9.543288231,3.7181952,-395.9775280898877,390.14606741573033,-172.12359550561797,-8186.606741573034,2077.2808988764045,-91.08988764044943,1
2024-06-15 11:37:26,0.04031710699,0.0,0.02199114859,0.1843535304,-10.11310768,3.888183594,59.98837209302326,50.23255813953489,-291.0813953488372,-8241.976744186046,2155.5697674418607,-120.7093023255814,1
2024-06-15 11:37:26,0.04398229718,-0.01466076635,0.01466076635,0.1244984865,-9.255983353,4.211400986,-102.6590909090909,-8.84090909090909,42.36363636363636,-8224.136363636364,2156.2386363636365,88.43181818181819,1
2024-06-15 11:37:26,0.04398229718,-0.01466076635,0.01466076635,0.1244984865,-9.255983353,4.211400986,-506.2247191011236,483.876404494382,-52.61797752808989,-8030.112359550561,2220.38202247191,-311.60674157303373,1
2024-06-15 11:37:26,-0.02809980139,-0.02687807009,-0.02565634064,0.2537853718,-8.987833023,4.046200752,-4908.550802139038,3116.83422459893,138.98930481283423,-7666.919786096257,2502.310160427808,-589.5882352941177,1
2024-06-15 11:37:26,-0.02809980139,-0.02687807009,-0.02565634064,0.2537853718,-8.987833023,4.046200752,-5485.55614973262,3302.395721925134,212.2513368983957,-7866.385026737968,2377.711229946524,-560.1764705882352,1
2024-06-15 11:37:26,-0.05253441259,0.1527163088,-0.05742133409,-0.03351882473,-9.380482674,3.773261786,-4721.960526315789,3883.052631578948,-293.3157894736842,-7591.907894736842,2344.0394736842104,-793.9078947368421,1
2024-06-15 11:37:26,0.07696902007,-0.008552113548,0.0,0.2346317619,-9.33020401,3.725377798,-4287.840659340659,3795.587912087912,-318.7142857142857,-7584.445054945055,2374.423076923077,-1174.1703296703297,1
2024-06-15 11:37:26,0.07696902007,-0.008552113548,0.0,0.2346317619,-9.33020401,3.725377798,-3893.8846153846152,3918.1153846153848,-533.0,-7564.115384615385,2585.9615384615386,-1302.1923076923076,1
2024-06-15 11:37:27,0.03298672289,-0.01343903504,-0.01954768784,0.3447650373,-9.244012833,3.610456228,-1576.2470588235294,2686.4823529411765,-805.1411764705882,-7182.929411764706,2671.141176470588,-2414.6235294117646,1
2024-06-15 11:37:27,-0.1136209369,0.04642575979,0.01466076635,0.2130839527,-9.425971985,3.220201254,-1276.403409090909,2508.2727272727275,-736.6193181818181,-7131.420454545455,2775.284090909091,-2722.5454545454545,1
2024-06-15 11:37:27,-0.1136209369,0.04642575979,0.01466076635,0.2130839527,-9.425971985,3.220201254,-1024.3516483516482,2034.901098901099,-684.1648351648352,-7143.472527472528,2563.252747252747,-2916.428571428572,1
2024-06-15 11:37:27,0.3860668242,-0.09773843735,-0.0171042271,0.04309562966,-9.983820915,3.296815634,-419.13793103448273,744.3103448275862,-579.0344827586207,-6897.379310344828,2209.9310344827586,-3634.7241379310335,1
2024-06-15 11:37:27,0.3860668242,-0.09773843735,-0.0171042271,0.04309562966,-9.983820915,3.296815634,-616.7931034482758,605.7011494252873,-214.0344827586207,-6850.689655172414,2226.4827586206898,-3620.0,1
2024-06-15 11:37:27,0.2541199327,-0.05619960278,-0.1441642046,0.3064578176,-8.523358345,4.311957359,-436.72222222222223,211.0555555555556,57.05555555555556,-6946.833333333333,2565.555555555556,-3636.3888888888887,1
2024-06-15 11:37:27,-0.5302310586,-0.4300491214,-0.5277875662,-0.6177040339,-10.3261919,3.742137194,-417.3626373626374,-52.0,598.2857142857143,-6853.142857142857,2834.4835164835163,-3408.153846153846,1
2024-06-15 11:37:27,-0.5302310586,-0.4300491214,-0.5277875662,-0.6177040339,-10.3261919,3.742137194,-127.25274725274728,-2.0,769.7142857142858,-6938.857142857143,2797.670329670329,-3385.076923076923,1
2024-06-15 11:37:27,0.8100073338,0.3799581826,0.5192354321,1.604115129,-8.856152534,2.037465572,-65.69411764705882,45.858823529411765,783.4823529411765,-6779.952941176471,3026.541176470588,-3371.5529411764705,1
2024-06-15 11:37:27,0.8100073338,0.3799581826,0.5192354321,0.3687070608,-12.81616211,4.393360138,-16.223529411764705,-358.3411764705882,416.6470588235294,-6623.423529411764,3276.1176470588234,-3377.3058823529414,1
2024-06-15 11:37:28,-0.4923573732,-0.145385921,-0.01954768784,0.3687070608,-12.81616211,4.393360138,77.16666666666666,-367.0,771.0,-6578.166666666667,3229.5,-3391.6666666666665,1
2024-06-15 11:37:28,0.9040805697,-0.1001819,-0.1404990107,0.1939303428,-8.556877136,3.016694069,94.39024390243902,-279.4878048780488,260.2926829268293,-6692.487804878048,3261.5853658536585,-3352.512195121951,1
2024-06-15 11:37:28,0.9040805697,-0.1001819,-0.1404990107,0.1939303428,-8.556877136,3.016694069,-7.102272727272727,-78.95454545454545,69.89772727272727,-6720.863636363636,3433.8636363636365,-3390.465909090909,1
2024-06-15 11:37:28,0.1942551434,-0.1026253626,-0.03298672289,-0.1268926859,-9.940725327,3.646369219,-232.58510638297872,113.58510638297872,76.04255319148936,-6546.127659574468,3284.074468085106,-3360.478723404255,1
2024-06-15 11:37:28,0.2138028294,0.0293215327,-0.0720821023,0.4740519226,-9.102754593,3.517082214,275.01714285714286,39.36571428571428,189.69142857142856,-6697.937142857143,3235.931428571429,-3424.76,1
2024-06-15 11:37:28,0.2138028294,0.0293215327,-0.0720821023,0.4740519226,-9.102754593,3.517082214,96.16,57.08,309.12,-6687.08,3251.36,-3428.76,1
2024-06-15 11:37:28,-0.1368338168,-0.007330383174,-0.02443460934,0.8571242094,-8.724471092,4.05577755,26.51851851851852,-95.66666666666669,62.4320987654321,-6676.172839506173,3288.6913580246915,-3432.9135802469136,1
2024-06-15 11:37:28,-0.1368338168,-0.007330383174,-0.02443460934,0.8571242094,-8.724471092,4.05577755,92.77777777777776,-48.27777777777778,-101.16666666666666,-6697.277777777777,3222.777777777778,-3419.333333333333,1
2024-06-15 11:37:28,0.04276056588,-0.04031710699,-0.05864306539,0.4620809257,-9.47146225,4.108449936,228.28735632183907,-81.83908045977012,78.32183908045977,-6732.632183908046,3417.344827586207,-3433.390804597701,1
2024-06-15 11:37:28,-0.03787364438,0.05009094998,0.05986479297,-0.4357447028,-9.349357605,2.959233284,516.551724137931,-244.6896551724137,-27.724137931034484,-6733.241379310345,3402.8390804597702,-3233.689655172414,1
2024-06-15 11:37:29,-0.03787364438,0.05009094998,0.05986479297,-0.4357447028,-9.349357605,2.959233284,605.6385542168674,-148.65060240963857,287.48192771084337,-6715.385542168675,3447.301204819277,-3273.3493975903616,1
2024-06-15 11:37:29,-0.3762930036,0.09896016866,0.05009094998,0.248996973,-9.325415611,3.569754839,799.0,-397.0,293.0,-6754.5,3015.0,-3268.5,1
2024-06-15 11:37:29,-0.2138028294,0.0415388383,0.01466076635,0.4644751251,-9.404424667,3.801992416,2011.0786516853927,-854.3033707865169,287.6629213483146,-6565.3258426966295,2751.348314606741,-3276.516853932584,1
2024-06-15 11:37:29,-0.2138028294,0.0415388383,0.01466076635,0.4644751251,-9.404424667,3.801992416,3374.177777777778,-1087.2111111111112,293.93333333333334,-6602.355555555556,2443.9333333333334,-3414.177777777778,1
2024-06-15 11:37:29,0.01343903504,0.3164281845,-0.1857030392,-0.1244984865,-8.628703117,3.270479441,3733.0689655172414,-1106.1149425287356,160.3448275862069,-6621.264367816092,2453.9310344827586,-3908.655172413793,1
2024-06-15 11:37:29,0.01343903504,0.3164281845,-0.1857030392,-0.1244984865,-8.628703117,3.270479441,2439.3595505617977,-890.9662921348315,174.47191011235955,-6982.112359550561,2439.5280898876404,-3925.460674157304,1
2024-06-15 11:37:29,-0.1490511149,0.00122173049,0.02443460934,0.06943184882,-9.691728592,3.780444384,1383.0116279069766,-1042.186046511628,344.04651162790697,-6824.197674418605,2330.5,-3523.3488372093025,1
2024-06-15 11:37:29,-0.3494149148,0.06597344577,0.08429940045,0.2992752194,-8.901641846,3.782838583,534.6666666666667,-718.0,426.0,-6861.666666666667,1954.6666666666667,-3649.6666666666665,1
2024-06-15 11:37:29,-0.3494149148,0.06597344577,0.08429940045,0.2992752194,-8.901641846,3.782838583,-3.902439024390248,-851.2926829268292,555.0731707317074,-7197.707317073171,1933.7317073170727,-3251.7073170731705,1
2024-06-15 11:37:29,-0.1356120855,0.008552113548,0.06719517708,0.7637503147,-9.088389397,4.115632534,51.48863636363637,-466.4772727272728,246.57954545454544,-7186.522727272727,1954.772727272728,-3378.806818181818,1
2024-06-15 11:37:30,0.03298672289,0.01466076635,-0.05864306539,0.624886632,-9.244012833,4.144362926,-305.66666666666663,-191.0,162.0,-6890.0,2230.333333333333,-3142.6666666666665,1
2024-06-15 11:37:30,0.03298672289,0.01466076635,-0.05864306539,0.624886632,-9.244012833,4.144362926,-3562.024096385542,730.8192771084338,4.27710843373494,-6827.21686746988,2942.5180722891564,-3558.746987951807,1
2024-06-15 11:37:30,0.2590068579,-0.04886921868,-0.0720821023,0.5075707436,-9.591172218,3.835511208,-4803.945355191257,1306.75956284153,-845.3989071038252,-7034.754098360656,2526.382513661202,-2906.24043715847,1
2024-06-15 11:37:30,0.2590068579,-0.04886921868,-0.0720821023,0.5075707436,-9.591172218,3.835511208,-4660.229508196721,1314.4098360655737,-764.5245901639344,-7038.0327868852455,2532.3934426229507,-2898.590163934426,1
2024-06-15 11:37:30,-0.02687807009,-0.02443460934,-0.106290549,0.5195417404,-9.11233139,3.890577793,-1613.4761904761904,898.9047619047619,-359.5238095238095,-6808.523809523809,3053.0,-2776.428571428572,1
2024-06-15 11:37:30,0.1404990107,-0.01343903504,-0.03665191308,0.07900865376,-9.500192642,3.588908434,-725.5526315789474,608.6381578947369,-150.80921052631578,-6977.934210526316,3047.9473684210525,-3103.7894736842104,1
2024-06-15 11:37:30,0.1404990107,-0.01343903504,-0.03665191308,0.07900865376,-9.500192642,3.588908434,-670.2894736842105,569.8223684210526,-144.88815789473685,-6934.513157894737,3053.2105263157896,-3124.842105263158,1
2024-06-15 11:37:30,-0.25167647,0.05131268129,0.09651670605,0.07900865376,-9.504981041,3.675099611,-297.56,62.60000000000002,-341.08,-6690.24,3375.92,-3027.8,1
2024-06-15 11:37:30,-0.25167647,0.05131268129,0.09651670605,1.079784989,-8.595184326,4.058171749,-258.8604651162791,-16.13953488372093,35.534883720930225,-6632.023255813953,3352.7441860465115,-2956.8837209302324,1
2024-06-15 11:37:30,-0.008552113548,0.04886921868,-0.0720821023,1.079784989,-8.595184326,4.058171749,335.58620689655174,77.93103448275862,-113.34482758620688,-6555.0,3384.0689655172414,-3157.4827586206898,1
2024-06-15 11:37:31,0.2150245607,-0.02443460934,-0.05864306539,0.5267243981,-9.119514465,3.988739967,309.021052631579,-26.957894736842107,-38.2,-6584.1578947368425,3422.063157894737,-2995.336842105264,1
2024-06-15 11:37:31,0.2150245607,-0.02443460934,-0.05864306539,0.5267243981,-9.119514465,3.988739967,582.1162790697674,74.27906976744185,-83.20930232558139,-6660.395348837209,3324.7906976744184,-3124.9767441860467,1
2024-06-15 11:37:31,0.2553416789,0.196698606,-0.1233947799,0.3519476354,-9.057265282,4.431667328,579.547619047619,-34.39285714285714,-11.333333333333336,-6720.095238095239,3004.04761904762,-3337.940476190476,1
