Timestamp,Gyro_x_x,Gyro_y_x,Gyro_z_x,Acc_x_x,Acc_y_x,Acc_z_x,Gyro_x_y,Gyro_y_y,Gyro_z_y,Acc_x_y,Acc_y_y,Acc_z_y,combined_action_num
2024-06-15 12:20:50,0.2113593817,0.09651670605,0.3408628106,0.6560112834,-1.726219416,9.753977776,-15549.826923076922,2342.0096153846152,1765.3076923076924,-8583.240384615385,-575.1730769230769,534.3365384615385,5
2024-06-15 12:20:50,0.2113593817,0.09651670605,0.3408628106,0.6560112834,-1.726219416,9.753977776,-2029.8252427184464,644.3689320388349,-200.72815533980585,-8766.242718446601,107.38834951456312,1144.0388349514562,5
2024-06-15 12:20:50,0.09407325089,0.07086037099,0.4043927789,0.01197100803,-1.496376038,8.923190117,-1046.8556701030927,-207.2474226804124,1203.505154639175,-8240.577319587628,131.5257731958763,1358.7731958762886,5
2024-06-15 12:20:50,-4.836831093,0.1368338168,0.5485569835,0.7254431248,-3.991134167,7.173028469,-317.3679245283019,165.2075471698113,1585.6132075471698,-8259.367924528302,1004.8207547169812,1025.377358490566,5
2024-06-15 12:20:50,-4.836831093,0.1368338168,0.5485569835,0.7254431248,-3.991134167,7.173028469,-155.77570093457945,-332.785046728972,-68.46728971962617,-8368.0,1265.1495327102805,721.5327102803739,5
2024-06-15 12:20:51,-3.897320271,-0.7452555895,0.7208209634,-0.06943184882,-10.55124664,3.806780815,446.3200000000001,-510.32,-484.36,-8448.12,909.44,972.36,5
2024-06-15 12:20:51,-0.4386012554,-0.9688322544,-0.4251621962,1.403002143,-7.345410824,2.126051188,1010.766355140187,-783.0467289719626,-901.5514018691588,-8310.616822429907,740.1775700934579,1260.9719626168226,5
2024-06-15 12:20:51,-0.4386012554,-0.9688322544,-0.4251621962,1.403002143,-7.345410824,2.126051188,1007.5940594059406,-801.9207920792079,-1285.6534653465346,-8423.128712871287,599.980198019802,1832.8316831683169,5
2024-06-15 12:20:51,-0.5461135507,-1.172861218,-0.3652974069,1.668758631,-12.50970364,0.9576807022,432.1456310679612,-303.86407766990294,492.0485436893204,-8259.611650485436,467.9902912621359,1523.6893203883494,5
2024-06-15 12:20:51,-0.5461135507,-1.172861218,-0.3652974069,1.668758631,-12.50970364,0.9576807022,-382.3,-96.28181818181818,986.3818181818182,-8212.454545454546,719.0,1319.6818181818182,5
2024-06-15 12:20:51,0.2406809032,-2.32128787,-0.4728097022,1.613691926,-9.452308655,0.2274491638,759.0,455.34482758620686,-457.1034482758621,-8217.655172413793,759.1034482758621,1227.2758620689656,5
2024-06-15 12:20:51,0.618195653,-2.334727049,-0.3445279896,3.471592426,-11.35809326,-1.177947283,1645.084745762712,246.45762711864407,-1507.9830508474577,-8922.237288135593,447.9491525423729,1321.1694915254238,5
2024-06-15 12:20:51,0.618195653,-2.334727049,-0.3445279896,3.471592426,-11.35809326,-1.177947283,2241.3854166666665,-1068.8125,-950.8854166666666,-8522.84375,-171.625,1196.4791666666667,5
2024-06-15 12:20:51,1.674992561,-1.139874578,0.5619960427,3.387795448,-9.600749016,-0.758961916,3845.117647058824,-956.9215686274508,-454.8627450980392,-8026.235294117647,-756.8039215686274,1571.0392156862745,5
2024-06-15 12:20:51,-0.3225368559,0.3090978265,0.7110471725,4.122815132,-9.308655739,1.812410712,7227.51,-607.32,780.91,-8303.29,-31.03,1399.04,5
2024-06-15 12:20:52,-0.3225368559,0.3090978265,0.7110471725,4.122815132,-9.308655739,1.812410712,6993.9626168224295,-615.1728971962617,576.481308411215,-8416.724299065421,107.7663551401869,1595.443925233645,5
2024-06-15 12:20:52,-2.24187541,1.492954612,0.1038470939,0.8714894056,-8.774748802,-1.927332401,6375.271028037383,-601.6214953271028,317.1355140186916,-8278.873831775702,590.9439252336449,1617.4065420560748,5
2024-06-15 12:20:52,-2.24187541,1.492954612,0.1038470939,0.8714894056,-8.774748802,-1.927332401,3681.3960396039606,89.98019801980197,-360.6534653465346,-8081.950495049505,1235.920792079208,1266.2079207920792,5
2024-06-15 12:20:52,0.3323107064,0.9175195694,0.05253441259,-1.556231141,-9.196128845,-4.005499363,3842.787878787879,-850.030303030303,-842.969696969697,-8492.454545454546,1115.3939393939395,1488.090909090909,5
2024-06-15 12:20:52,0.3249803185,0.4520402849,0.4996877611,-1.388636947,-9.380482674,-3.402160645,4045.7843137254895,-794.656862745098,-2045.1666666666667,-8174.64705882353,1231.264705882353,1285.3921568627452,5
2024-06-15 12:20:52,0.3249803185,0.4520402849,0.4996877611,-1.388636947,-9.380482674,-3.402160645,3348.4,-420.05,-1696.75,-8110.95,682.7,1560.15,5
2024-06-15 12:20:52,1.02991879,-0.1307251602,0.4251621962,-0.624886632,-9.239224434,-2.906560898,3068.205607476636,0.4392523364485985,-1431.5981308411217,-8197.607476635514,532.5607476635514,1478.9719626168223,5
2024-06-15 12:20:52,0.428827405,0.3640756905,0.3433062732,-0.758961916,-9.457097054,-1.314416766,2329.4554455445545,-546.8217821782179,-1226.029702970297,-8390.445544554455,-87.06930693069307,1835.950495049505,5
2024-06-15 12:20:52,0.428827405,0.3640756905,0.3433062732,-0.758961916,-9.457097054,-1.314416766,2300.1485148514853,-171.68316831683168,-945.7722772277228,-8457.198019801981,-517.6930693069307,2126.564356435644,5
2024-06-15 12:20:53,0.8955284357,0.3481931984,-0.1197295859,-1.369483352,-9.153033257,-0.7781155705,1409.0970873786407,656.5728155339806,898.6310679611651,-8234.14563106796,-168.40776699029126,2152.776699029126,5
2024-06-15 12:20:53,0.7660250068,0.05619960278,-0.02809980139,-2.487575531,-10.45547867,-0.1029506698,1206.830188679245,505.3679245283019,1075.7358490566037,-7954.0,-366.1037735849056,1982.8962264150944,5
2024-06-15 12:20:53,0.9395107627,0.02199114859,0.4960225821,-2.837129116,-10.47942066,1.084573388,1284.0,1.4400000000000004,-4.160000000000025,-8081.12,240.16000000000005,1859.48,5
2024-06-15 12:20:53,0.9395107627,0.02199114859,0.4960225821,-2.837129116,-10.47942066,1.084573388,830.2592592592592,7.851851851851852,-94.05185185185184,-8248.25925925926,552.0148148148148,1889.7407407407409,5
2024-06-15 12:20:53,-1.666440368,-0.9224064946,0.6365215778,-3.634398222,-9.315838814,-1.201889277,632.2972972972973,58.48648648648648,94.6216216216216,-8379.486486486487,446.6486486486487,2045.8648648648648,5
2024-06-15 12:20:53,-0.7867944241,-0.9382890463,0.7489207983,-1.685518026,-8.664615631,-1.278503656,49.95192307692309,173.19230769230768,-480.9423076923077,-8118.538461538462,545.5865384615385,1755.3846153846157,5
2024-06-15 12:20:53,-0.7867944241,-0.9382890463,0.7489207983,-1.685518026,-8.664615631,-1.278503656,-449.11,452.61,-1445.74,-8321.89,175.24,1893.78,5
2024-06-15 12:20:53,0.6072000265,-1.408655286,-0.3042109013,-0.6344634295,-12.24155331,-1.256955862,-203.02912621359224,758.1553398058253,-1044.0679611650485,-8528.359223300971,-237.0970873786408,1810.6601941747567,5
2024-06-15 12:20:53,0.6072000265,-1.408655286,-0.3042109013,-0.6344634295,-12.24155331,-1.256955862,516.5612244897959,490.3061224489796,-64.13265306122452,-7862.34693877551,-260.66326530612247,1684.5102040816328,5
2024-06-15 12:20:53,-0.216246292,0.06475171447,-0.3616322279,0.07661445439,-7.965508938,2.387019157,1862.3009708737864,-260.02912621359224,1441.2038834951456,-8353.73786407767,-102.63106796116506,1806.1553398058247,5
2024-06-15 12:20:54,2.084272146,0.8405506015,-1.004262447,-1.146822572,-10.38365269,1.879448295,2516.584905660377,-260.3207547169811,2051.0188679245284,-8355.264150943396,441.6415094339623,1623.811320754717,5
2024-06-15 12:20:54,2.084272146,0.8405506015,-1.004262447,-1.146822572,-10.38365269,1.879448295,3009.9504950495048,-916.3465346534654,1961.09900990099,-8511.09900990099,1320.3069306930693,1721.0594059405942,5
2024-06-15 12:20:54,1.556484699,0.2076941878,-0.4862487316,-2.358288765,-10.09156036,2.272097349,1834.8823529411768,-1326.3529411764705,-566.4117647058823,-8234.941176470587,1588.5882352941176,2055.176470588235,5
2024-06-15 12:20:54,0.625526011,0.6548475623,-0.01832595654,-0.4716577232,-9.009381294,4.668693542,620.0740740740741,-1236.037037037037,-2320.833333333333,-8112.787037037037,1106.2037037037037,2386.0925925925926,5
2024-06-15 12:20:54,0.625526011,0.6548475623,-0.01832595654,-0.4716577232,-9.009381294,4.668693542,-558.02,-420.7,-1825.76,-7977.64,742.06,2360.62,5
2024-06-15 12:20:54,0.2932153046,0.4703662395,-0.2724458873,-0.7278373241,-8.633491516,5.13556242,13.96116504854369,-190.8446601941748,-2107.145631067961,-8174.747572815534,301.4271844660194,2277.660194174757,5
2024-06-15 12:20:54,0.2932153046,0.4703662395,-0.2724458873,-0.7278373241,-8.633491516,5.13556242,13.567307692307692,-282.78846153846155,-745.2115384615385,-8123.057692307692,-343.4423076923077,2533.8653846153848,5
2024-06-15 12:20:54,0.1490511149,0.3738495409,-0.4141666293,-1.400607944,-8.710105896,5.037400246,-52.9009900990099,-183.03960396039605,72.86138613861387,-7878.445544554455,-346.5742574257426,2478.4752475247524,5
2024-06-15 12:20:54,0.09162978828,0.4679227769,-0.1136209369,-1.465251446,-7.936778545,4.766855717,149.74757281553397,5.194174757281553,361.9805825242718,-7821.067961165048,45.35922330097088,2671.747572815534,5
2024-06-15 12:20:54,0.09162978828,0.4679227769,-0.1136209369,-1.465251446,-7.936778545,4.766855717,65.1747572815534,388.2135922330097,384.621359223301,-8262.47572815534,28.0,2234.242718446602,5
2024-06-15 12:20:55,0.08674286306,0.6230825782,0.1905899495,-0.8236053586,-9.387664795,6.600813866,-126.0873786407767,598.8932038834952,415.68932038834953,-8136.26213592233,28.0,2396.378640776699,5
2024-06-15 12:20:55,0.4825835526,0.1698205322,-0.2590068579,-0.5195417404,-8.128314972,6.435614109,437.7549019607843,3.637254901960773,-778.2058823529412,-8312.970588235294,-222.49019607843127,2294.735294117647,5
2024-06-15 12:20:55,0.4825835526,0.1698205322,-0.2590068579,-0.5195417404,-8.128314972,6.435614109,860.8979591836735,-347.8639455782313,-2266.9591836734694,-8112.625850340136,-446.6462585034013,2023.6326530612248,5
2024-06-15 12:20:55,0.2101376504,0.6010913849,-0.5326744914,-1.45088625,-7.4363904,4.228160381,-60.45161290322585,697.4032258064517,-1746.0967741935483,-8191.790322580645,-737.7741935483871,1902.1612903225807,5
2024-06-15 12:20:55,0.2101376504,0.6010913849,-0.5326744914,-1.45088625,-7.4363904,4.228160381,-340.0,1707.7692307692307,-674.7788461538462,-8721.98076923077,-1355.826923076923,1924.4038461538464,5
2024-06-15 12:20:55,-0.4214970171,0.9798278809,-0.6658431292,-2.997540474,-9.885659218,3.471592426,-30.5,1562.5,-548.25,-8667.5,-1438.0,2082.0,5
2024-06-15 12:20:55,0.2932153046,-0.03298672289,0.08429940045,-2.552218914,-9.935936928,4.975151062,17.669902912621353,1562.0485436893205,1996.9223300970875,-8121.184466019417,-915.1456310679612,1342.4174757281553,5
2024-06-15 12:20:55,0.2932153046,-0.03298672289,0.08429940045,-2.552218914,-9.935936928,4.975151062,-476.6,132.0,1020.0,-8784.44,353.6,713.72,5
2024-06-15 12:20:55,0.3139847219,-0.5754350424,0.3188716471,-2.188300371,-8.410830498,3.574543238,-516.5619047619048,-558.047619047619,200.10476190476192,-8551.304761904761,225.1428571428572,933.3142857142856,5
2024-06-15 12:20:55,-0.4923573732,-0.106290549,0.5021312237,-3.797203779,-8.731653214,3.102885485,-11.466019417475737,-236.71844660194176,529.495145631068,-8103.368932038835,233.41747572815527,1172.5922330097087,5
2024-06-15 12:20:56,-0.4923573732,-0.106290549,0.5021312237,-3.797203779,-8.731653214,3.102885485,-59.46601941747573,-241.58252427184465,-106.45631067961163,-8487.563106796117,381.0291262135922,1402.4563106796118,5
2024-06-15 12:20:56,0.6597344875,-1.158200502,0.8393288255,-2.257732153,-7.175422668,7.661445618,-104.6116504854369,-655.1359223300971,-725.9805825242719,-8526.640776699029,346.77669902912623,1309.126213592233,5
2024-06-15 12:20:56,0.6597344875,-1.158200502,0.8393288255,-2.257732153,-7.175422668,7.661445618,-43.34905660377359,-874.3396226415094,-1092.3584905660375,-8340.83962264151,12.5,1574.0471698113208,5
2024-06-15 12:20:56,1.123992085,-0.8124507666,0.3665191531,-2.580949545,-7.675810814,5.31273365,-520.8019801980198,-740.1980198019802,-928.8514851485148,-8172.881188118812,-177.3861386138614,1880.2772277227723,5
2024-06-15 12:20:56,-0.9871582389,0.814894259,-0.2174680233,-1.771709204,-7.20894146,6.136339188,48.6116504854369,-619.6990291262136,-1074.3495145631068,-8204.922330097088,-336.9805825242718,1796.3980582524273,5
2024-06-15 12:20:56,-0.9871582389,0.814894259,-0.2174680233,-1.771709204,-7.20894146,6.136339188,287.0,697.5728155339806,-461.3786407766991,-7893.058252427184,-576.4854368932039,1987.0582524271845,5
2024-06-15 12:20:56,-0.1893682331,-0.5033529401,0.3958406746,-1.00556469,-9.17697525,6.744466305,849.566037735849,1293.0188679245284,-352.7358490566038,-8185.169811320755,-565.6415094339623,1800.3207547169811,5
2024-06-15 12:20:56,-0.04276056588,-0.1881465018,0.08063421398,0.0718260482,-8.128314972,5.497087002,928.5049504950496,1050.6039603960396,-1233.90099009901,-8748.168316831683,-761.990099009901,1499.1287128712872,5
2024-06-15 12:20:56,-0.04276056588,-0.1881465018,0.08063421398,0.0718260482,-8.128314972,5.497087002,483.5102040816327,-568.5986394557823,-1849.2176870748297,-8542.122448979591,-930.5238095238096,1823.6666666666667,5
2024-06-15 12:20:56,-1.156978726,1.599245191,-0.6059783101,-0.7158663273,-8.176198959,4.405331135,518.204081632653,-903.9727891156464,-1889.3537414965983,-8258.448979591836,-1111.4761904761904,1790.3333333333333,5
2024-06-15 12:20:57,-1.156978726,1.599245191,-0.6059783101,-0.7158663273,-8.176198959,4.405331135,129.49056603773585,1036.6415094339625,1443.433962264151,-7861.981132075472,-1390.7169811320755,2085.433962264151,5
2024-06-15 12:20:57,-2.797762871,1.996307611,0.334754169,-2.650381327,-11.07318306,-0.06943184882,4.018867924528308,1068.7169811320755,1715.132075471698,-8061.037735849057,-1326.566037735849,2057.132075471698,5
2024-06-15 12:20:57,-0.8393288255,0.9590584636,1.795943856,-3.174711466,-5.995080948,-4.675876141,-77.88349514563106,-53.71844660194176,986.0,-8701.038834951456,-475.4077669902912,1507.9514563106795,5
2024-06-15 12:20:57,-0.8393288255,0.9590584636,1.795943856,-3.174711466,-5.995080948,-4.675876141,-112.13333333333334,-1147.6857142857143,173.847619047619,-8398.44761904762,-207.05714285714285,1442.4476190476191,5
2024-06-15 12:20:57,-1.253495455,2.416582823,-0.5803219676,-2.114080191,-3.830722809,-7.077260017,-553.55,-787.1,27.55,-7883.7,-610.8,1762.05,5
2024-06-15 12:20:57,0.7672467232,1.230282545,0.574213326,1.817199111,-4.786009312,-12.81616211,-816.9230769230769,87.91346153846155,251.45192307692307,-7934.586538461538,-769.3557692307693,1736.3365384615386,5
2024-06-15 12:20:57,0.7672467232,1.230282545,0.574213326,1.817199111,-4.786009312,-12.81616211,-64.82524271844659,1385.8155339805826,1276.504854368932,-8396.990291262136,-858.3203883495146,1693.5145631067962,5
2024-06-15 12:20:57,1.315803766,-0.1160643995,0.9578366876,-0.4764461517,-5.245696068,-8.192957878,382.0,866.0,2230.0,-8435.333333333334,-217.0,1674.0,5
2024-06-15 12:20:57,1.315803766,-0.1160643995,0.9578366876,-0.4764461517,-5.245696068,-8.192957878,875.5882352941177,339.8235294117647,1956.7941176470588,-8222.14705882353,525.1764705882352,1623.1176470588234,5
2024-06-15 12:20:57,-0.3946189582,0.6243042946,1.047023058,-1.027112484,-4.036623955,-5.511452198,1114.0384615384614,-256.6923076923077,579.0769230769231,-8477.576923076924,835.4230769230769,1554.6538461538462,5
2024-06-15 12:20:58,-1.134987593,1.34756875,0.8943067193,1.07739079,-3.885789394,-8.152256966,874.3333333333334,-587.2916666666666,414.5833333333333,-8508.90625,1230.59375,960.875,5
2024-06-15 12:20:58,-1.134987593,1.34756875,0.8943067193,1.07739079,-3.885789394,-8.152256966,519.7547169811321,-672.7924528301887,-1017.622641509434,-8776.471698113208,1031.830188679245,1256.867924528302,5
2024-06-15 12:20:58,1.123992085,0.2003637999,2.74156332,0.323217243,-7.381323814,-10.53448772,468.6238532110092,-1282.7706422018348,-1751.2568807339449,-8629.339449541285,311.07339449541286,1594.7064220183486,5
2024-06-15 12:20:58,5.531995773,0.6548475623,4.039041042,-0.9121908545,-10.80982113,-7.297526836,412.50515463917526,-1516.0,-1214.8453608247423,-8071.18556701031,-14.25773195876289,1739.639175257732,5
2024-06-15 12:20:58,5.531995773,0.6548475623,4.039041042,-0.9121908545,-10.80982113,-7.297526836,986.3762376237624,-959.950495049505,-703.980198019802,-8104.039603960396,-316.4257425742574,1987.673267326733,5
2024-06-15 12:20:58,2.461786985,3.386636972,2.535090685,-3.007117271,0.5219359994,-6.924031258,951.8557692307692,-486.8557692307692,-356.24038461538464,-8017.528846153846,-193.05769230769232,2013.7788461538464,5
2024-06-15 12:20:58,2.461786985,3.386636972,2.535090685,-3.007117271,0.5219359994,-6.924031258,707.2980769230769,-58.65384615384616,-226.2403846153846,-8187.576923076923,39.21153846153846,1743.9326923076924,5
2024-06-15 12:20:58,1.968207836,0.6157521605,0.4972442985,-5.695806026,-2.236184359,-7.058106422,71.16037735849056,1014.6084905660376,-413.1367924528302,-8481.405660377359,-15.669811320754718,1878.4245283018868,5
2024-06-15 12:20:58,-2.186897516,0.8429940343,0.7586946487,-8.183381081,-6.622362137,-8.805873871,-109.02830188679246,960.3632075471698,-494.7405660377359,-8478.575471698114,-180.76415094339623,1766.160377358491,5
2024-06-15 12:20:58,-2.186897516,0.8429940343,0.7586946487,-8.183381081,-6.622362137,-8.805873871,-171.46391752577318,607.7835051546392,-542.6185567010309,-8197.072164948453,-520.2989690721649,2117.103092783505,5
2024-06-15 12:20:59,2.11603713,-0.5461135507,0.8112290502,-8.070854187,-4.256890774,-5.037400246,-794.5882352941177,247.23529411764707,-17.764705882352942,-8097.705882352941,-144.2941176470588,2105.470588235294,5
2024-06-15 12:20:59,-1.255938888,1.795943856,-0.03298672289,-6.909666061,0.9121908545,-3.112462282,-1542.9708737864078,347.28155339805824,316.6019417475728,-8278.776699029126,-80.60194174757281,1732.6699029126214,5
2024-06-15 12:20:59,-1.255938888,1.795943856,-0.03298672289,-6.909666061,0.9121908545,-3.112462282,-1791.5145631067962,311.3592233009709,146.6990291262136,-8317.611650485436,-10.699029126213588,1716.1650485436894,5
2024-06-15 12:20:59,-2.668259382,1.933999419,-0.8747590184,3.117250681,-0.1268926859,-8.118738174,-3124.4647887323945,431.0281690140845,764.9577464788732,-8325.887323943662,32.40845070422536,1832.56338028169,5
2024-06-15 12:20:59,-2.668259382,1.933999419,-0.8747590184,3.117250681,-0.1268926859,-8.118738174,-3434.323943661972,516.4741784037559,1036.7887323943662,-8517.43661971831,-95.29107981220656,1908.150234741784,5
2024-06-15 12:20:59,-0.9920451641,-0.2455678284,-0.2675589919,-6.138733387,-4.388571739,-7.632715225,-3219.391304347826,619.75,279.8913043478261,-8354.010869565218,-288.69565217391306,2197.141304347826,5
2024-06-15 12:20:59,0.2455678284,-0.8173376918,-0.4532620013,-3.08373189,-2.851494312,-7.673416615,-2588.9793814432987,1061.1237113402062,995.9690721649484,-8168.969072164949,262.9278350515464,1901.4639175257728,5
2024-06-15 12:20:59,0.2455678284,-0.8173376918,-0.4532620013,-3.08373189,-2.851494312,-7.673416615,-1001.1470588235294,488.0882352941177,1008.6470588235294,-8407.529411764706,302.29411764705884,1829.7058823529408,5
2024-06-15 12:20:59,1.005484223,-0.976162672,-3.284011602,-1.934514999,-2.992752075,-7.06768322,1153.2285714285713,-939.2285714285714,-211.0,-8440.714285714286,584.3428571428572,1705.4857142857145,5
2024-06-15 12:20:59,0.6010913849,-2.240653753,-3.563787937,-0.6799532771,-11.11388397,-4.57771349,1934.2142857142856,-1551.928571428571,-1171.5,-8494.5,545.7857142857143,1738.071428571429,5
2024-06-15 12:21:00,0.6010913849,-2.240653753,-3.563787937,-0.6799532771,-11.11388397,-4.57771349,1469.076923076923,-1086.3076923076924,-1229.5384615384614,-8129.615384615385,574.6923076923077,2064.3846153846152,5
2024-06-15 12:21:00,1.965764403,-2.017076969,-0.5693264008,1.276109457,-12.81376743,-0.921767652,-228.621359223301,-926.9417475728156,550.3883495145631,-8230.825242718447,554.1553398058253,1984.5533980582525,5
2024-06-15 12:21:00,1.965764403,-2.017076969,-0.5693264008,1.276109457,-12.81376743,-0.921767652,-993.5849056603772,-694.6981132075472,927.3018867924528,-8225.094339622641,191.0566037735849,2055.3584905660377,5
2024-06-15 12:21:00,1.075122833,-0.3200933933,0.4557054639,0.1963245422,-9.816226959,0.07900865376,-896.0792079207921,351.84158415841586,152.5247524752475,-8117.128712871287,85.48514851485149,2100.4455445544554,5
2024-06-15 12:21:00,0.3494149148,0.1649336219,0.2076941878,-0.7517793179,-9.370905876,-0.2466027737,831.5454545454545,328.8787878787879,-1385.171717171717,-8130.848484848485,84.81818181818181,2062.434343434344,5
2024-06-15 12:21:00,0.3494149148,0.1649336219,0.2076941878,-0.7517793179,-9.370905876,-0.2466027737,853.659793814433,-144.02061855670104,-711.9278350515464,-8384.123711340206,-13.639175257731956,2058.659793814433,5
2024-06-15 12:21:00,0.2199114859,0.3127630055,0.08552113175,-1.110909581,-9.181763649,0.2585737705,768.4133333333333,-196.69333333333333,-535.28,-8088.76,-175.07999999999998,2110.306666666667,5
2024-06-15 12:21:00,0.5729916096,0.1368338168,-0.2492330223,-2.070984364,-9.761159897,0.9816226959,1029.08,188.64,-239.28,-8106.76,80.92000000000002,2095.64,5
2024-06-15 12:21:00,0.5729916096,0.1368338168,-0.2492330223,-2.070984364,-9.761159897,0.9816226959,416.27272727272725,-123.1818181818182,-403.8181818181818,-8217.454545454546,-96.27272727272728,2128.0,5
2024-06-15 12:21:00,-0.006108652335,-0.1466076523,0.0171042271,-2.482787132,-10.71644688,1.015141487,283.3173076923077,-271.6826923076923,-818.1730769230769,-8321.365384615385,100.29807692307692,1986.1826923076924,5
2024-06-15 12:21:01,-0.006108652335,-0.1466076523,0.0171042271,-2.482787132,-10.71644688,1.015141487,-179.36893203883494,-175.3495145631068,-608.7378640776699,-8213.718446601943,-494.80582524271847,1996.1553398058247,5
2024-06-15 12:21:01,0.5033529401,-0.5778785348,0.2443460971,-2.56658411,-8.29830265,2.003946781,-1728.8461538461538,2187.769230769231,1943.1538461538464,-8004.692307692308,749.6153846153846,1427.3076923076924,5
2024-06-15 12:21:01,0.0,-0.1429424733,0.4532620013,-2.688688517,-9.99100399,2.396595955,-8838.333333333334,4478.666666666667,2452.333333333333,-8084.666666666667,1033.0,182.66666666666669,5
2024-06-15 12:21:01,0.0,-0.1429424733,0.4532620013,-2.688688517,-9.99100399,2.396595955,-11475.059405940594,5005.059405940594,2628.158415841584,-8407.871287128713,1089.2772277227723,-164.13861386138615,5
2024-06-15 12:21:01,-4.321260929,-0.6560692787,0.2113593817,-2.626439333,-10.40280628,-0.6224924326,-12257.327188940091,4783.055299539171,2665.483870967742,-8747.829493087558,710.8110599078341,-661.2396313364055,5
2024-06-15 12:21:01,-0.5546656251,-1.295034289,-0.8332201838,-1.434126854,-9.758766174,-2.650381327,-11676.221198156682,4513.009216589862,1952.5806451612905,-8797.138248847927,616.8018433179724,-824.3732718894009,5
2024-06-15 12:21:01,-0.5546656251,-1.295034289,-0.8332201838,-1.434126854,-9.758766174,-2.650381327,-3913.0,970.3846153846156,-346.84615384615387,-8416.538461538461,2218.846153846154,-357.61538461538464,5
2024-06-15 12:21:01,0.03787364438,-0.7403686643,-0.428827405,-0.8140285611,-11.12346077,-2.499546528,-3218.420560747664,-511.4859813084112,-1125.3738317757009,-8071.532710280374,2205.485981308412,-321.7102803738318,5
2024-06-15 12:21:01,0.03787364438,-0.7403686643,-0.428827405,-0.8140285611,-11.12346077,-2.499546528,-4766.23,-302.78,-2622.31,-8001.34,2223.65,-354.27,5
2024-06-15 12:21:01,1.458746195,-0.2101376504,0.3457497358,-0.2106897533,-9.478644371,-0.921767652,-10135.35294117647,524.5882352941177,-2803.843137254902,-8131.058823529412,1989.8235294117649,-282.29411764705884,5
2024-06-15 12:21:02,-0.1050688252,-0.5204572082,-0.3457497358,-1.163581967,-9.244012833,0.7110779285,-10026.731481481482,631.4166666666666,-1313.7962962962963,-8516.814814814816,151.82407407407408,543.3055555555555,5
2024-06-15 12:21:02,-0.1050688252,-0.5204572082,-0.3457497358,-1.163581967,-9.244012833,0.7110779285,-4922.265306122449,532.3265306122449,-1748.0204081632653,-8573.816326530612,-31.591836734693885,256.9591836734694,5
2024-06-15 12:21:02,0.01832595654,-1.044579625,-0.2028072625,-2.260126352,-10.60391903,0.08379705995,-1824.8428571428567,-1530.6571428571428,-2009.442857142857,-8932.92857142857,410.8,268.15714285714284,5
2024-06-15 12:21:02,0.4129449129,-1.48684597,0.7464773059,-1.048660398,-10.42435455,0.2729389966,-1515.795238095238,-1889.7047619047617,-1480.3952380952385,-9025.785714285714,517.4666666666667,410.53809523809525,5
2024-06-15 12:21:02,0.4129449129,-1.48684597,0.7464773059,-1.048660398,-10.42435455,0.2729389966,-1141.6190476190477,-2143.114285714286,-673.6,-8845.819047619048,593.6952380952381,582.6857142857143,5
2024-06-15 12:21:02,0.3042109013,-1.898569226,0.4630358517,-0.6560112834,-9.282320023,2.135627985,2504.428571428572,2.591836734693878,1251.428571428571,-8226.673469387755,176.0204081632653,1141.0816326530612,5
2024-06-15 12:21:02,0.2504547536,-1.121548533,0.3909537494,-0.9337386489,-9.107542992,2.432508945,1818.1523178807947,-100.50993377483444,674.8476821192053,-8427.059602649008,888.3443708609271,986.2317880794702,5
2024-06-15 12:21:02,0.2504547536,-1.121548533,0.3909537494,-0.9337386489,-9.107542992,2.432508945,1667.158940397351,-81.96688741721854,725.841059602649,-8215.80132450331,1012.1854304635762,786.8940397350993,5
2024-06-15 12:21:02,-0.1637118906,-0.5717698932,0.1869247705,-1.168370485,-8.343792915,2.212242365,704.4560439560439,-48.17032967032967,566.7197802197802,-8147.379120879121,999.6593406593406,1004.6813186813188,5
2024-06-15 12:21:03,-0.1698205322,-0.3310889602,0.09529497474,-2.236184359,-11.583148,3.82593441,25.123711340206185,-19.989690721649485,-492.2783505154639,-8545.030927835052,1204.7835051546392,646.5360824742268,5
2024-06-15 12:21:03,-0.1698205322,-0.4398229718,-0.006108652335,-2.422932148,-7.187393665,3.193865061,-47.00980392156863,-564.8235294117648,-984.4215686274508,-8150.049019607844,1377.3921568627452,785.4901960784314,5
2024-06-15 12:21:03,-0.1698205322,-0.4398229718,-0.006108652335,-2.422932148,-7.187393665,3.193865061,-78.92233009708738,9.398058252427184,-321.13592233009706,-8481.766990291262,974.9708737864078,965.6213592233008,5
2024-06-15 12:21:03,-0.5619960427,-0.2541199327,-0.2492330223,-2.853888512,-9.129091263,2.786850691,-20.90384615384616,-329.7692307692308,-120.15384615384616,-8574.923076923076,1129.3653846153843,1351.8076923076924,5
2024-06-15 12:21:03,1.207069755,-0.2504547536,0.3090978265,-2.406172752,-9.387664795,3.102885485,-16.096153846153847,-168.23076923076923,-127.84615384615384,-8571.076923076924,947.6346153846154,1342.1923076923076,5
2024-06-15 12:21:03,1.207069755,-0.2504547536,0.3090978265,-2.406172752,-9.387664795,3.102885485,-746.3846153846154,-494.6923076923077,831.6923076923076,-8361.076923076924,1001.4615384615385,1404.7692307692307,5
2024-06-15 12:21:03,0.1282816976,-0.4776966274,0.3640756905,-1.467645645,-8.523358345,4.582501888,-135.625,-276.75,-509.0,-8081.5,1141.375,1351.75,5
2024-06-15 12:21:03,0.1282816976,-0.4776966274,0.3640756905,-1.467645645,-8.523358345,4.582501888,-326.3457943925234,-333.8878504672897,-460.66355140186914,-8164.121495327103,1286.5233644859811,1225.5140186915887,5
2024-06-15 12:21:03,-0.232128799,-0.7244861722,0.2296853364,-1.642422318,-8.927978516,5.556941986,212.22222222222223,48.55555555555556,-454.0,-8264.777777777777,1097.111111111111,1237.4444444444443,5
2024-06-15 12:21:03,-0.1356120855,-0.3090978265,0.5986479521,-1.968033791,-7.953537941,4.216189384,515.0,516.8076923076924,262.93269230769226,-8139.221153846154,993.8942307692308,1479.8076923076924,5
2024-06-15 12:21:04,-0.1356120855,-0.3090978265,0.5986479521,-1.968033791,-7.953537941,4.216189384,210.45714285714288,318.6,1585.8857142857144,-8156.057142857143,1313.5428571428572,1644.4857142857145,5
2024-06-15 12:21:04,0.3848451078,-0.5473352671,0.6780604124,-0.8595184088,-8.461109161,5.628767967,316.1862745098039,-251.36274509803923,688.4509803921569,-8341.137254901962,1524.1078431372548,1110.186274509804,5
2024-06-15 12:21:04,0.3848451078,-0.5473352671,0.6780604124,-0.8595184088,-8.461109161,5.628767967,-261.4271844660194,-327.504854368932,-314.378640776699,-8273.417475728156,1338.4854368932038,1286.0485436893205,5
2024-06-15 12:21:04,-0.3591887653,-0.2809980214,-0.04764748737,-1.094150186,-7.065289021,5.209783077,-220.936,-524.392,-513.64,-8247.992,1305.536,1463.16,5
2024-06-15 12:21:04,-0.538783133,0.2773328125,-0.2064724565,-1.089361787,-9.600749016,5.068524837,-250.136,-576.792,-421.64,-8170.392,1254.736,1465.16,5
2024-06-15 12:21:04,-0.538783133,0.2773328125,-0.2064724565,-1.089361787,-9.600749016,5.068524837,-37.36363636363637,-445.0,-282.90909090909093,-8078.818181818182,1605.4545454545455,1718.4545454545455,5
2024-06-15 12:21:04,-0.06475171447,0.09773843735,-0.1930334121,-1.850717902,-8.860940933,4.012681961,555.3941605839416,-718.4160583941606,-746.051094890511,-8248.182481751825,1611.6861313868612,1992.4744525547449,5
2024-06-15 12:21:04,-0.2895501256,-0.07574728876,0.1747074574,-1.235408068,-8.353369713,4.079719543,158.48076923076923,-185.66346153846155,-975.5192307692308,-8233.461538461539,720.5961538461538,2097.0576923076924,5
2024-06-15 12:21:04,-3.600439787,0.2431243658,-0.2919935882,0.05506663769,-10.68771648,1.44849205,-501.6796116504854,-184.47572815533985,-624.5339805825242,-8102.233009708738,664.504854368932,2013.893203883495,5
2024-06-15 12:21:05,-0.06352998316,0.4508185387,-0.2333505303,-0.5434837937,-9.610325813,-0.2130839527,-210.04950495049505,365.4950495049505,23.88118811881188,-8088.990099009901,791.2079207920792,1996.009900990099,5
2024-06-15 12:21:05,-0.06352998316,0.4508185387,-0.2333505303,-0.5434837937,-9.610325813,-0.2130839527,-144.98765432098764,320.25925925925924,130.03703703703704,-8296.25925925926,483.6296296296296,2093.2098765432097,5
2024-06-15 12:21:05,0.9847147465,0.5534439087,0.05619960278,-1.15400517,-9.969455719,-0.3256114423,-151.57201646090536,248.6543209876544,210.28395061728395,-8291.32098765432,547.8271604938271,2081.275720164609,5
2024-06-15 12:21:05,0.9847147465,0.5534439087,0.05619960278,-1.15400517,-9.969455719,-0.3256114423,-158.15637860082305,177.0493827160494,290.53086419753083,-8286.382716049382,612.0246913580247,2069.341563786008,5
2024-06-15 12:21:05,0.2260201424,0.106290549,0.05253441259,-1.15400517,-9.117119789,1.496376038,760.8,-320.6,-499.6,-8405.2,352.4,1654.8,5
2024-06-15 12:21:05,0.4019493461,-0.5644394755,-0.1368338168,-1.345541358,-9.971850395,1.944091797,7054.387755102041,-1416.428571428571,-2268.408163265306,-8504.510204081633,-817.8163265306123,1954.5306122448976,5
2024-06-15 12:21:05,0.4019493461,-0.5644394755,-0.1368338168,-1.345541358,-9.971850395,1.944091797,10736.432692307691,53.63461538461536,-1169.7403846153848,-8289.115384615385,769.5961538461538,1619.076923076923,5
2024-06-15 12:21:05,0.2651155293,-0.4886921942,0.1710422635,-0.9744400978,-9.854534149,2.013523579,10398.669811320757,284.14150943396226,-235.58490566037733,-8324.301886792453,934.867924528302,1835.5849056603768,5
2024-06-15 12:21:05,0.3115412891,-0.7904596329,0.3408628106,-0.6488286853,-9.859322548,2.801215887,5585.479591836735,-71.10204081632654,970.1530612244898,-8187.632653061224,2006.7755102040817,1681.2857142857142,5
2024-06-15 12:21:05,0.3115412891,-0.7904596329,0.3408628106,-0.6488286853,-9.859322548,2.801215887,4825.444444444444,-317.7037037037037,352.51851851851853,-8086.814814814815,2509.240740740741,1006.537037037037,5
2024-06-15 12:21:06,0.531452775,-0.4960225821,0.4825835526,-0.3112462163,-9.59835434,2.940079689,2691.0625,1436.6041666666663,913.25,-7909.645833333333,2858.1041666666665,698.3125,5
2024-06-15 12:21:06,0.531452775,-0.4960225821,0.4825835526,-0.3112462163,-9.59835434,2.940079689,1920.1634615384608,487.49038461538464,136.21153846153845,-8145.625,2543.442307692308,181.05769230769232,5
2024-06-15 12:21:06,-0.2235766798,-0.06719517708,0.1795943826,-0.7900865674,-10.08916569,3.557783842,-101.47058823529414,-1011.5196078431372,-1047.372549019608,-7801.921568627451,3288.43137254902,173.95098039215685,5
2024-06-15 12:21:06,0.01466076635,0.00244346098,-0.06963863969,-1.319205165,-9.255983353,3.349488258,-8099.776699029126,373.1747572815534,-1438.3689320388348,-7903.126213592233,4140.116504854369,-166.58252427184465,5
2024-06-15 12:21:06,0.01466076635,0.00244346098,-0.06963863969,-1.319205165,-9.255983353,3.349488258,-14600.336633663366,2158.1188118811883,-532.970297029703,-7627.554455445545,1395.6336633663366,307.009900990099,5
2024-06-15 12:21:06,-0.01466076635,0.06475171447,-0.1539380401,-1.130063176,-9.425971985,3.497928619,-13928.858490566035,2704.7169811320755,-280.8018867924528,-7805.452830188679,944.566037735849,497.6698113207547,5
2024-06-15 12:21:06,0.01343903504,0.2528982162,-0.1942551434,-1.079784989,-9.485827446,3.754108191,-9443.457746478873,2972.8380281690143,1391.274647887324,-8741.218309859154,910.1549295774648,566.612676056338,5
2024-06-15 12:21:06,0.01343903504,0.2528982162,-0.1942551434,-1.079784989,-9.485827446,3.754108191,-7605.209677419355,2101.2419354838707,1774.5645161290322,-8716.870967741936,517.4677419354839,648.0322580645161,5
2024-06-15 12:21:06,0.3469714522,0.283441484,-0.1270599663,-1.015141487,-9.050082207,3.519476414,-2996.747572815534,1120.3398058252428,984.5242718446602,-8195.378640776698,1571.1941747572816,714.747572815534,5
2024-06-15 12:21:06,0.3469714522,0.283441484,-0.1270599663,-1.015141487,-9.050082207,3.519476414,-1404.0666666666666,811.495238095238,254.57142857142856,-8267.180952380952,2345.7714285714287,438.0857142857143,5
2024-06-15 12:21:07,-0.2919935882,0.2614503205,-0.2113593817,-0.8116343617,-8.786720276,4.177882195,-1081.4711538461538,442.9038461538462,189.2403846153846,-8179.048076923077,2394.548076923077,440.1538461538461,5
2024-06-15 12:21:07,0.1014036313,0.2773328125,-0.1075122803,-0.8164227605,-9.258378029,3.967192173,-614.3831775700935,-32.54205607476636,-338.8224299065421,-7934.196261682243,2226.8130841121497,545.9345794392523,5
2024-06-15 12:21:07,0.1014036313,0.2773328125,-0.1075122803,-0.8164227605,-9.258378029,3.967192173,5.571428571428584,-452.7142857142857,-1773.7142857142858,-8207.0,1363.2857142857142,862.7142857142857,5
2024-06-15 12:21:07,0.5338962078,0.3237585723,-0.1869247705,-0.8571242094,-9.141061783,4.182670593,1273.5242718446602,-625.0582524271845,-201.3398058252427,-8158.776699029127,2158.78640776699,788.7961165048544,5
2024-06-15 12:21:07,-0.3237585723,0.228463605,-0.01221730467,-1.618480325,-8.82263279,4.175487995,1514.734693877551,-166.55102040816325,154.3673469387755,-8088.408163265306,1994.1632653061224,647.0,5
2024-06-15 12:21:07,-0.3237585723,0.228463605,-0.01221730467,-1.618480325,-8.82263279,4.175487995,1415.5943396226414,-416.0754716981132,-277.79245283018867,-8170.471698113208,1523.2075471698113,923.990566037736,5
2024-06-15 12:21:07,0.8087855577,0.7098253965,-0.09529497474,-0.9552865028,-10.30464458,6.438008308,1535.4056603773586,-1351.9245283018868,-2504.207547169812,-8519.528301886792,1196.7924528301887,957.0094339622642,5
2024-06-15 12:21:07,0.8087855577,0.7098253965,-0.09529497474,-0.9552865028,-10.30464458,6.438008308,-179.46078431372547,-1086.4901960784314,-1755.5196078431372,-8171.892156862745,760.9509803921569,1527.686274509804,5
2024-06-15 12:21:07,0.581543684,1.875356317,0.5021312237,-1.513135433,-8.573636055,6.081272125,-192.24761904761905,-395.6380952380952,-821.7428571428571,-8078.8761904761905,839.0285714285715,1544.7809523809524,5
2024-06-15 12:21:07,-1.067792416,0.4667010605,0.1857030392,-4.027047157,-5.422866821,2.954444885,-86.6601941747573,10.805825242718448,-764.1456310679612,-8471.40776699029,583.4174757281553,1239.6699029126214,5
2024-06-15 12:21:08,-1.067792416,0.4667010605,0.1857030392,-4.027047157,-5.422866821,2.954444885,255.75471698113205,-284.75471698113205,-1484.3962264150944,-8505.867924528302,618.6037735849056,1445.433962264151,5
2024-06-15 12:21:08,-3.501479626,0.003665191587,-1.163087368,-1.917755604,-13.65652657,1.795651317,-520.2330097087379,219.8252427184466,-73.36893203883494,-8145.398058252427,62.30097087378641,1491.5533980582525,5
2024-06-15 12:21:08,-0.8454375267,-0.7562511563,-0.3310889602,-3.608062029,-8.396465302,3.629609823,-267.4854368932039,726.9417475728155,906.1456310679612,-8358.106796116504,470.252427184466,1245.747572815534,5
2024-06-15 12:21:08,-0.8454375267,-0.7562511563,-0.3310889602,-3.608062029,-8.396465302,3.629609823,-599.5238095238095,-28.34285714285716,281.1142857142857,-8396.609523809524,674.3809523809524,1269.1238095238095,5
2024-06-15 12:21:08,0.5436700583,-0.9309586287,1.100779176,-4.041412354,-11.21683502,2.070984364,-447.8,-550.4827586206897,-598.6896551724138,-8187.827586206897,177.26896551724138,1607.7172413793105,5
2024-06-15 12:21:08,0.5436700583,-0.9309586287,1.100779176,-4.041412354,-11.21683502,2.070984364,-126.55555555555554,-598.6666666666666,-935.84126984127,-8350.619047619048,-46.92063492063492,1585.920634920635,5
2024-06-15 12:21:08,0.7782423496,-0.8063421249,1.481959105,-3.339911461,-6.636727333,2.71263051,81.0,-351.0,-1647.0,-8313.0,-468.0,1550.5,5
2024-06-15 12:21:08,-0.9443976879,-0.4654793143,0.7562511563,-2.978386879,-12.74672985,3.507505417,-271.8785046728972,-579.8785046728972,-1321.018691588785,-8453.495327102804,-169.3551401869159,1609.4579439252336,5
2024-06-15 12:21:08,-0.9443976879,-0.4654793143,0.7562511563,-2.978386879,-12.74672985,3.507505417,-822.72,323.16,743.63,-8183.87,-404.99,1466.77,5
2024-06-15 12:21:08,0.03298672289,-0.1869247705,0.6817256212,-4.639962673,-4.975151062,3.926490784,-1067.6,-146.26,-340.3,-8517.64,-884.4,1421.66,5
2024-06-15 12:21:09,-0.7782423496,-0.3286454976,-1.986533761,-3.093308687,-9.217676163,3.11964488,-363.7619047619048,-155.45714285714286,-582.1238095238095,-7966.152380952381,-688.504761904762,1542.104761904762,5
2024-06-15 12:21:09,-0.7782423496,-0.3286454976,-1.986533761,-3.093308687,-9.217676163,3.11964488,-347.4326923076923,-44.45192307692308,-168.45192307692307,-8192.307692307691,-758.9134615384615,1496.0961538461538,5
2024-06-15 12:21:09,-0.8588765264,-0.2394591719,-0.2455678284,-3.928884983,-8.894459724,3.811569214,-377.8571428571428,-100.71428571428572,815.8095238095239,-8464.714285714286,-856.6190476190476,1900.7619047619048,5
2024-06-15 12:21:09,-0.8588765264,-0.2394591719,-0.2455678284,-3.928884983,-8.894459724,3.811569214,842.3052631578947,14.578947368421051,-187.17894736842103,-8215.084210526316,-481.6,1765.9789473684211,5
2024-06-15 12:21:09,0.8674286604,-0.5241223574,-0.5082398653,-2.442085743,-8.365341187,2.995146275,206.68468468468467,-282.7207207207207,-27.08108108108108,-8101.306306306306,-991.072072072072,1802.072072072072,5
2024-06-15 12:21:09,0.3005456924,-0.3848451078,0.1392772794,-1.661576033,-9.03571701,5.032611847,111.22916666666669,14.572916666666666,-525.65625,-8495.822916666666,-202.4270833333333,1438.7604166666667,5
2024-06-15 12:21:09,-0.2333505303,0.3677408695,0.0415388383,-1.446097851,-8.643068314,4.666299343,354.3921568627451,126.27450980392156,614.6470588235294,-8523.56862745098,-604.5294117647059,1451.686274509804,5
2024-06-15 12:21:09,0.01221730467,0.0232128799,-0.3249803185,-2.133233786,-8.626308441,4.620809078,-301.5490196078431,-258.2549019607843,754.9411764705883,-8454.078431372549,-222.27450980392155,1504.4117647058824,5
2024-06-15 12:21:09,0.01221730467,0.0232128799,-0.3249803185,-2.133233786,-8.626308441,4.620809078,-584.8039215686274,-797.3137254901961,-287.9607843137255,-8164.470588235294,-1024.9019607843138,1994.5686274509803,5
2024-06-15 12:21:10,-0.290771842,0.06475171447,-0.05131268129,-2.056619167,-9.25358963,4.788403511,78.38461538461539,-1119.6153846153848,-1498.2307692307693,-8226.923076923076,-145.30769230769232,2078.0,5
2024-06-15 12:21:10,-0.290771842,0.06475171447,-0.05131268129,-2.056619167,-9.25358963,4.788403511,-60.41121495327104,-884.5981308411215,-969.8878504672896,-8264.663551401869,-663.6168224299065,2295.4392523364486,5
2024-06-15 12:21:10,-0.06597344577,-0.04398229718,-0.01466076635,-1.623268723,-8.65743351,4.654327869,166.41584158415844,-639.1683168316831,-619.980198019802,-8007.534653465346,-904.3663366336634,2541.3465346534654,5
2024-06-15 12:21:10,0.3628539443,0.2406809032,-0.03298672289,-1.848323703,-9.229647636,4.750096321,574.0133333333333,365.94666666666666,-159.20666666666668,-8063.026666666667,-1394.513333333333,2263.5666666666666,5
2024-06-15 12:21:10,0.3628539443,0.2406809032,-0.03298672289,-1.848323703,-9.229647636,4.750096321,1383.8333333333333,428.4666666666666,-45.36666666666667,-8239.733333333334,-1587.8333333333333,2181.4333333333334,5
2024-06-15 12:21:10,0.5461135507,0.5595525503,-0.432492584,-1.209071875,-6.902483463,5.521028996,2191.4117647058824,541.9019607843137,-72.69607843137254,-8303.019607843138,-1578.2843137254902,2281.2450980392155,5
2024-06-15 12:21:10,-0.2736676335,0.08796459436,-0.1954768747,-2.272097349,-8.382100105,5.05894804,3582.97,71.01,151.93,-8170.75,-1168.52,2384.54,5
2024-06-15 12:21:10,-0.2736676335,0.08796459436,-0.1954768747,-2.272097349,-8.382100105,5.05894804,3942.788461538461,556.0576923076923,1098.2692307692307,-7859.75,-236.0192307692308,2338.596153846154,5
2024-06-15 12:21:10,-0.05742133409,0.2345722616,-0.0293215327,-1.594538331,-8.65743351,5.317522049,4014.173076923077,533.8846153846154,458.8076923076923,-8136.942307692308,-198.1346153846154,2207.269230769231,5
2024-06-15 12:21:10,-0.05742133409,0.2345722616,-0.0293215327,-1.594538331,-8.65743351,5.317522049,4090.0,464.6,-133.6,-8543.4,-140.4,2101.0,5
2024-06-15 12:21:11,0.1857030392,0.1783726513,-0.1172861308,-1.161187768,-7.752425194,5.219359875,3105.631067961165,-470.7378640776699,-383.71844660194176,-8089.582524271845,-36.213592233009706,2354.126213592233,5
2024-06-15 12:21:11,0.813672483,0.8759807348,-0.2370157093,-1.81959331,-9.126696587,5.858611584,2850.950980392157,-142.59803921568627,-783.6764705882352,-8119.627450980392,-276.51960784313724,2229.1960784313724,5
2024-06-15 12:21:11,0.813672483,0.8759807348,-0.2370157093,-1.81959331,-9.126696587,5.858611584,2774.833333333333,314.3137254901961,-348.37254901960785,-8268.362745098038,-37.20588235294117,2303.8823529411766,5
2024-06-15 12:21:11,-0.05986479297,1.128878951,0.7599163651,-3.663128614,-8.468291283,4.304774761,2644.8190476190475,837.7523809523809,349.5238095238095,-8289.333333333334,253.92380952380952,2083.114285714286,5
2024-06-15 12:21:11,-0.09529497474,0.06597344577,-0.6047565937,-2.889801502,-4.431667328,3.758896589,1472.009900990099,435.950495049505,1267.0,-8324.772277227723,570.3069306930693,1772.2871287128712,5
2024-06-15 12:21:11,-0.09529497474,0.06597344577,-0.6047565937,-2.889801502,-4.431667328,3.758896589,1053.116504854369,-355.79611650485435,695.0097087378641,-8112.271844660194,814.8932038834952,2117.21359223301,5
2024-06-15 12:21:11,-0.444709897,0.6352998614,0.7391469479,-4.443638325,-10.10592556,3.574543238,580.252427184466,-43.300970873786405,286.05825242718447,-8281.990291262136,1402.6893203883494,1709.1553398058252,5
2024-06-15 12:21:11,-0.444709897,0.6352998614,0.7391469479,-4.443638325,-10.10592556,3.574543238,241.980198019802,-26.405940594059405,-60.67326732673267,-8157.376237623763,1391.138613861386,1714.980198019802,5
2024-06-15 12:21:11,-0.7538077235,0.48014009,-0.07941248268,-3.440467834,-12.75391293,3.270479441,563.0,302.93203883495147,485.2330097087379,-8237.14563106796,1233.2135922330096,1536.6796116504854,5
2024-06-15 12:21:12,-0.7538077235,0.48014009,-0.07941248268,-3.440467834,-12.75391293,3.270479441,459.54545454545456,735.0454545454545,429.54545454545456,-8239.954545454546,1693.7727272727273,1553.8636363636365,5
2024-06-15 12:21:12,-0.004886921961,0.4948008358,0.0354301855,-2.595314741,-9.107542992,3.08373189,223.01960784313724,515.2549019607843,-601.4313725490196,-8265.901960784313,1849.058823529412,1176.7254901960785,5
2024-06-15 12:21:12,0.6670648456,-0.1918116808,0.1722639948,-2.573766708,-9.414001465,2.477998734,-204.55660377358487,-578.9433962264151,-1322.5188679245284,-8474.198113207547,1629.4528301886792,1470.6509433962265,5
2024-06-15 12:21:12,0.6670648456,-0.1918116808,0.1722639948,-2.573766708,-9.414001465,2.477998734,-476.46153846153845,-471.88461538461536,-762.2307692307693,-7954.384615384615,1367.1923076923076,1507.1153846153843,5
2024-06-15 12:21:12,-0.04886921868,-0.1808161139,-0.1014036313,-0.9935936928,-9.071630478,4.122815132,-769.0566037735849,246.5754716981132,276.97169811320754,-8110.981132075472,1316.660377358491,1514.9528301886792,5
2024-06-15 12:21:12,-0.04886921868,-0.1808161139,-0.1014036313,-0.9935936928,-9.071630478,4.122815132,-1348.4455445544554,390.8019801980198,-468.980198019802,-8294.970297029702,936.6138613861386,1570.1089108910892,5
2024-06-15 12:21:12,-0.3237585723,-0.2541199327,-0.2712241709,-1.37666595,-8.61912632,5.183446884,-1618.908163265306,228.96938775510205,-940.6632653061224,-8171.734693877551,1272.8163265306123,1492.1122448979593,5
2024-06-15 12:21:12,-0.1429424733,-0.1160643995,0.03298672289,-1.532289028,-9.059659004,4.46279192,-3134.980582524272,962.1650485436892,-331.0,-8106.825242718447,955.3495145631068,1493.3009708737864,5
2024-06-15 12:21:12,-0.1429424733,-0.1160643995,0.03298672289,-1.532289028,-9.059659004,4.46279192,-3779.5,1391.5,18.0,-8128.5,1371.0,1239.5,5
2024-06-15 12:21:12,1.362229466,0.8417723179,0.248011291,-0.7134721279,-10.33337498,7.874529362,-12411.088235294115,1676.2058823529412,174.47058823529412,-8538.70588235294,1625.970588235294,-93.05882352941175,5
2024-06-15 12:21:13,-0.196698606,2.178345442,-0.1038470939,-0.8188169599,-8.681375504,5.858611584,-15694.0,462.0,326.7307692307692,-8490.865384615385,-686.0384615384615,-553.9807692307693,5
2024-06-15 12:21:13,-0.196698606,2.178345442,-0.1038470939,-0.8188169599,-8.681375504,5.858611584,-9001.346153846154,962.4230769230768,236.0,-8217.807692307691,-1017.3846153846154,370.8076923076923,5
2024-06-15 12:21:13,0.2626720667,2.656042099,0.4239404798,-2.224213362,-8.413225174,-0.3112462163,-3253.116504854369,1264.6796116504854,2.38834951456311,-8498.40776699029,425.68932038834953,535.0776699029126,5
2024-06-15 12:21:13,0.2626720667,2.656042099,0.4239404798,-2.224213362,-8.413225174,-0.3112462163,-1800.7777777777778,-0.5555555555555571,-206.5555555555556,-8383.777777777777,456.3333333333333,453.8888888888889,5
2024-06-15 12:21:13,0.6658431292,0.4105014503,-0.7257078886,-6.306327343,-6.114790916,-3.306392431,-1454.857142857143,-186.52380952380952,11.552380952380958,-8470.6,656.4857142857143,823.6761904761905,5
2024-06-15 12:21:13,-0.7538077235,-1.627344966,-0.8356636763,-4.833893299,-9.567230225,0.9361328483,-1035.2135922330096,-236.8640776699029,-232.33009708737865,-8491.009708737864,162.14563106796118,952.1844660194176,5
2024-06-15 12:21:13,-0.7538077235,-1.627344966,-0.8356636763,-4.833893299,-9.567230225,0.9361328483,610.4660194174758,-613.2233009708738,-421.2621359223301,-8516.543689320388,298.11650485436894,903.2135922330098,5
2024-06-15 12:21:13,-2.255314589,-1.948660135,-0.07696902007,-3.490746021,-10.51054573,0.9145850539,1345.169811320755,-777.3962264150944,-530.3018867924528,-8387.622641509433,10.754716981132075,889.4528301886793,5
2024-06-15 12:21:13,-0.09651670605,-1.13254416,0.3885102868,-2.949656487,-10.3405571,2.557007313,3116.938775510204,-467.4285714285714,-269.02721088435374,-8466.00680272109,316.6394557823129,759.2925170068028,5
2024-06-15 12:21:13,-0.09651670605,-1.13254416,0.3885102868,-2.949656487,-10.3405571,2.557007313,4518.657534246575,-1003.917808219178,-750.3835616438356,-8756.794520547945,180.1917808219178,1094.0,5
2024-06-15 12:21:14,-0.5668829679,-0.5363397002,0.6829473376,-3.45722723,-8.015787125,1.371877551,7390.967213114754,-997.4754098360656,-951.4754098360656,-8453.819672131147,71.32786885245902,1279.8032786885246,5
2024-06-15 12:21:14,-0.5668829679,-0.5363397002,0.6829473376,-3.45722723,-8.015787125,1.371877551,9109.0,-781.75,-1009.625,-8501.75,107.25,1327.625,5
2024-06-15 12:21:14,-1.064127207,-1.781283021,-0.2761110961,-6.892906666,-9.488221169,-3.177105665,8551.864077669903,-289.4466019417476,-338.70873786407765,-8147.47572815534,450.6504854368932,1299.8543689320388,5
2024-06-15 12:21:14,-0.1918116808,-2.780658484,1.02991879,0.6560112834,-10.62307262,2.164358377,7651.04854368932,-230.5145631067961,434.5145631067961,-8483.514563106795,579.2718446601941,1061.271844660194,5
2024-06-15 12:21:14,-0.1918116808,-2.780658484,1.02991879,0.6560112834,-10.62307262,2.164358377,7703.266666666666,-967.6666666666666,581.6,-8114.8,764.5333333333333,916.4,5
2024-06-15 12:21:14,1.123992085,0.6072000265,-0.9810495973,-0.1292868853,-7.388506413,3.67988801,6288.788461538462,-640.9807692307693,917.3653846153846,-8234.846153846154,1260.5384615384614,910.0576923076924,5
2024-06-15 12:21:14,0.4386012554,1.312138557,-1.408655286,-2.923320293,-10.6111021,-0.2346317619,5406.78,33.31,435.82,-8177.7,1696.66,750.62,5
2024-06-15 12:21:14,0.4386012554,1.312138557,-1.408655286,-2.923320293,-10.6111021,-0.2346317619,4147.456310679611,-458.4271844660194,-114.75728155339806,-8152.699029126214,1667.8543689320388,875.1456310679612,5
2024-06-15 12:21:14,-0.1014036313,0.4740314186,-0.2406809032,-3.349488258,-10.48420906,-0.107739076,3275.70297029703,-709.8811881188119,134.6039603960396,-8055.980198019802,1717.4653465346537,698.5544554455446,5
2024-06-15 12:21:14,-0.1014036313,0.4740314186,-0.2406809032,-3.349488258,-10.48420906,-0.107739076,2441.2403846153848,-546.9711538461538,-680.5576923076924,-8061.317307692308,1849.125,589.4230769230769,5
2024-06-15 12:21:15,0.03665191308,-0.4373795092,0.6120869517,-1.695094824,-11.37245846,0.8140285611,1891.7788461538464,-531.2884615384615,-1471.5865384615386,-8194.75,1913.9903846153843,555.4519230769231,5
2024-06-15 12:21:15,0.7464773059,-0.3714060783,0.3481931984,-0.3303998411,-8.152256966,2.248155355,243.63106796116503,-476.5242718446602,-1528.6407766990292,-8283.873786407767,1274.2912621359224,999.9514563106796,5
2024-06-15 12:21:15,0.7464773059,-0.3714060783,0.3481931984,-0.3303998411,-8.152256966,2.248155355,-479.6116504854369,-217.4368932038835,-680.8252427184466,-8762.213592233009,1117.5242718446602,1591.5728155339807,5
2024-06-15 12:21:15,-0.161268428,0.3042109013,-0.6133087277,-0.7781155705,-10.10592556,3.241749048,-546.7378640776699,-865.0485436893204,-938.242718446602,-8137.776699029127,1110.8543689320388,1896.1359223300967,5
2024-06-15 12:21:15,0.3824016452,-0.05497787148,-0.5632177591,-1.89860189,-9.607931137,1.630451322,-864.2352941176471,-232.15686274509804,-703.4901960784314,-8264.313725490196,663.5490196078431,1786.137254901961,5
2024-06-15 12:21:15,0.3824016452,-0.05497787148,-0.5632177591,-1.89860189,-9.607931137,1.630451322,-455.1651376146789,-516.5045871559633,-971.0825688073396,-8140.715596330275,546.8532110091743,2089.844036697248,5
2024-06-15 12:21:15,0.1759291887,-0.4202753007,0.2663372457,-1.106121182,-10.40520096,1.750161409,-164.875,-585.25625,-822.875,-8164.7625,246.99375,2187.4125,5
2024-06-15 12:21:15,0.1307251602,-0.1514945775,0.4996877611,-0.007182605099,-9.583989143,3.778050184,-402.375,-433.38125,-460.375,-8386.0125,223.86875,2313.6625,5
2024-06-15 12:21:15,0.1307251602,-0.1514945775,0.4996877611,-0.007182605099,-9.583989143,3.778050184,-2157.169811320755,954.3207547169812,974.811320754717,-8129.584905660377,437.8867924528302,1885.754716981132,5
2024-06-15 12:21:16,-0.1148426682,0.03420845419,-0.1893682331,-1.15400517,-9.993397713,3.485957623,-1356.4857142857145,195.20952380952383,-820.7238095238095,-8498.742857142857,203.25714285714287,1024.752380952381,5
2024-06-15 12:21:16,0.2309070677,-0.6304129362,0.17715092,-1.395819545,-8.523358345,4.024652958,-235.54901960784315,-331.2647058823529,-1042.5882352941176,-8608.029411764706,83.7843137254902,1089.5882352941176,5
2024-06-15 12:21:16,0.2309070677,-0.6304129362,0.17715092,-1.395819545,-8.523358345,4.024652958,34.04878048780488,-615.9024390243902,-1275.2439024390244,-8582.512195121952,-524.0731707317074,1374.0975609756097,5
2024-06-15 12:21:16,-0.4825835526,-0.2394591719,0.1857030392,-0.6607996821,-10.17296314,4.446032524,-77.71428571428571,-789.5238095238095,-1338.5238095238096,-8373.857142857143,-473.4761904761905,1505.2380952380952,5
2024-06-15 12:21:16,-0.4825835526,-0.2394591719,0.1857030392,-0.6607996821,-10.17296314,4.446032524,1163.74,-508.08,1463.0,-8046.26,-1328.7,2282.16,5
2024-06-15 12:21:16,0.2736676335,-0.04642575979,0.17715092,-0.5722141862,-8.540117264,3.579331636,4288.903846153846,10.307692307692308,1577.951923076923,-7997.682692307692,-367.96153846153845,2130.980769230769,5
2024-06-15 12:21:16,0.2724458873,0.3335324228,-0.17715092,-0.6584054828,-8.717288017,4.292803764,3588.607476635514,1018.9719626168225,852.9252336448599,-8021.728971962617,325.2336448598131,1585.3738317757009,5
2024-06-15 12:21:16,0.2724458873,0.3335324228,-0.17715092,-0.6584054828,-8.717288017,4.292803764,2311.8571428571427,1165.857142857143,1062.142857142857,-8519.714285714286,1228.0,987.7142857142856,5
2024-06-15 12:21:16,-0.3701843321,0.976162672,-0.4642575979,-1.113303781,-9.263166428,4.376600742,1358.3663366336634,1201.8217821782175,1510.4950495049504,-8514.79207920792,1857.4059405940595,370.53465346534654,5
2024-06-15 12:21:17,1.047023058,0.5913175344,-0.2736676335,-1.505952835,-9.945513725,4.699818134,1763.1442307692307,927.625,674.6442307692307,-8435.163461538461,1826.942307692308,83.74038461538461,5
2024-06-15 12:21:17,1.047023058,0.5913175344,-0.2736676335,-1.505952835,-9.945513725,4.699818134,1040.8058252427184,665.0582524271845,-236.47572815533985,-8092.854368932039,1526.0485436893205,10.524271844660191,5
2024-06-15 12:21:17,-1.001819015,1.369559884,0.8356636763,-2.765302896,-9.370905876,2.353500366,223.70873786407768,427.2718446601942,-19.33980582524272,-8088.407766990291,1386.4563106796118,19.223300970873787,5
2024-06-15 12:21:17,-1.001819015,1.369559884,0.8356636763,-2.765302896,-9.370905876,2.353500366,370.12745098039215,273.9117647058824,-214.843137254902,-8464.862745098038,1586.186274509804,-79.95098039215686,5
2024-06-15 12:21:17,-1.362229466,0.7929030657,-0.6731734872,-2.087743998,-9.737217903,0.2609679997,467.2135922330097,-29.55339805825244,-532.9611650485436,-8159.155339805825,1712.9320388349515,-342.49514563106794,5
2024-06-15 12:21:17,-4.256508827,0.1759291887,0.3469714522,-4.675876141,-11.51132202,-1.539471745,240.7894736842105,-147.19736842105263,-474.1842105263158,-8239.894736842105,1604.5657894736842,-330.0921052631579,5
2024-06-15 12:21:17,-4.256508827,0.1759291887,0.3469714522,-4.675876141,-11.51132202,-1.539471745,309.2105263157895,-201.80263157894737,-451.8157894736842,-8424.105263157895,1614.4342105263158,-318.9078947368421,5
2024-06-15 12:21:17,3.903429031,-0.5583308339,-1.149648428,-3.11964488,-8.46589756,-3.739742994,-522.2947368421053,-941.4315789473684,-531.1684210526316,-8481.431578947368,988.1473684210526,140.25263157894736,5
2024-06-15 12:21:17,-0.1539380401,-0.4117231667,0.4312708676,0.3256114423,-7.757213593,4.821922302,-1522.388349514563,-1260.621359223301,-825.504854368932,-8091.708737864078,643.8543689320388,430.28155339805824,5
2024-06-15 12:21:17,-0.1539380401,-0.4117231667,0.4312708676,0.3256114423,-7.757213593,4.821922302,-1046.0857142857142,-1039.7428571428572,-2049.4,-8471.171428571428,539.5142857142857,798.1428571428571,5
2024-06-15 12:21:18,-0.7574729323,-0.6756169796,0.3628539443,0.4596867263,-9.145850182,2.916137695,-966.8,-1314.2,-1742.4,-8547.6,366.0,845.4,5
2024-06-15 12:21:18,-0.4434881806,-0.04764748737,-0.2199114859,-0.5339069963,-11.09233665,0.6488286853,-687.3203883495146,-981.8834951456312,-1881.5728155339807,-8249.669902912621,-146.3009708737864,1345.5339805825242,5
2024-06-15 12:21:18,0.3176499307,-0.1844813079,0.08185594529,-1.201889277,-9.018958092,0.6512228847,-1985.3465346534647,-1707.118811881188,-158.13861386138615,-8215.148514851486,-740.1386138613861,2137.920792079208,5
2024-06-15 12:21:18,0.3176499307,-0.1844813079,0.08185594529,-1.201889277,-9.018958092,0.6512228847,-1727.7884615384614,-1351.9903846153848,-1639.2307692307693,-7960.336538461538,-1502.5192307692307,2548.153846153846,5
2024-06-15 12:21:18,-0.4691445231,0.1954768747,-0.01954768784,-0.6943184733,-11.3030262,0.538695395,-238.05882352941177,129.9607843137255,-1030.8529411764705,-8113.950980392156,-1271.2058823529412,2068.5,5
2024-06-15 12:21:18,0.1685988009,0.02809980139,0.4948008358,-2.032677174,-8.360552788,-1.716642618,1183.3529411764707,1209.0686274509803,405.62745098039215,-8204.980392156862,-805.4313725490197,1679.1470588235295,5
2024-06-15 12:21:18,0.1685988009,0.02809980139,0.4948008358,-2.032677174,-8.360552788,-1.716642618,945.2772277227724,1087.079207920792,2707.910891089109,-8132.762376237623,-347.7227722772277,1258.6534653465346,5
2024-06-15 12:21:18,0.7916813493,-0.2309070677,-0.813672483,-1.182735682,-8.70771122,-1.276109457,804.0679611650486,660.8932038834952,3346.398058252428,-8415.932038834952,516.1747572815534,1283.776699029126,5
2024-06-15 12:21:18,0.7916813493,-0.2309070677,-0.813672483,-1.182735682,-8.70771122,-1.276109457,976.7264150943396,370.2735849056604,3011.1132075471696,-8428.254716981131,976.3301886792452,1207.4716981132076,5
2024-06-15 12:21:19,-0.5473352671,-0.1869247705,0.02687807009,-1.551442742,-11.09233665,-1.443703651,1068.5643564356435,660.9108910891089,987.9306930693068,-8129.504950495049,1538.7029702970297,1142.4455445544554,5
2024-06-15 12:21:19,-1.718974829,-0.4190535545,0.719599247,-1.096544385,-9.821015358,-3.725377798,-316.28846153846155,284.02884615384613,486.0576923076923,-8477.673076923076,1551.0192307692307,1021.7307692307692,5
2024-06-15 12:21:19,-1.718974829,-0.4190535545,0.719599247,-1.096544385,-9.821015358,-3.725377798,-319.2019230769231,63.93269230769232,324.625,-8410.942307692309,1552.5096153846157,1141.548076923077,5
2024-06-15 12:21:19,0.1893682331,-0.03298672289,-0.007330383174,-1.235408068,-8.693346024,-3.363853455,-38.54545454545455,-220.27272727272728,-297.1818181818182,-8266.636363636364,1431.090909090909,967.9090909090908,5
2024-06-15 12:21:19,0.5131267905,0.3530801237,0.05864306539,-1.443703651,-8.532935143,-2.772485495,-261.27272727272725,-213.7792207792208,-495.23376623376623,-8249.103896103896,1426.5454545454545,993.8831168831168,5
2024-06-15 12:21:19,0.5131267905,0.3530801237,0.05864306539,-1.443703651,-8.532935143,-2.772485495,-451.3619047619048,-1068.7333333333331,-1387.142857142857,-8368.285714285714,977.4571428571428,1570.142857142857,5
2024-06-15 12:21:19,-0.1563815027,0.393397212,-0.3579670191,-1.774103403,-9.500192642,-3.387795448,-734.6407766990292,-955.1941747572816,-1737.495145631068,-8106.466019417476,910.019417475728,1873.6990291262136,5
2024-06-15 12:21:19,-0.1563815027,0.393397212,-0.3579670191,-1.774103403,-9.500192642,-3.387795448,-2255.543689320388,-461.8252427184466,-1830.9514563106795,-8254.184466019418,158.38834951456312,2122.242718446602,5
2024-06-15 12:21:19,1.003040791,0.3274237812,0.4495968223,-0.6895300746,-9.921571732,-3.835511208,-1586.5882352941176,-105.0,-1574.9411764705883,-8107.764705882353,-234.91176470588235,2138.4411764705883,5
2024-06-15 12:21:19,-0.1514945775,1.094670534,0.1014036313,-0.8978256583,-8.497021675,-2.262520552,-3493.142857142857,384.8285714285714,-590.7428571428571,-8516.085714285715,316.1714285714286,1749.8857142857144,5
2024-06-15 12:21:20,-0.1514945775,1.094670534,0.1014036313,-0.8978256583,-8.497021675,-2.262520552,-11590.51923076923,747.5192307692307,2129.903846153846,-8407.326923076924,259.5192307692308,659.2884615384615,5
2024-06-15 12:21:20,0.3359758854,1.527163148,0.1148426682,-1.613691926,-9.923966408,-2.767697096,-13793.333333333334,1401.6666666666667,4777.666666666667,-8247.0,298.6666666666667,-98.0,5
2024-06-15 12:21:20,-0.09896016866,1.974316478,0.3323107064,-1.630451322,-9.258378029,-2.853888512,-14565.050505050503,2884.010101010101,5550.454545454545,-8636.070707070707,745.7373737373738,-252.1818181818182,5
2024-06-15 12:21:20,-0.09896016866,1.974316478,0.3323107064,-1.630451322,-9.258378029,-2.853888512,-12595.533980582524,3595.52427184466,3895.242718446602,-8691.436893203883,579.6407766990292,253.5728155339806,5
2024-06-15 12:21:20,-0.1441642046,2.109928608,0.3555235863,-1.551442742,-9.160215378,-3.27287364,-6531.188118811881,2426.4257425742576,1524.4455445544554,-8500.039603960397,958.029702970297,449.2178217821782,5
2024-06-15 12:21:20,-0.1441642046,2.109928608,0.3555235863,-1.551442742,-9.160215378,-3.27287364,-2477.657142857143,958.6571428571428,-180.8,-7949.6,2364.0857142857144,576.9142857142857,5
2024-06-15 12:21:20,-0.1930334121,1.049466491,1.343903542,-3.141192675,-9.255983353,-3.799597979,-1862.470588235294,236.0,-562.5,-7909.323529411765,2441.9411764705883,581.7058823529412,5
2024-06-15 12:21:20,0.3640756905,-0.5461135507,0.6743952036,-3.265691042,-7.350199223,-2.710236311,-1525.5333333333333,424.5333333333333,-450.0,-8102.0,2406.733333333333,543.8666666666667,5
2024-06-15 12:21:20,0.3640756905,-0.5461135507,0.6743952036,-3.265691042,-7.350199223,-2.710236311,-2450.6019417475727,552.0970873786407,-310.1650485436893,-8510.883495145632,1978.9223300970875,319.6796116504854,5
2024-06-15 12:21:20,2.495995283,-0.1331686229,-1.51983273,-1.00556469,-8.441955566,-2.070984364,-1466.44,287.76,-970.4,-8426.04,1273.96,430.84,5
2024-06-15 12:21:21,-0.6658431292,0.3665191531,-0.2797762752,-1.177947283,-11.54484081,-0.3399766386,124.44117647058827,-353.3235294117647,-883.7450980392157,-8315.049019607843,1338.4411764705883,695.2745098039215,5
2024-06-15 12:21:21,-0.6658431292,0.3665191531,-0.2797762752,-1.177947283,-11.54484081,-0.3399766386,441.88235294117646,-859.4705882352941,37.70588235294117,-7891.058823529412,1754.3529411764705,1011.7058823529412,5
2024-06-15 12:21:21,-0.5045747161,0.2846632004,-0.326202035,-1.41257906,-9.87608242,-1.812410712,288.2375,-708.8,-50.7125,-8214.4,2006.65,1064.15,5
2024-06-15 12:21:21,-0.5045747161,0.2846632004,-0.326202035,-1.41257906,-9.87608242,-1.812410712,449.4875,-588.8,-134.4625,-8254.4,1921.65,1329.15,5
2024-06-15 12:21:21,-1.028697014,0.8038986921,1.607797384,-0.895431459,-12.18409252,-4.089296341,289.16,232.74,151.26,-8156.74,1895.4,1070.48,5
2024-06-15 12:21:21,1.203404546,-0.3530801237,1.240056396,-2.214636564,-6.349422932,-3.442862034,-339.8666666666667,519.3619047619047,799.4571428571428,-8101.028571428571,1910.8761904761905,991.7714285714286,5
2024-06-15 12:21:21,1.203404546,-0.3530801237,1.240056396,-2.214636564,-6.349422932,-3.442862034,-904.3032786885246,-88.22131147540983,373.24590163934425,-8120.549180327869,2348.4262295081967,1133.0983606557377,5
2024-06-15 12:21:21,0.7648032904,-0.2492330223,-1.382998943,-2.08295536,-7.965508938,-3.433285236,-223.02298850574712,-342.35632183908046,40.60919540229885,-7930.781609195402,2303.32183908046,1114.7011494252874,5
2024-06-15 12:21:21,-1.876578093,-0.003665191587,-0.1685988009,-3.584120035,-11.60469532,-2.461239338,209.6185567010309,-176.91752577319588,-225.36082474226805,-7901.154639175258,1791.1443298969073,733.3092783505155,5
2024-06-15 12:21:21,-1.876578093,-0.003665191587,-0.1685988009,-3.584120035,-11.60469532,-2.461239338,1141.6507177033493,-92.00956937799045,-542.9712918660288,-7874.339712918661,1790.1818181818182,815.9282296650717,5
2024-06-15 12:21:22,-0.1734857261,-0.287106663,-0.125838235,-1.8602947,-10.10113716,-2.360682964,1030.925925925926,-108.96296296296296,-578.4814814814815,-7947.814814814815,1514.3333333333333,741.8518518518518,5
2024-06-15 12:21:22,-0.1734857261,-0.287106663,-0.125838235,-1.8602947,-10.10113716,-2.360682964,1705.74,-497.52,-805.74,-8199.96,1276.74,151.56,5
2024-06-15 12:21:22,0.4557054639,-0.09529497474,0.007330383174,-1.920149803,-9.519346237,-2.403778553,2258.3,-150.9,-962.73,-8767.43,1296.95,-272.46,5
2024-06-15 12:21:22,0.287106663,0.09896016866,0.1087340117,-1.690306425,-9.196128845,-2.420537949,2190.8888888888887,-243.41666666666663,-1033.4907407407406,-9008.055555555557,1289.0,76.54629629629629,5
2024-06-15 12:21:22,0.287106663,0.09896016866,0.1087340117,-1.690306425,-9.196128845,-2.420537949,2379.777777777778,-585.0833333333333,-882.5648148148148,-9013.611111111111,989.0,-68.82407407407408,5
2024-06-15 12:21:22,1.629788518,1.134987593,0.1881465018,-1.244984865,-9.979032516,0.2561795712,2681.7087378640776,-1048.0776699029127,252.81553398058253,-8238.456310679612,1010.0776699029126,456.5728155339806,5
2024-06-15 12:21:22,0.6621779203,2.570520878,1.954768777,-0.6607996821,-10.97980881,-1.089361787,2890.6666666666665,-452.3333333333333,-648.5,-8398.0,1343.0,409.8333333333333,5
2024-06-15 12:21:22,0.6621779203,2.570520878,1.954768777,-0.6607996821,-10.97980881,-1.089361787,3227.192307692308,-671.8653846153846,-1123.9807692307693,-8280.971153846154,588.2692307692307,643.4615384615385,5
2024-06-15 12:21:22,-0.3518583775,2.184454203,1.611462474,-2.233790159,-6.912060261,-4.769249916,3759.87074829932,-1021.4965986394558,-1462.2857142857142,-8517.231292517006,515.3537414965987,668.204081632653,5
2024-06-15 12:21:22,-0.3518583775,2.184454203,1.611462474,-2.233790159,-6.912060261,-4.769249916,2805.590163934426,-1058.6065573770493,-1283.229508196721,-8496.0,409.8360655737705,863.2131147540983,5
2024-06-15 12:21:23,-2.284636021,1.071457624,0.2235766798,-4.644751072,-6.428431511,-6.133944988,1538.5576923076924,-300.1730769230769,-242.03846153846155,-8469.846153846154,461.11538461538464,974.2307692307692,5
2024-06-15 12:21:23,-0.4899139404,0.3738495409,0.9126327038,-5.152322292,-1.929726601,-7.568071365,1003.9423076923076,-308.6923076923077,-66.83653846153847,-8541.35576923077,795.25,1314.3557692307693,5
2024-06-15 12:21:23,-0.4899139404,0.3738495409,0.9126327038,-5.152322292,-1.929726601,-7.568071365,-41.08737864077671,-476.9611650485437,-62.271844660194176,-8280.330097087379,829.8932038834952,1181.242718446602,5
2024-06-15 12:21:23,-0.1026253626,0.1466076523,-2.432465315,-1.855506301,-3.150769472,-8.611943245,-723.1889400921659,93.29493087557604,437.3271889400921,-7698.101382488479,507.31336405529953,1352.073732718894,5
2024-06-15 12:21:23,2.024407387,-0.7073819637,-1.679879427,-2.049436569,-9.02374649,-7.656657219,-637.0138248847926,424.63133640553,878.3410138248848,-7771.373271889401,415.6082949308756,1259.9078341013824,5
2024-06-15 12:21:23,2.024407387,-0.7073819637,-1.679879427,-2.049436569,-9.02374649,-7.656657219,-36.1875,685.3125,1812.3333333333333,-8885.166666666666,1207.75,958.9791666666666,5
2024-06-15 12:21:23,1.69209671,-1.879021525,-0.4703662395,-0.7541735172,-10.0460701,-0.9433154464,-149.56,-68.02,-381.78,-7847.6,533.16,1586.66,5
2024-06-15 12:21:23,1.69209671,-1.879021525,-0.4703662395,-0.7541735172,-10.0460701,-0.9433154464,459.421568627451,107.3529411764706,-935.7941176470588,-8239.70588235294,473.3137254901961,1280.186274509804,5
2024-06-15 12:21:23,2.49355197,-0.5167919993,-0.1270599663,-0.6967126727,-9.361329079,2.645592928,527.5,505.00961538461536,-860.875,-8491.98076923077,747.2019230769231,1085.8365384615386,5
2024-06-15 12:21:23,0.2125810981,0.04764748737,0.0232128799,-2.250549555,-9.06205368,4.153939724,572.3529411764706,167.23529411764707,-728.0882352941177,-8379.117647058823,561.9117647058823,1249.5,5
2024-06-15 12:21:24,0.2125810981,0.04764748737,0.0232128799,-2.250549555,-9.06205368,4.153939724,213.23584905660377,-186.62264150943395,-283.02830188679246,-8486.801886792453,571.4528301886793,1028.8207547169811,5
2024-06-15 12:21:24,0.5265658498,0.006108652335,0.1014036313,-2.118868589,-10.15380955,4.086902142,484.0204081632653,-467.3673469387755,-74.06122448979592,-8168.224489795918,226.0,1283.3061224489795,5
2024-06-15 12:21:24,0.1991420686,-0.2052507252,0.0109955743,-1.177947283,-9.25358963,4.355052948,307.61386138613864,356.4950495049505,313.13861386138615,-8192.445544554455,610.2475247524752,1558.2970297029703,5
2024-06-15 12:21:24,0.1991420686,-0.2052507252,0.0109955743,-1.177947283,-9.25358963,4.355052948,-187.42307692307693,265.5480769230769,83.6826923076923,-8357.826923076924,353.53846153846155,1204.4423076923076,5
2024-06-15 12:21:24,-0.7806857824,-0.4092797041,0.2138028294,-0.6512228847,-8.520963669,3.440467834,-329.7307692307692,20.355769230769223,-348.0480769230769,-8440.51923076923,207.3846153846154,1548.673076923077,5
2024-06-15 12:21:24,-0.7806857824,-0.4092797041,0.2138028294,-0.6512228847,-8.520963669,3.440467834,-257.07070707070704,-1035.9595959595958,8.23232323232321,-8152.0,430.1010101010101,1452.3333333333333,5
2024-06-15 12:21:24,-0.9321803451,-0.5754350424,0.1502728462,-0.5434837937,-10.71165848,1.869871497,-800.6153846153846,-512.8461538461538,-628.7692307692307,-8205.384615384615,179.46153846153845,1687.5,5
2024-06-15 12:21:24,-0.4495968223,-0.7929030657,-0.3103195429,-2.145204782,-9.397241592,1.273715258,-951.4423076923076,580.6634615384615,380.66346153846143,-8291.307692307691,513.4134615384615,1523.7692307692307,5
2024-06-15 12:21:24,-0.4495968223,-0.7929030657,-0.3103195429,-2.145204782,-9.397241592,1.273715258,-759.4588235294118,1065.7882352941176,1890.4823529411765,-8379.576470588236,646.5294117647059,1274.1294117647058,5
2024-06-15 12:21:24,-0.1356120855,-1.522276163,-0.09040805697,-2.11647439,-9.323021889,1.33835876,-318.1,514.2,1147.8,-8423.2,887.4,1354.7,5
2024-06-15 12:21:25,0.1160643995,-2.084272146,0.4349360466,-1.084573388,-10.30224991,-0.1221042871,212.3636363636364,-83.73737373737373,-1305.888888888889,-8534.323232323231,1047.828282828283,1367.3232323232323,5
2024-06-15 12:21:25,0.1160643995,-2.084272146,0.4349360466,-1.084573388,-10.30224991,-0.1221042871,115.25388601036268,-362.3730569948186,-994.3471502590672,-8481.139896373057,891.2901554404145,1102.3264248704663,5
2024-06-15 12:21:25,0.3274237812,-2.569299221,0.1600466967,-0.5315127969,-10.14662647,0.2274491638,38.74528301886792,-53.6320754716981,-353.70754716981133,-8474.5,949.2924528301888,1351.7264150943397,5
2024-06-15 12:21:25,-0.2138028294,-1.083674908,0.4043927789,-0.2178723514,-8.688557625,0.117315881,540.6039603960396,-898.950495049505,127.66336633663366,-8338.81188118812,212.7227722772277,1773.049504950495,5
2024-06-15 12:21:25,-0.2138028294,-1.083674908,0.4043927789,-0.2178723514,-8.688557625,0.117315881,2162.076923076923,-717.2307692307693,1053.5576923076924,-8085.615384615385,36.03846153846153,1897.134615384616,5
2024-06-15 12:21:25,-1.799609065,0.5656611919,0.7098253965,0.009576806799,-13.88636971,-0.09576806426,2489.205882352941,80.44117647058823,594.0588235294117,-8020.529411764706,464.8235294117647,1619.1470588235295,5
2024-06-15 12:21:25,-1.799609065,0.5656611919,0.7098253965,0.009576806799,-13.88636971,-0.09576806426,1976.442307692308,321.25,-495.96153846153845,-8368.442307692309,790.1923076923077,1609.7307692307693,5
2024-06-15 12:21:25,-1.524719596,0.7342600226,0.4996877611,-1.687912226,-6.787561893,-3.60566783,1878.2307692307693,-54.63461538461539,-308.6442307692308,-8244.51923076923,1087.3461538461538,867.9326923076923,5
2024-06-15 12:21:25,-2.122145891,1.286482215,-0.5180137157,-0.624886632,-9.232041359,-8.29830265,1229.247619047619,-472.0,258.7047619047619,-8470.361904761905,1376.057142857143,1151.1809523809525,5
2024-06-15 12:21:25,-2.122145891,1.286482215,-0.5180137157,-0.624886632,-9.232041359,-8.29830265,721.2830188679245,-984.1509433962264,305.2641509433962,-8171.283018867924,1235.4716981132076,1608.5849056603774,5
2024-06-15 12:21:26,-0.3787364662,-0.08063421398,1.127657294,-2.470816135,-9.097966194,-6.418854713,853.070707070707,293.969696969697,173.85858585858583,-8098.060606060606,1540.1515151515152,1484.6969696969695,5
2024-06-15 12:21:26,1.247386813,-0.2138028294,-0.5864306092,-2.56658411,-5.262455463,-4.127603531,744.82,501.75,219.28,-7921.11,1515.42,1347.76,5
2024-06-15 12:21:26,1.247386813,-0.2138028294,-0.5864306092,-2.56658411,-5.262455463,-4.127603531,1059.6538461538462,235.53846153846155,864.8846153846154,-8245.576923076924,2142.0,932.0769230769232,5
2024-06-15 12:21:26,-6.396980762,1.121548533,-1.362229466,1.149216771,-10.40041256,-10.82897472,927.9333333333332,-190.0,-99.46666666666668,-8129.066666666667,1961.0,1124.8666666666666,5
2024-06-15 12:21:26,-6.396980762,1.121548533,-1.362229466,1.149216771,-10.40041256,-10.82897472,741.3548387096774,-1062.3096774193548,-1475.083870967742,-8447.864516129031,1691.8129032258064,954.5096774193548,5
2024-06-15 12:21:26,1.681101203,-0.7855727077,0.09407325089,0.3998316824,-8.331821442,-5.530605793,776.8387096774194,-1093.277419354839,-1683.4709677419355,-8234.316129032259,1673.1032258064515,1205.4774193548387,5
2024-06-15 12:21:26,3.323107004,-0.4679227769,-0.2370157093,-1.192312479,-9.746794701,-2.794033289,260.25,-455.5769230769231,-1836.5576923076924,-8083.173076923077,1346.4038461538462,1243.8461538461538,5
2024-06-15 12:21:26,3.323107004,-0.4679227769,-0.2370157093,-1.192312479,-9.746794701,-2.794033289,179.98019801980195,-367.4851485148515,-2094.0,-8277.742574257425,539.5544554455446,1629.7722772277227,5
2024-06-15 12:21:26,1.423316002,-0.25167647,0.668286562,-1.110909581,-11.08994198,-0.004788403399,713.3557692307693,508.4134615384616,-149.24038461538453,-8123.4807692307695,183.30769230769232,1425.4134615384614,5
2024-06-15 12:21:26,1.423316002,-0.25167647,0.668286562,-1.110909581,-11.08994198,-0.004788403399,946.532710280374,875.9626168224299,1178.9345794392525,-8177.130841121495,738.6355140186915,1360.9158878504672,5
2024-06-15 12:21:27,0.4874704778,-0.6389650702,0.5913175344,-1.431732655,-9.174580574,1.886630893,530.46,421.26,68.88,-8338.68,1225.22,910.18,5
2024-06-15 12:21:27,-0.6536257863,-0.393397212,0.00244346098,-1.934514999,-8.973467827,3.359065056,704.0,-503.9142857142857,-1123.8,-8724.714285714286,1185.3142857142857,1207.4571428571428,5
2024-06-15 12:21:27,-0.6536257863,-0.393397212,0.00244346098,-1.934514999,-8.973467827,3.359065056,256.7692307692308,-720.4038461538462,-1006.5961538461538,-8259.76923076923,410.0192307692308,1737.3653846153843,5
2024-06-15 12:21:27,-2.079385281,1.403768301,1.65544486,-2.86107111,-8.710105896,0.2466027737,486.0098039215686,-77.0392156862745,608.4901960784314,-7985.186274509804,36.01960784313725,1692.8921568627452,5
2024-06-15 12:21:27,0.235793978,0.5852088928,-0.1123992056,-1.78368032,-8.374917984,-4.398148537,633.6116504854369,627.747572815534,716.7572815533981,-7828.563106796117,255.5145631067961,1504.6019417475727,5
2024-06-15 12:21:27,0.235793978,0.5852088928,-0.1123992056,-1.78368032,-8.374917984,-4.398148537,-384.12,515.63,246.28,-8969.75,564.63,2195.75,5
2024-06-15 12:21:27,0.05497787148,-0.008552113548,-0.7464773059,-3.098097086,-5.765237808,-3.330334663,54.93269230769232,-528.625,-473.46153846153845,-8828.14423076923,412.1634615384616,1593.3076923076924,5
2024-06-15 12:21:27,1.159422278,-0.0293215327,-0.85765481,-2.97359848,-11.92073059,-2.030282974,4209.766990291262,-2088.78640776699,-1324.0194174757282,-8358.786407766991,-336.81553398058253,1327.3980582524273,5
2024-06-15 12:21:27,1.159422278,-0.0293215327,-0.85765481,-2.97359848,-11.92073059,-2.030282974,6494.21359223301,-3082.9223300970875,-1614.4077669902913,-8340.902912621359,377.3203883495146,1780.0194174757282,5
2024-06-15 12:21:27,2.828306198,-0.1942551434,0.1392772794,-1.52510643,-10.09395409,4.237737179,4123.082568807339,-1062.788990825688,-742.9174311926605,-8042.385321100917,955.8165137614678,2174.412844036697,5
2024-06-15 12:21:28,2.828306198,-0.1942551434,0.1392772794,-1.52510643,-10.09395409,4.237737179,2613.285714285714,1038.571428571429,-34.64285714285714,-7954.5,257.1428571428572,2189.0714285714284,5
2024-06-15 12:21:28,-5.988923073,1.020144939,2.015855312,-3.23456645,-13.31655025,-2.657563925,2959.0576923076924,134.44230769230768,-609.1153846153846,-8396.51923076923,614.9423076923077,1960.0192307692307,5
2024-06-15 12:21:28,1.381777167,1.82770884,0.7244861722,-0.9026140571,-6.538564682,-8.092401505,2623.190476190476,-290.7047619047619,-1978.152380952381,-8100.009523809524,651.1333333333333,2022.1809523809525,5
2024-06-15 12:21:28,1.381777167,1.82770884,0.7244861722,-0.9026140571,-6.538564682,-8.092401505,2516.9348837209304,80.89302325581396,-2562.427906976744,-8253.316279069768,154.6186046511628,2232.311627906977,5
2024-06-15 12:21:28,1.098335743,-1.319468975,-1.226617455,-2.616862535,-4.711789131,-5.386953831,2399.725581395349,188.33488372093024,-2032.660465116279,-8322.618604651163,368.10697674418606,2293.241860465116,5
2024-06-15 12:21:28,0.7049384713,-1.649336219,-0.8552113175,-2.516305923,-12.08592987,0.6799532771,2282.516279069768,295.77674418604647,-1502.893023255814,-8391.920930232558,581.5953488372093,2354.172093023256,5
2024-06-15 12:21:28,0.7049384713,-1.649336219,-0.8552113175,-2.516305923,-12.08592987,0.6799532771,2422.0,888.3125,600.3541666666666,-7866.708333333333,395.5416666666667,1945.2291666666667,5
2024-06-15 12:21:28,1.737300754,-0.668286562,0.1747074574,-0.01197100803,-9.497797966,4.23294878,2568.5,-583.02,-337.1,-7617.79,-58.19,1961.18,5
2024-06-15 12:21:28,1.737300754,-0.668286562,0.1747074574,-0.01197100803,-9.497797966,4.23294878,2670.951923076923,774.0288461538462,655.6826923076924,-7969.615384615385,137.48076923076923,1911.2884615384608,5
2024-06-15 12:21:28,0.4483750761,-0.5803219676,-0.09285151958,-1.759738207,-8.939949036,0.4692635238,1298.6504854368932,1582.6990291262136,318.747572815534,-8747.009708737864,510.80582524271847,1331.0291262135922,5
2024-06-15 12:21:29,-0.4911356568,-0.2822197378,-0.1759291887,-1.295263171,-9.085995674,2.353500366,37.400000000000006,340.2,-161.0,-8867.8,283.0,962.0,5
2024-06-15 12:21:29,-0.4911356568,-0.2822197378,-0.1759291887,-1.295263171,-9.085995674,2.353500366,210.15384615384616,-982.4519230769232,-638.5192307692307,-8675.14423076923,199.29807692307693,1225.2115384615386,5
2024-06-15 12:21:29,-0.7134906054,0.9346238375,0.3604104817,-1.323993564,-11.60469532,3.026270866,695.6886792452831,-1052.745283018868,-1902.301886792453,-8130.537735849057,-95.89622641509432,1312.7075471698113,5
2024-06-15 12:21:29,-2.547307968,1.457524419,0.9358455539,-0.8020575643,-7.943961143,-2.511517525,772.1649484536083,-207.5051546391753,-2066.680412371134,-8192.19587628866,310.25773195876286,1494.494845360825,5
2024-06-15 12:21:29,-2.547307968,1.457524419,0.9358455539,-0.8020575643,-7.943961143,-2.511517525,-2.3904761904761926,334.4952380952381,-440.73333333333335,-8305.457142857143,-732.6095238095238,1849.6571428571428,5
2024-06-15 12:21:29,-3.532022953,1.312138557,0.2736676335,-1.259350061,-7.070077419,-5.990292549,101.34951456310682,47.63106796116506,-671.3883495145631,-8370.47572815534,-608.3592233009708,1923.126213592233,5
2024-06-15 12:21:29,-3.532022953,1.312138557,0.2736676335,-1.259350061,-7.070077419,-5.990292549,-952.2233009708738,-871.5533980582525,-1070.6699029126214,-8345.47572815534,-910.7961165048544,1533.9805825242718,5
2024-06-15 12:21:29,1.210734963,0.1026253626,-0.8539896011,-2.276885748,-5.791574001,-8.894459724,-1604.242718446602,-490.94174757281553,-170.8349514563107,-8338.990291262136,-770.504854368932,2095.388349514564,5
2024-06-15 12:21:29,2.879618883,-1.02991879,-0.299323976,-2.643198729,-8.911218643,-5.532999992,-707.311320754717,327.4245283018868,1133.2924528301887,-7998.905660377359,-662.1603773584906,2305.556603773585,5
2024-06-15 12:21:29,2.879618883,-1.02991879,-0.299323976,-2.643198729,-8.911218643,-5.532999992,-206.7029702970297,480.4554455445544,1302.4356435643565,-8391.564356435643,-484.9306930693069,1770.673267326733,5
2024-06-15 12:21:30,3.312111378,-1.3377949,0.1185078546,-1.213860273,-9.299078941,-1.968033791,236.46534653465343,694.8514851485148,1293.5445544554457,-8119.039603960396,-86.0,1744.5841584158416,5
2024-06-15 12:21:30,1.433089852,-0.669508338,0.3433062732,-1.094150186,-8.398859978,3.007117271,553.0857142857143,691.7428571428571,778.3714285714286,-8239.942857142858,54.77142857142857,1489.6857142857143,5
2024-06-15 12:21:30,1.433089852,-0.669508338,0.3433062732,-1.094150186,-8.398859978,3.007117271,618.8779069767442,216.2383720930233,417.90697674418607,-8348.17441860465,479.0232558139535,1598.4418604651162,5
2024-06-15 12:21:30,2.021964073,-0.1185078546,0.0293215327,-1.568202138,-8.267178535,4.024652958,618.296511627907,-6.4360465116279215,436.5116279069768,-8463.290697674418,474.3720930232558,1610.0697674418604,5
2024-06-15 12:21:30,2.021964073,-0.1185078546,0.0293215327,-1.568202138,-8.267178535,4.024652958,-721.0,-272.25742574257424,-734.0297029702971,-8472.425742574258,270.0792079207921,1642.5148514851485,5
2024-06-15 12:21:30,0.8943067193,-0.6291912198,0.2748893499,-2.284068346,-7.671022415,5.523423195,-1531.3921568627452,-299.078431372549,-585.1176470588235,-8095.078431372549,340.921568627451,1434.1764705882354,5
2024-06-15 12:21:30,-1.406211853,-0.3946189582,0.4422664344,-2.573766708,-8.882488251,5.535394192,-1027.2407407407406,-112.62962962962963,420.2962962962963,-8493.444444444445,-94.55555555555556,1466.4814814814815,5
2024-06-15 12:21:30,-1.406211853,-0.3946189582,0.4422664344,-2.573766708,-8.882488251,5.535394192,160.72222222222217,-494.1111111111111,-614.8888888888889,-8715.666666666666,277.6666666666667,1640.5555555555557,5
2024-06-15 12:21:30,-0.8087855577,-0.9529497623,0.5632177591,-1.716642618,-8.808267593,4.783615112,379.4845360824742,-6.206185567010323,-142.90721649484536,-8174.20618556701,-17.22680412371136,1455.298969072165,5
2024-06-15 12:21:30,-0.1209513173,-0.916297853,0.3787364662,-1.41257906,-8.793902397,5.006275654,124.5754716981132,-106.6132075471698,-434.4433962264151,-8150.037735849057,-325.1698113207547,1818.1792452830189,5
2024-06-15 12:21:31,-0.1209513173,-0.916297853,0.3787364662,-1.41257906,-8.793902397,5.006275654,-139.45098039215685,-0.1176470588235361,36.49019607843138,-8254.35294117647,-353.0,1818.745098039216,5
2024-06-15 12:21:31,-0.09407325089,-0.6621779203,0.6414085031,-1.252167463,-8.59278965,4.879383087,-244.3823529411765,213.3529411764706,276.1764705882353,-8431.0,-515.6470588235294,1748.264705882353,5
2024-06-15 12:21:31,-0.09407325089,-0.6621779203,0.6414085031,-1.252167463,-8.59278965,4.879383087,-79.02884615384616,-242.19230769230768,-877.4423076923077,-8454.125,-384.8557692307692,1704.0961538461538,5
2024-06-15 12:21:31,-0.03298672289,-0.5363397002,0.7012733221,-1.18752408,-8.236053467,4.635174274,207.4554455445545,188.55445544554453,304.37623762376234,-8227.881188118812,31.32673267326733,1639.980198019802,5
2024-06-15 12:21:31,-0.1734857261,0.09773843735,0.342084527,-1.017535686,-8.226476669,4.826710701,81.60952380952381,-8.371428571428574,365.9619047619048,-8515.295238095237,-595.495238095238,1753.9333333333334,5
2024-06-15 12:21:31,-0.1734857261,0.09773843735,0.342084527,-1.017535686,-8.226476669,4.826710701,-384.2745098039216,-360.3137254901961,-739.4509803921569,-8454.823529411764,-161.27450980392155,1685.0588235294117,5
2024-06-15 12:21:31,-0.283441484,-0.2028072625,-0.1685988009,-2.11647439,-8.750806808,4.635174274,-537.9223300970874,702.6796116504854,1582.3106796116504,-8218.349514563106,-172.7766990291262,1456.4757281553398,5
2024-06-15 12:21:31,-0.1551597714,-0.03176499158,-0.06352998316,-2.066195965,-8.760383606,4.826710701,-184.97115384615384,1306.4807692307693,2323.788461538461,-8084.336538461538,-25.057692307692307,1539.9807692307693,5
2024-06-15 12:21:31,-0.1551597714,-0.03176499158,-0.06352998316,-2.066195965,-8.760383606,4.826710701,-36.150000000000006,541.49,677.7,-8347.09,184.85,1321.05,5
2024-06-15 12:21:31,0.0354301855,0.3225368559,-0.1747074574,-2.04464817,-8.271966934,5.171475887,-720.6153846153846,647.6923076923077,-235.15384615384616,-8506.461538461539,676.5384615384615,1029.6923076923076,5
2024-06-15 12:21:32,0.0354301855,0.3225368559,-0.1747074574,-2.04464817,-8.271966934,5.171475887,-45.33333333333334,-247.3333333333333,-1374.0,-8725.0,375.6666666666667,721.0,5
2024-06-15 12:21:32,0.2394591719,-0.007330383174,-0.09285151958,-2.564189911,-8.628703117,4.352658749,1014.6543209876544,-1098.8271604938273,-1675.6296296296296,-8510.648148148148,-123.88271604938272,1227.030864197531,5
2024-06-15 12:21:32,-0.1954768747,-0.07574728876,0.1685988009,-2.19308877,-8.595184326,4.185064793,1339.3456790123455,-1711.1728395061727,-1616.3703703703704,-8264.351851851852,-175.11728395061726,1481.969135802469,5
2024-06-15 12:21:32,-0.1954768747,-0.07574728876,0.1685988009,-2.19308877,-8.595184326,4.185064793,2132.44966442953,-1192.3959731543623,-769.2416107382551,-8083.644295302013,-618.1543624161073,1612.2013422818793,5
2024-06-15 12:21:32,-0.2028072625,-0.2883284092,0.2260201424,-1.877054095,-8.262390137,4.841075897,235.07865168539325,1077.4606741573034,686.7078651685393,-8227.977528089888,-245.5730337078652,1800.2247191011236,5
2024-06-15 12:21:32,0.2858849466,-0.1185078546,-0.1844813079,-1.795651317,-8.858546257,5.193023682,-488.25,1276.75,982.125,-8599.75,278.875,1262.625,5
2024-06-15 12:21:32,0.2858849466,-0.1185078546,-0.1844813079,-1.795651317,-8.858546257,5.193023682,-1827.1454545454544,954.3454545454546,715.4363636363637,-8772.8,707.2,1278.0,5
2024-06-15 12:21:32,0.2675589919,0.2211332172,-0.1172861308,-1.881842494,-8.82263279,5.171475887,-1628.9636363636364,-203.8363636363636,-729.1090909090908,-8432.8,547.2,1178.0,5
2024-06-15 12:21:32,0.2675589919,0.2211332172,-0.1172861308,-1.881842494,-8.82263279,5.171475887,-881.3030303030303,-1974.080808080808,-2204.4040404040406,-8377.90909090909,-102.87878787878788,1479.5151515151515,5
2024-06-15 12:21:32,-3.725056171,0.09651670605,0.4776966274,-3.459621429,-9.732429504,0.4501099288,-256.7647058823529,-1840.4117647058824,-474.2941176470588,-8205.764705882353,17.352941176470587,2044.117647058824,5
2024-06-15 12:21:33,3.865555286,0.03420845419,-0.04276056588,-1.221042871,-9.160215378,0.6775590777,339.4761904761905,-106.93333333333328,948.6095238095238,-7983.838095238095,-225.28571428571428,2236.9904761904763,5
2024-06-15 12:21:33,3.865555286,0.03420845419,-0.04276056588,-1.221042871,-9.160215378,0.6775590777,-36.58490566037736,56.18867924528302,-844.0943396226414,-8143.150943396226,-740.4150943396227,2185.075471698113,5
2024-06-15 12:21:33,0.7684684992,0.4679227769,-0.6646214128,-1.592144132,-7.311892033,5.061342239,-318.6699029126213,490.71844660194176,-141.86407766990294,-8500.019417475729,-205.23300970873785,1807.0970873786407,5
2024-06-15 12:21:33,0.6829473376,0.8723155856,-0.4569272101,-3.165134668,-8.726864815,4.951209068,409.4950495049505,1282.7326732673268,2909.2871287128714,-8385.485148514852,-321.45544554455444,1720.049504950495,5
2024-06-15 12:21:33,0.6829473376,0.8723155856,-0.4569272101,-3.165134668,-8.726864815,4.951209068,1527.1782178217825,537.019801980198,2672.5049504950493,-8263.039603960397,-23.33663366336633,1848.217821782178,5
2024-06-15 12:21:33,0.03298672289,0.3848451078,-0.2113593817,-2.940079689,-7.55131197,3.974374771,1331.5339805825242,792.4757281553398,1112.4466019417475,-8279.59223300971,958.6213592233008,1326.116504854369,5
2024-06-15 12:21:33,0.03298672289,0.3848451078,-0.2113593817,-2.940079689,-7.55131197,3.974374771,1029.4174757281553,387.41747572815535,1088.6601941747572,-8142.640776699029,1335.2815533980583,1213.4466019417475,5
2024-06-15 12:21:33,-0.5546656251,-0.01588249579,-0.2235766798,-2.41335535,-8.712499619,4.304774761,1653.0857142857144,108.94285714285716,278.0095238095238,-8198.695238095239,1234.7809523809524,1188.4952380952382,5
2024-06-15 12:21:33,-0.0109955743,-0.5876523852,-0.05009094998,-1.944091797,-8.729259491,4.419696331,2496.25,-668.9444444444445,-1427.0,-8318.694444444445,1392.75,695.6111111111111,5
2024-06-15 12:21:33,-0.0109955743,-0.5876523852,-0.05009094998,-1.944091797,-8.729259491,4.419696331,2982.9875,-1120.0,-1759.425,-8446.9375,857.6,852.575,5
2024-06-15 12:21:34,0.03298672289,-0.7110471725,0.1637118906,-2.238578558,-9.99100399,4.067748547,3194.8625,-1220.0,-2505.675,-8406.3125,687.6,1056.325,5
2024-06-15 12:21:34,0.1172861308,-0.7232644558,0.616973877,-1.235408068,-8.262390137,3.572149038,2195.692307692308,-1139.076923076923,-255.3846153846154,-8380.846153846154,575.6923076923077,1563.7307692307693,5
2024-06-15 12:21:34,0.1172861308,-0.7232644558,0.616973877,-1.235408068,-8.262390137,3.572149038,554.6285714285714,-1358.2666666666669,-228.86666666666667,-8224.161904761904,629.047619047619,1578.2380952380952,5
2024-06-15 12:21:34,0.3237585723,-0.4764748812,0.5558874011,-1.091755986,-9.332598686,4.201824188,-1785.9223300970873,-1391.6796116504854,-1131.8543689320388,-7865.728155339806,195.9417475728156,2258.5825242718447,5
2024-06-15 12:21:34,0.3237585723,-0.4764748812,0.5558874011,-1.091755986,-9.332598686,4.201824188,-1100.2264150943397,796.9622641509434,59.88679245283018,-7606.849056603773,57.22641509433962,2587.169811320755,5
2024-06-15 12:21:34,-0.1295034289,0.1270599663,0.1233947799,-1.218648672,-8.712499619,4.426878929,1076.8,4362.0,2574.45,-7883.8,218.75,1564.8,5
2024-06-15 12:21:34,0.07941248268,-0.1123992056,-0.0293215327,-1.726219416,-9.442731857,4.371812344,2407.1553398058254,2475.1941747572814,1248.5436893203882,-8406.252427184467,1201.4271844660195,574.2135922330096,5
2024-06-15 12:21:34,0.07941248268,-0.1123992056,-0.0293215327,-1.726219416,-9.442731857,4.371812344,2483.5333333333333,1754.3333333333333,700.4666666666667,-8413.666666666666,1265.3333333333333,175.13333333333333,5
2024-06-15 12:21:34,-0.25167647,0.1661553532,-0.2700024247,-1.97042799,-8.303091049,3.471592426,4083.980392156863,-2473.794117647059,-1596.4313725490197,-8704.35294117647,1054.2450980392157,825.6764705882352,5
2024-06-15 12:21:34,-0.283441484,0.1136209369,-0.2223549485,-1.388636947,-10.68053341,3.153163671,5082.019607843137,-2753.205882352941,-1839.5686274509803,-8839.64705882353,878.7549019607843,693.3235294117646,5
2024-06-15 12:21:35,-0.283441484,0.1136209369,-0.2223549485,-1.388636947,-10.68053341,3.153163671,11675.766990291262,-5389.582524271845,-2409.368932038835,-8631.40776699029,-280.29126213592235,684.9223300970873,5
2024-06-15 12:21:35,-0.9431759119,0.06841690838,0.05375614017,-1.467645645,-10.6350441,2.221819162,15708.1376146789,-4296.559633027523,-3013.816513761468,-7843.357798165138,451.5321100917431,900.8532110091744,5
2024-06-15 12:21:35,-0.9431759119,0.06841690838,0.05375614017,-1.467645645,-10.6350441,2.221819162,16355.865979381444,-2069.9896907216494,-3398.185567010309,-8142.567010309278,910.1340206185566,1450.0618556701031,5
2024-06-15 12:21:35,0.1172861308,-0.1038470939,-0.1343903542,-1.055842996,-9.756371498,2.908955097,15136.601941747573,-814.2621359223301,-3665.776699029126,-8174.970873786407,1637.3106796116506,1495.2912621359224,5
2024-06-15 12:21:35,-0.05375614017,0.5986479521,-0.228463605,-0.8619126081,-9.121908188,4.003105164,10314.16037735849,-373.2264150943397,-2323.396226415094,-8358.509433962265,1483.1132075471698,2184.566037735849,5
2024-06-15 12:21:35,-0.05375614017,0.5986479521,-0.228463605,-0.8619126081,-9.121908188,4.003105164,7743.68,59.28,-1893.76,-8152.52,981.16,1949.92,5
2024-06-15 12:21:35,-0.4263839424,0.6365215778,-0.432492584,-1.058237195,-9.773131371,4.431667328,6341.077669902913,-31.15533980582524,-1162.9126213592233,-8304.786407766991,680.9514563106796,1588.5728155339807,5
2024-06-15 12:21:35,0.04764748737,1.409876943,0.3445279896,-1.630451322,-10.64222622,4.302380562,6021.950980392156,-955.2549019607844,-2349.529411764706,-8290.06862745098,159.94117647058823,1691.235294117647,5
2024-06-15 12:21:35,0.04764748737,1.409876943,0.3445279896,-1.630451322,-10.64222622,4.302380562,6058.0,-1033.6666666666667,-2801.6666666666665,-8143.0,-67.0,1882.3333333333333,5
2024-06-15 12:21:35,-3.237585783,2.105041742,1.435533285,-2.870647907,-7.884106159,1.874659896,6059.754385964912,-1115.5380116959063,-2955.46783625731,-8123.701754385965,-105.59649122807018,1870.6374269005848,5
2024-06-15 12:21:36,-3.237585783,2.105041742,1.435533285,-2.870647907,-7.884106159,1.874659896,5147.57,383.82,-1540.77,-7908.41,-528.0,1751.22,5
2024-06-15 12:21:36,-2.697580814,2.300518513,0.7220427394,-3.497928619,-3.921702385,-4.644751072,4838.21359223301,1061.7961165048544,-911.4077669902912,-8348.543689320388,-463.6796116504854,2121.495145631068,5
2024-06-15 12:21:36,-0.4141666293,1.755626678,0.3628539443,-2.992752075,-4.939238071,-9.670180321,4352.069306930693,1077.2970297029703,459.15841584158414,-8125.712871287129,367.34653465346537,2016.524752475248,5
2024-06-15 12:21:36,-0.4141666293,1.755626678,0.3628539443,-2.992752075,-4.939238071,-9.670180321,3074.242718446602,696.3689320388349,414.5825242718447,-8458.339805825242,1089.388349514563,1958.8640776699028,5
2024-06-15 12:21:36,2.682920218,0.109955743,-0.2296853364,-1.790862918,-8.020575523,-7.122750282,1992.80198019802,107.32673267326732,-808.7920792079208,-8463.584158415842,362.2871287128713,2003.5841584158416,5
2024-06-15 12:21:36,0.967610538,-0.106290549,0.2577851415,-2.092532396,-8.748413086,-3.957615376,3956.4077669902913,84.46601941747574,-456.6504854368932,-8120.21359223301,-81.25242718446603,1656.893203883495,5
2024-06-15 12:21:36,0.967610538,-0.106290549,0.2577851415,-2.092532396,-8.748413086,-3.957615376,4641.038095238096,193.53333333333333,549.8952380952381,-8454.704761904763,-137.82857142857142,1729.6190476190477,5
2024-06-15 12:21:36,-1.711644411,-0.5265658498,0.5400048494,-3.165134668,-6.828263283,-4.201824188,4873.0,-256.875,794.2980769230769,-8221.538461538461,33.75961538461539,1547.7403846153843,5
2024-06-15 12:21:36,-1.711644411,-0.5265658498,0.5400048494,-3.165134668,-6.828263283,-4.201824188,3566.313725490196,-928.9019607843136,1326.2941176470588,-8232.078431372549,983.7352941176472,2073.0392156862745,5
2024-06-15 12:21:36,-1.591914773,0.141720742,-0.4691445231,-1.996764183,-6.809109688,-5.267243862,3071.722222222222,-736.9074074074074,-335.0,-8208.907407407407,1494.5,1938.2777777777776,5
2024-06-15 12:21:37,-0.684169054,0.5546656251,-0.393397212,-0.873883605,-5.015852451,-8.283937454,2657.833333333333,-482.27777777777777,-385.0,-8254.277777777777,1519.5,2152.1666666666665,5
2024-06-15 12:21:37,-0.684169054,0.5546656251,-0.393397212,-0.873883605,-5.015852451,-8.283937454,454.9090909090909,-52.636363636363626,-463.45454545454544,-8092.272727272727,1547.6363636363635,1804.5454545454545,5
2024-06-15 12:21:37,-0.5632177591,0.2333505303,-0.4764748812,-0.7422025204,-5.128379822,-8.980650902,-180.4257425742574,702.3465346534654,497.009900990099,-8293.475247524753,1296.19801980198,1743.782178217822,5
2024-06-15 12:21:37,0.3579670191,-0.0415388383,-0.1930334121,-0.8834604025,-5.667075634,-8.403648376,-133.57142857142858,1057.2285714285715,208.25714285714287,-8475.4,1520.0285714285717,1608.8285714285714,5
2024-06-15 12:21:37,0.3579670191,-0.0415388383,-0.1930334121,-0.8834604025,-5.667075634,-8.403648376,-551.7722772277227,-132.9207920792079,-1242.1782178217825,-8424.861386138615,1133.7326732673268,1592.7326732673268,5
2024-06-15 12:21:37,1.026253581,-0.4300491214,0.3017674387,-1.465251446,-10.01255131,-8.0229702,-202.24528301886795,-1087.9433962264152,-2370.0943396226417,-8242.981132075472,876.2264150943396,1355.377358490566,5
2024-06-15 12:21:37,1.026253581,-0.4300491214,0.3017674387,-1.465251446,-10.01255131,-8.0229702,-89.0060975609756,-1174.2560975609756,-1565.3536585365853,-8389.164634146342,329.719512195122,1814.9634146341464,5
2024-06-15 12:21:37,3.048217535,-1.987755537,2.779436827,-3.473986626,-6.43321991,-4.419696331,-273.1219512195122,-759.9268292682927,-1275.5365853658536,-8195.536585365853,185.26829268292684,1813.560975609756,5
2024-06-15 12:21:37,1.944994926,0.5057964325,-1.205847979,-3.241749048,-0.4668693244,-1.321599364,-172.13725490196077,184.0,264.28431372549016,-8269.823529411764,310.1470588235294,2349.607843137255,5
2024-06-15 12:21:37,1.944994926,0.5057964325,-1.205847979,-3.241749048,-0.4668693244,-1.321599364,-540.987012987013,305.27272727272725,720.2857142857142,-7892.857142857143,-20.42857142857143,2331.6493506493507,5
2024-06-15 12:21:38,-1.398881435,1.375668526,-0.8075638413,-2.49236393,-10.60870743,-8.497021675,-361.3333333333333,478.0,439.3333333333333,-8016.666666666667,-49.0,2347.6666666666665,5
2024-06-15 12:21:38,-3.320663452,-0.916297853,-0.05497787148,-2.767697096,-10.01973438,-11.18331623,159.0,368.0,195.28571428571428,-8279.42857142857,385.7142857142857,2013.0,5
2024-06-15 12:21:38,-3.320663452,-0.916297853,-0.05497787148,-2.767697096,-10.01973438,-11.18331623,297.1747572815534,53.11650485436893,-187.990291262136,-8135.174757281553,511.97087378640776,1994.9320388349515,5
2024-06-15 12:21:38,2.197893143,-2.11603713,0.03176499158,-3.699041605,-4.838681698,-2.679111719,515.4666666666667,-280.2190476190476,-587.0190476190476,-8461.295238095237,563.2380952380952,1776.704761904762,5
2024-06-15 12:21:38,2.197893143,-2.11603713,0.03176499158,-3.699041605,-4.838681698,-2.679111719,431.09183673469386,-581.0612244897959,-499.4183673469388,-8133.010204081633,458.9489795918368,2129.877551020408,5
2024-06-15 12:21:38,1.55281949,0.5351179838,-2.866179705,-1.429338455,-4.841075897,-2.97599268,96.75,-262.25,-465.75,-8076.75,251.5,1992.0,5
2024-06-15 12:21:38,-0.6511823535,0.6047565937,-1.161865711,-0.09576806426,-12.20563984,-5.497087002,-29.77570093457944,-267.53271028037386,-409.31775700934577,-8070.906542056075,317.7383177570093,2024.710280373832,5
2024-06-15 12:21:38,-0.6511823535,0.6047565937,-1.161865711,-0.09576806426,-12.20563984,-5.497087002,-169.62376237623764,529.4653465346535,140.4950495049505,-8120.465346534654,243.7029702970297,1947.752475247525,5
2024-06-15 12:21:38,-1.379333735,0.04764748737,0.6646214128,0.03830722719,-9.516951561,-4.197035789,-535.9029126213592,506.5825242718447,346.9514563106796,-8182.466019417476,212.495145631068,2113.893203883495,5
2024-06-15 12:21:38,3.455053806,0.8686503768,-0.6438519955,1.754949808,-7.220912457,-3.732560396,-497.6238532110092,233.70642201834863,156.6697247706422,-8459.908256880733,512.6605504587156,1787.165137614679,5
2024-06-15 12:21:39,0.1050688252,0.06719517708,-0.05009094998,3.007117271,-12.19845772,-1.319205165,-772.0869565217391,-128.40217391304347,-215.70652173913044,-8178.663043478261,240.5,2109.543478260869,5
2024-06-15 12:21:39,0.1050688252,0.06719517708,-0.05009094998,3.007117271,-12.19845772,-1.319205165,-1287.9223300970873,-607.4660194174758,-654.2621359223301,-8138.796116504855,285.3398058252427,2007.7378640776697,5
2024-06-15 12:21:39,-3.00667882,0.444709897,1.145983219,-0.09337386489,-9.267954826,-2.913743496,-1147.0,-543.625,-858.25,-7882.75,-305.125,2263.0,5
2024-06-15 12:21:39,-1.121548533,1.003040791,0.4239404798,0.0023942017,-6.418854713,-5.798756599,-480.8600823045268,-45.699588477366255,-229.89300411522635,-8010.85596707819,15.016460905349788,2348.5061728395062,5
2024-06-15 12:21:39,-1.121548533,1.003040791,0.4239404798,0.0023942017,-6.418854713,-5.798756599,-371.39506172839504,-93.0246913580247,-134.41975308641975,-8174.641975308642,-77.98765432098764,2338.6296296296296,5
2024-06-15 12:21:39,-1.065348983,0.7892379165,0.2101376504,1.335964561,-6.679822922,-8.169015884,-226.7936507936508,-72.66666666666669,274.8412698412698,-8586.79365079365,570.031746031746,1758.6666666666667,5
2024-06-15 12:21:39,-0.4923573732,0.1441642046,0.5375614166,0.7565677166,-7.053318024,-7.809885979,-1367.1941176470589,863.9882352941177,1213.3117647058823,-8247.894117647058,-31.62941176470588,2375.4823529411765,5
2024-06-15 12:21:39,-0.4923573732,0.1441642046,0.5375614166,0.7565677166,-7.053318024,-7.809885979,-1386.5,1080.0263157894738,1258.921052631579,-8289.868421052632,5.763157894736835,2330.7631578947367,5
2024-06-15 12:21:39,0.09407325089,-0.07086037099,0.6047565937,0.4429273009,-6.655880928,-8.106766701,-6955.134615384615,2012.0576923076924,1758.6153846153843,-8307.096153846154,1908.9038461538464,899.8365384615385,5
2024-06-15 12:21:40,0.09407325089,-0.07086037099,0.6047565937,0.4429273009,-6.655880928,-8.106766701,-9631.28846153846,2131.153846153846,1093.0192307692307,-8381.548076923076,282.7019230769231,1047.8653846153843,5
2024-06-15 12:21:40,0.3543018401,0.0415388383,0.5057964325,0.4932055473,-5.793968201,-7.99663353,-4455.8557692307695,1208.8653846153843,-399.0769230769231,-8467.10576923077,393.4230769230769,958.1730769230768,5
2024-06-15 12:21:40,1.446528912,-0.4752531648,0.2040289938,0.14844051,-8.03494072,-7.864952564,-1456.6346153846152,575.8076923076923,-358.9230769230769,-8360.596153846154,427.0192307692308,905.5769230769232,5
2024-06-15 12:21:40,1.446528912,-0.4752531648,0.2040289938,0.14844051,-8.03494072,-7.864952564,-488.3626373626374,-26.549450549450555,-756.8241758241759,-8385.164835164835,750.6813186813187,553.3516483516484,5
2024-06-15 12:21:40,2.809980154,-0.5619960427,-0.06352998316,-1.11569798,-5.688623428,-4.618414879,185.8598130841121,-988.2897196261682,-554.5140186915888,-8165.757009345794,480.3738317757009,1345.1121495327102,5
2024-06-15 12:21:40,-0.4520402849,-1.904677868,-1.170417786,3.895366192,-9.425971985,-2.360682964,793.803738317757,-875.2056074766356,-758.7196261682243,-8192.859813084113,292.52336448598135,1278.7570093457944,5
2024-06-15 12:21:40,-0.4520402849,-1.904677868,-1.170417786,3.895366192,-9.425971985,-2.360682964,1520.106382978723,-882.9787234042553,-413.4255319148936,-8468.244680851063,516.9042553191489,1198.521276595745,5
2024-06-15 12:21:40,-3.835011959,-1.412320495,0.2467895597,-0.5698199868,-13.03164005,-4.592078686,3139.323529411765,-1014.5588235294116,-249.52941176470588,-8243.735294117647,171.02941176470588,1452.0588235294117,5
2024-06-15 12:21:40,-0.6731734872,-1.166752577,1.154535294,-2.106897593,-7.007828236,-4.481945515,3446.9320388349515,-808.9708737864078,-488.28155339805824,-8448.135922330097,-32.592233009708735,1768.4368932038835,5
2024-06-15 12:21:40,-0.6731734872,-1.166752577,1.154535294,-2.106897593,-7.007828236,-4.481945515,4312.401960784314,373.5392156862745,488.4607843137255,-8069.539215686274,206.31372549019608,1642.7156862745098,5
2024-06-15 12:21:41,0.4031710625,2.097711325,0.3824016452,0.02394201607,-2.987963676,-2.293645144,4165.5,90.26415094339625,-304.1698113207547,-8504.594339622641,662.8018867924528,1213.3867924528302,5
2024-06-15 12:21:41,0.4031710625,2.097711325,0.3824016452,0.02394201607,-2.987963676,-2.293645144,3015.5,-234.2641509433962,-809.8301886792453,-8524.405660377359,856.1981132075472,1259.6132075471698,5
2024-06-15 12:21:41,-2.051285505,2.261423111,-0.5302310586,4.177882195,-8.599972725,-7.685387611,2266.2916666666665,-376.3125,-907.7083333333334,-8528.125,412.3541666666667,1624.9375,5
2024-06-15 12:21:41,0.1576032341,-0.03298672289,-0.1209513173,2.020706177,-6.411672115,-9.52173996,2175.446601941748,-263.4660194174757,-1305.6407766990292,-8090.291262135922,-36.592233009708735,1430.233009708738,5
2024-06-15 12:21:41,0.1576032341,-0.03298672289,-0.1209513173,2.020706177,-6.411672115,-9.52173996,2901.764705882353,156.94117647058823,-835.2941176470588,-8276.941176470587,281.05882352941177,1516.235294117647,5
2024-06-15 12:21:41,0.07452555746,-0.4874704778,0.3530801237,2.470816135,-4.505887508,-8.334216118,2064.481927710844,-53.313253012048165,-489.0,-8585.56626506024,311.67469879518075,1647.4698795180725,5
2024-06-15 12:21:41,0.07452555746,-0.4874704778,0.3530801237,2.470816135,-4.505887508,-8.334216118,1784.4761904761904,-314.5238095238095,231.95238095238096,-8640.190476190477,545.3809523809524,1465.7142857142858,5
2024-06-15 12:21:41,0.4092797041,0.02199114859,0.1747074574,2.104503393,-4.228160381,-6.466738701,795.1818181818182,237.8181818181818,1973.4444444444443,-7936.737373737374,237.43434343434345,1593.9292929292928,5
2024-06-15 12:21:41,0.2235766798,-0.0109955743,-0.2932153046,1.889025092,-5.090072632,-10.28070164,1045.943925233645,127.22429906542057,1198.018691588785,-8032.383177570094,577.3925233644859,1371.92523364486,5
2024-06-15 12:21:41,0.2235766798,-0.0109955743,-0.2932153046,1.889025092,-5.090072632,-10.28070164,497.9009900990099,357.84158415841586,544.0891089108911,-8426.544554455446,995.2079207920792,976.019801980198,5
2024-06-15 12:21:42,0.2675589919,-0.7244861722,-0.4019493461,1.647210717,-4.553771496,-8.497021675,577.980198019802,-49.0,236.9702970297029,-8350.198019801981,1429.3960396039604,1162.4158415841584,5
2024-06-15 12:21:42,1.215621829,-0.6218608022,-1.508837104,2.126051188,-5.363011837,-8.178592682,408.843137254902,-45.274509803921575,193.54901960784315,-8125.607843137255,1607.1960784313726,1568.1960784313726,5
2024-06-15 12:21:42,1.215621829,-0.6218608022,-1.508837104,2.126051188,-5.363011837,-8.178592682,46.57971014492754,-18.246376811594203,-364.7246376811594,-8384.144927536232,1485.3188405797102,1505.1014492753625,5
2024-06-15 12:21:42,0.338419348,-1.10933125,-0.9969320893,2.681505919,-8.547300339,-6.892906666,55.98130841121496,-286.24299065420564,-317.05607476635515,-8167.392523364486,1260.3831775700935,1380.3831775700935,5
2024-06-15 12:21:42,0.338419348,-1.10933125,-0.9969320893,2.681505919,-8.547300339,-6.892906666,-762.2857142857143,-668.7857142857142,-1876.928571428572,-8169.285714285715,1397.071428571429,1364.0,5
2024-06-15 12:21:42,1.574810624,-1.561371565,-0.4105014503,1.460463047,-7.503427982,-6.789956093,-905.344262295082,-116.18032786885246,-2093.2950819672133,-8156.393442622951,1229.1967213114754,1561.9016393442623,5
2024-06-15 12:21:42,-0.483805269,-1.65910995,0.1197295859,1.122880578,-7.845798969,-7.32146883,-1047.967213114754,80.5409836065574,-1694.114754098361,-8140.819672131148,971.4098360655736,1603.295081967213,5
2024-06-15 12:21:42,-0.483805269,-1.65910995,0.1197295859,1.122880578,-7.845798969,-7.32146883,-1190.5901639344263,277.26229508196724,-1294.934426229508,-8125.245901639344,713.6229508196722,1644.688524590164,5
2024-06-15 12:21:42,0.003665191587,-1.197295904,0.4080579877,0.1197100878,-6.066906929,-5.023035049,-574.4134615384615,-347.0961538461538,-757.1538461538462,-8747.653846153846,286.2692307692308,1816.2692307692307,5
2024-06-15 12:21:42,-0.3750712574,0.3885102868,-0.3543018401,-0.5889736414,-7.364564419,-7.094019413,-866.8252427184466,-1530.0582524271845,-1073.621359223301,-8298.990291262136,-33.22330097087379,2020.3398058252428,5
2024-06-15 12:21:43,-0.3750712574,0.3885102868,-0.3543018401,-0.5889736414,-7.364564419,-7.094019413,-1062.5566037735848,-968.5849056603772,-740.1037735849056,-7877.11320754717,-237.4339622641509,2644.066037735849,5
2024-06-15 12:21:43,-0.5057964325,0.4080579877,-0.1038470939,-1.951274395,-5.798756599,-7.275979042,-564.88,-263.96,-221.24,-8207.64,-520.48,2686.04,5
2024-06-15 12:21:43,-0.5057964325,0.4080579877,-0.1038470939,-2.025494576,-6.323086739,-7.807491779,411.1844660194175,-57.00970873786408,-590.4660194174758,-8303.660194174758,-583.8446601941747,2672.0485436893205,5
2024-06-15 12:21:43,-0.2394591719,-0.1722639948,-0.4178318381,-2.025494576,-6.323086739,-7.807491779,229.63106796116503,-57.980582524271846,-137.06796116504853,-8269.679611650485,-568.3106796116505,2676.902912621359,5
2024-06-15 12:21:43,-0.1844813079,-0.5057964325,-0.1478293836,-2.19308877,-6.335057735,-7.350199223,-244.9056603773585,347.5377358490566,270.33962264150944,-8199.905660377359,-461.8207547169811,2627.7830188679245,5
2024-06-15 12:21:43,-0.1844813079,-0.5057964325,-0.1478293836,-2.19308877,-6.335057735,-7.350199223,-285.3103448275862,389.7241379310345,-880.2068965517242,-8067.0344827586205,-715.6206896551724,2239.758620689656,5
2024-06-15 12:21:43,-0.5778785348,-0.3200933933,-0.05497787148,-1.697489023,-7.101202011,-8.959102631,204.9743589743589,436.51282051282055,-885.2307692307693,-8352.564102564103,-824.6923076923077,2297.4615384615386,5
2024-06-15 12:21:43,0.0293215327,-0.8124507666,0.3799581826,-2.365471363,-6.521805286,-7.240066051,573.86,313.87,-695.37,-8198.16,-1190.16,2392.33,5
2024-06-15 12:21:43,0.0293215327,-0.8124507666,0.3799581826,-2.365471363,-6.521805286,-7.240066051,1726.3636363636365,467.7272727272728,-1056.8181818181818,-8282.90909090909,-1159.909090909091,2205.818181818182,5
2024-06-15 12:21:43,0.3591887653,-0.4202753007,0.5265658498,-3.775655985,-7.431602001,-8.391676903,867.7843137254902,-193.03921568627453,-47.62745098039216,-8192.56862745098,-1322.764705882353,2368.235294117647,5
2024-06-15 12:21:44,0.3591887653,-0.4202753007,0.5265658498,-3.775655985,-7.431602001,-8.391676903,562.8867924528302,-468.0377358490566,231.53773584905665,-8130.490566037736,-1073.5566037735848,2367.3396226415093,5
2024-06-15 12:21:44,0.3836233616,0.8503243923,-2.866179705,-0.6775590777,-4.000710964,-1.326387763,-49.67010309278351,-564.4742268041238,290.96907216494844,-8304.59793814433,-1130.1134020618556,2281.969072164949,5
2024-06-15 12:21:44,-0.3310889602,0.5803219676,-0.3249803185,-0.2849099934,-7.352593422,-8.980650902,504.9428571428571,-321.2285714285714,265.45714285714286,-8498.057142857142,-1371.942857142857,2568.6,5
2024-06-15 12:21:44,-0.3310889602,0.5803219676,-0.3249803185,-0.2849099934,-7.352593422,-8.980650902,736.3786407766991,52.10679611650485,467.7378640776699,-8155.495145631068,-996.3883495145632,2660.766990291262,5
2024-06-15 12:21:44,-0.7147123218,-0.04642575979,0.770911932,-0.2298433632,-8.018181801,-6.959944248,1654.6923076923076,609.6153846153846,455.5,-7632.384615384615,-674.4615384615385,2583.538461538461,5
2024-06-15 12:21:44,-0.4239404798,-0.1637118906,0.6646214128,-0.282515794,-6.883329868,-7.175422668,1807.0,840.0,373.38461538461536,-7911.615384615385,-322.1538461538462,2440.846153846154,5
2024-06-15 12:21:44,-0.4239404798,-0.1637118906,0.6646214128,-0.282515794,-6.883329868,-7.175422668,1201.0,119.66666666666666,825.6666666666666,-8438.666666666666,56.66666666666666,2257.6666666666665,5
2024-06-15 12:21:44,-0.2467895597,0.2455678284,0.2956587672,-0.7278373241,-4.886565685,-6.58405447,980.9716981132076,14.726415094339616,1342.2358490566037,-7988.830188679245,-102.2735849056604,2100.396226415094,5
2024-06-15 12:21:44,-0.2467895597,0.2455678284,0.2956587672,-0.7278373241,-4.886565685,-6.58405447,1819.069306930693,555.9702970297029,988.3267326732672,-8250.584158415842,524.4356435643565,1994.8613861386136,5
2024-06-15 12:21:44,-0.0171042271,0.02809980139,0.1429424733,-0.9241618514,-7.462726593,-8.736441612,1793.0,561.8947368421052,-163.89473684210526,-8452.315789473685,1044.0526315789473,1761.3157894736842,5
2024-06-15 12:21:45,0.08307767659,0.1478293836,-0.04886921868,-1.249773264,-5.576095581,-7.407660007,1884.6542056074768,199.2710280373832,-211.5607476635514,-8751.093457943925,1325.96261682243,1700.8785046728972,5
2024-06-15 12:21:45,0.08307767659,0.1478293836,-0.04886921868,-1.249773264,-5.576095581,-7.407660007,1551.6346153846157,-246.73076923076923,-602.3365384615385,-8715.721153846154,1039.9134615384614,2124.4326923076924,5
2024-06-15 12:21:45,-0.08674286306,-0.1734857261,-0.4068362415,-1.309628367,-5.13556242,-9.682151794,-867.2,-1512.1090909090908,-1118.1454545454546,-7986.981818181818,643.9454545454546,2894.927272727273,5
2024-06-15 12:21:45,-0.06108652428,-0.8552113175,-0.668286562,-1.836352706,-4.448426723,-6.756437302,-740.5333333333333,-1482.4121212121213,-1022.9939393939394,-8019.709090909091,675.4606060606061,2792.5030303030303,5
2024-06-15 12:21:45,-0.06108652428,-0.8552113175,-0.668286562,-1.836352706,-4.448426723,-6.756437302,-411.3809523809524,245.09523809523807,-609.3333333333333,-7663.619047619048,495.95238095238096,2745.285714285714,5
2024-06-15 12:21:45,-0.1319468915,1.007927656,-1.252273798,2.274491549,-4.374206543,-9.818621635,150.92079207920793,729.4752475247525,-1770.4653465346537,-8482.376237623763,328.1980198019802,2196.267326732673,5
2024-06-15 12:21:45,-0.1319468915,1.007927656,-1.252273798,2.274491549,-4.374206543,-9.818621635,2172.7047619047617,48.38095238095238,-1848.8666666666663,-8394.561904761904,-542.5428571428572,2299.742857142857,5
2024-06-15 12:21:45,-0.06108652428,-0.3738495409,-0.2895501256,0.9457096457,-4.8291049,-7.501033783,4743.701923076923,-674.8365384615385,-1348.5192307692307,-8027.875,-551.2596153846154,2279.730769230769,5
2024-06-15 12:21:45,0.0232128799,-0.009773843922,-0.07941248268,1.015141487,-5.521028996,-8.564059258,5087.757281553398,-296.6699029126213,-944.6893203883496,-7944.592233009709,-529.2427184466019,2579.407766990292,5
2024-06-15 12:21:45,0.0232128799,-0.009773843922,-0.07941248268,1.015141487,-5.521028996,-8.564059258,3193.1717171717173,1389.4545454545455,2658.5353535353534,-7905.919191919192,250.73737373737373,3043.4242424242425,5
2024-06-15 12:21:46,0.04031710699,0.09529497474,0.09407325089,0.6871358752,-4.730942726,-8.013393402,2822.5714285714284,936.1714285714286,1904.2571428571428,-8435.971428571429,1201.2571428571428,2294.171428571429,5
2024-06-15 12:21:46,-0.684169054,-0.2370157093,0.6084218025,1.273715258,-6.294356346,-11.20486355,1728.9900990099009,1834.445544554456,673.0693069306931,-8179.475247524752,1806.0,1287.4455445544554,5
2024-06-15 12:21:46,-0.684169054,-0.2370157093,0.6084218025,1.273715258,-6.294356346,-11.20486355,664.1165048543689,930.3203883495146,-814.4563106796116,-8505.466019417476,1508.3106796116506,1056.8252427184466,5
2024-06-15 12:21:46,1.362229466,-0.00244346098,0.08063421398,-1.007958889,-3.964797974,-4.819528103,1061.6176470588234,334.9117647058823,-346.8529411764706,-8335.970588235294,1363.8823529411766,1063.529411764706,5
2024-06-15 12:21:46,1.362229466,-0.00244346098,0.08063421398,0.6416460276,-6.888118267,-10.69011021,430.5140186915888,213.9626168224299,-496.5607476635514,-8501.084112149532,1943.6822429906545,898.214953271028,5
2024-06-15 12:21:46,-0.3408628106,0.1893682331,0.4068362415,0.6416460276,-6.888118267,-10.69011021,-2711.8058252427186,-173.62135922330097,-1106.9805825242718,-8308.57281553398,1536.3106796116506,974.9223300970874,5
2024-06-15 12:21:46,0.428827405,-0.6890559793,0.2541199327,-1.106121182,-6.998251438,-7.714118004,-3116.125,417.0,-1330.625,-8127.0,837.875,1149.25,5
2024-06-15 12:21:46,0.428827405,-0.6890559793,0.2541199327,-1.106121182,-6.998251438,-7.714118004,-3128.84,1048.96,-1382.32,-8267.08,397.24,1072.96,5
2024-06-15 12:21:46,0.6731734872,0.4886921942,-0.02565634064,-0.7852981687,-3.64158082,-5.568912983,-3906.288461538461,460.8557692307692,-482.1923076923077,-8400.307692307691,366.9519230769231,986.0576923076924,5
2024-06-15 12:21:46,-0.4068362415,0.1698205322,0.1808161139,0.1340752989,-7.022193432,-8.231265068,-5109.991803278688,819.844262295082,-113.92622950819673,-8185.901639344263,-107.7377049180328,793.6065573770492,5
2024-06-15 12:21:47,-0.4068362415,0.1698205322,0.1808161139,0.1340752989,-7.022193432,-8.231265068,-5040.729508196721,853.860655737705,-540.5655737704918,-8054.754098360656,-341.344262295082,919.016393442623,5
2024-06-15 12:21:47,0.145385921,0.5400048494,-0.17715092,-0.2609679997,-6.054935932,-7.704541206,-4971.4672131147545,887.8770491803278,-967.2049180327868,-7923.606557377049,-574.9508196721312,1044.426229508197,5
2024-06-15 12:21:47,0.145385921,0.5400048494,-0.17715092,1.56101954,-7.618350029,-10.55124664,-1531.5454545454545,-1636.9545454545455,-1296.4545454545455,-8477.5,-1039.9772727272727,745.2272727272727,5
2024-06-15 12:21:47,-0.8930850029,0.483805269,1.524719596,1.56101954,-7.618350029,-10.55124664,-1561.090909090909,-1494.909090909091,-991.909090909091,-8465.0,-1081.4545454545455,955.4545454545456,5
2024-06-15 12:21:47,2.219884396,-0.7696902156,1.414763927,-1.972822189,-5.590460777,-5.971138954,-1073.1057692307693,-509.4519230769231,-122.5576923076923,-8457.567307692309,-1298.701923076923,1213.5288461538462,5
2024-06-15 12:21:47,2.219884396,-0.7696902156,1.414763927,-1.972822189,-5.590460777,-5.971138954,-565.0970873786407,-557.0485436893204,-283.873786407767,-8104.961165048544,-959.7864077669902,1275.864077669903,5
2024-06-15 12:21:47,-1.412320495,0.8552113175,-0.2712241709,-0.9840168953,-4.252102375,-7.965508938,495.019801980198,-597.9306930693069,-74.53465346534654,-8273.435643564357,-951.7425742574258,1544.3960396039604,5
2024-06-15 12:21:47,-0.3909537494,-0.5766568184,1.125213742,-3.038241863,-9.878476143,-9.988609314,966.3,-165.04,539.74,-8496.66,-765.86,1213.9,5
2024-06-15 12:21:47,-0.3909537494,-0.5766568184,1.125213742,-3.038241863,-9.878476143,-9.988609314,1318.939393939394,-59.09090909090909,1001.6060606060606,-8736.545454545454,-438.8484848484849,1380.4545454545455,5
2024-06-15 12:21:47,3.518583775,0.4984660447,0.8332201838,-1.769315004,-4.393360138,-4.522646904,1234.6261682242991,16.80373831775701,1048.9532710280373,-8245.224299065421,-333.01869158878503,1163.5140186915887,5
2024-06-15 12:21:48,3.518583775,0.4984660447,0.8332201838,-1.769315004,-4.393360138,-4.522646904,920.98,-53.41999999999999,199.74,-8141.46,-344.18,1508.18,5
2024-06-15 12:21:48,-0.8283332586,0.5082398653,-0.1942551434,-2.614468336,-7.343016624,-6.177040577,-125.5377358490566,662.7830188679245,-570.2075471698113,-8083.698113207547,-476.1698113207547,1525.9905660377358,5
2024-06-15 12:21:48,-0.432492584,0.5791002512,0.1404990107,-2.97599268,-7.936778545,-6.016628742,-99.32038834951456,1301.631067961165,-1127.6601941747572,-8380.95145631068,-805.4174757281553,1072.2912621359224,5
2024-06-15 12:21:48,-0.432492584,0.5791002512,0.1404990107,-2.97599268,-7.936778545,-6.016628742,-417.688679245283,1125.2169811320755,-986.7830188679244,-8528.415094339623,-770.3396226415094,1034.7735849056603,5
2024-06-15 12:21:48,-0.2492330223,0.09773843735,-0.1282816976,-2.408566952,-7.790732384,-7.625532627,-1283.3465346534654,1217.8316831683169,-287.84158415841586,-8349.198019801981,-1245.049504950495,824.3960396039604,5
2024-06-15 12:21:48,0.3042109013,-1.677435994,1.775174379,-2.561795712,-7.611167431,-8.204929352,-253.7142857142857,72.85714285714286,1336.095238095238,-8179.142857142857,-1181.047619047619,458.6666666666667,5
2024-06-15 12:21:48,0.3042109013,-1.677435994,1.775174379,-2.561795712,-7.611167431,-8.204929352,1159.9223300970873,38.89320388349512,703.6116504854369,-8736.640776699029,-755.4271844660194,415.0970873786408,5
2024-06-15 12:21:48,0.8588765264,0.4630358517,-0.483805269,-2.932897091,-1.453280449,-2.212242365,847.7843137254902,-1268.686274509804,700.9803921568628,-8355.43137254902,-329.1764705882353,596.9215686274509,5
2024-06-15 12:21:48,0.8588765264,0.4630358517,-0.483805269,-2.932897091,-1.453280449,-2.212242365,1641.7428571428572,-1404.9142857142856,688.4571428571428,-7946.885714285714,126.11428571428571,1011.3428571428572,5
2024-06-15 12:21:48,-1.47707212,0.7061602473,-0.3298672438,-2.26970315,-10.20169353,-12.12902546,1738.298076923077,-1226.8653846153843,494.11538461538464,-8102.336538461538,278.0192307692308,1093.576923076923,5
2024-06-15 12:21:49,-0.06719517708,0.7696902156,-0.5082398653,-1.915361404,-5.035006046,-5.583278179,1518.88,-1080.2,1.84,-8363.44,450.2,1307.6,5
2024-06-15 12:21:49,-0.06719517708,0.7696902156,-0.5082398653,-1.915361404,-5.035006046,-5.583278179,2155.5,-1038.8529411764705,-971.6470588235294,-8159.205882352941,67.38235294117646,2155.323529411765,5
2024-06-15 12:21:49,-2.846632004,1.001819015,-0.5131267905,-0.1436520964,-7.726089001,-8.46589756,2151.9444444444443,-1080.0277777777778,-978.7222222222222,-8126.527777777777,43.80555555555556,2116.6666666666665,5
2024-06-15 12:21:49,0.2394591719,-1.307251573,0.9798278809,-1.589749932,-4.683058739,-9.878476143,1794.5148514851485,-722.9702970297029,-413.78217821782175,-7917.485148514851,-102.85148514851484,1945.7029702970297,5
2024-06-15 12:21:49,0.2394591719,-1.307251573,0.9798278809,-1.589749932,-4.683058739,-9.878476143,2306.8217821782177,378.009900990099,202.7029702970297,-8192.940594059406,79.68316831683168,2017.2970297029703,5
2024-06-15 12:21:49,0.6450737119,-0.6316346526,0.4019493461,-2.762908697,-3.191470861,-4.848258495,2251.6132075471696,-36.990566037735846,257.7830188679245,-8380.5,327.2830188679245,2135.7924528301887,5
2024-06-15 12:21:49,0.6450737119,-0.6316346526,0.4019493461,-2.762908697,-3.191470861,-4.848258495,1705.3867924528302,-570.0094339622641,517.2169811320755,-8330.5,236.7169811320755,1962.2075471698115,5
2024-06-15 12:21:49,-0.2296853364,0.06963863969,0.09651670605,-2.501940727,-5.442020416,-8.829815865,775.6336633663366,-850.90099009901,-175.00990099009903,-8246.564356435643,747.029702970297,2017.237623762376,5
2024-06-15 12:21:49,0.9114109278,0.3090978265,-0.07330382615,-2.815581083,-5.671864033,-7.309497833,750.4660194174758,-830.6310679611651,1447.8349514563106,-8081.57281553398,1109.864077669903,2244.3106796116504,5
2024-06-15 12:21:49,0.9114109278,0.3090978265,-0.07330382615,-2.815581083,-5.671864033,-7.309497833,984.745283018868,186.2641509433962,496.9150943396226,-7939.452830188679,1396.8867924528302,2575.5943396226417,5
2024-06-15 12:21:50,5.913175583,0.1160643995,-0.2003637999,-2.470816135,-10.48899746,-5.324704647,488.9803921568628,445.05882352941177,-472.72549019607845,-7925.980392156863,1377.0392156862745,2350.803921568628,5
2024-06-15 12:21:50,4.574159145,-0.7867944241,0.3481931984,-4.041412354,-6.016628742,3.778050184,1228.0380952380951,423.0857142857143,-269.4952380952381,-7879.542857142857,730.7619047619048,2351.2571428571428,5
