Timestamp,Gyro_x_x,Gyro_y_x,Gyro_z_x,Acc_x_x,Acc_y_x,Acc_z_x,Gyro_x_y,Gyro_y_y,Gyro_z_y,Acc_x_y,Acc_y_y,Acc_z_y,combined_action_num
2024-06-15 12:37:43,0.004886921961,0.2333505303,0.02443460934,-12.15296745,1.496376038,7.884106159,527.8461538461538,1.3846153846153868,542.7692307692307,-7749.7692307692305,2730.6153846153848,-1459.923076923077,3
2024-06-15 12:37:43,0.4544837475,0.2443460971,-0.2492330223,-5.961562157,-0.624886632,5.142745018,-65.85714285714283,85.42857142857143,-235.0,-7700.0,3137.8571428571427,-1574.2857142857142,3
2024-06-15 12:37:43,-0.06841690838,-0.4776966274,-0.1356120855,-4.527435303,-0.5961562395,4.048594952,-786.3258426966293,391.5955056179776,-371.1123595505618,-7769.966292134832,2471.5730337078653,-1455.6404494382025,3
2024-06-15 12:37:43,0.01343903504,-0.4398229718,0.09896016866,-12.77306652,2.923320293,7.297526836,-855.9318181818181,339.65909090909093,140.27272727272728,-7835.886363636364,2499.25,-1590.1136363636365,3
2024-06-15 12:37:43,0.3164281845,0.3494149148,0.334754169,-7.675810814,1.628057122,5.374982834,-245.6,97.30526315789471,489.9,-7573.3,2351.0421052631577,-1323.0526315789473,3
2024-06-15 12:37:43,0.3164281845,0.3494149148,0.334754169,-7.675810814,1.628057122,5.374982834,214.4,-1.6421052631579016,599.9,-7443.3,2699.463157894737,-1533.578947368421,3
2024-06-15 12:37:43,-0.3103195429,0.2089159191,0.07941248268,-4.635174274,1.343147159,3.708618402,-51.58441558441558,259.7012987012987,-230.05194805194805,-7453.974025974026,3124.0,-1866.896103896104,3
2024-06-15 12:37:43,-0.3103195429,0.2089159191,0.07941248268,-4.635174274,1.343147159,3.708618402,-177.42696629213484,320.4719101123595,-235.9438202247191,-7352.966292134832,2826.258426966292,-1887.6067415730336,3
2024-06-15 12:37:44,-0.1466076523,-0.1172861308,-0.1001819,-11.55681133,2.597708941,6.598419666,-189.51724137931035,-53.62068965517241,-584.1724137931035,-7782.931034482759,2473.206896551724,-1707.1379310344828,3
2024-06-15 12:37:44,0.1539380401,0.2382374406,-0.004886921961,-7.644686222,2.145204782,5.008669853,-345.7241379310345,-318.0,307.6896551724138,-7740.862068965517,2304.9655172413795,-1514.5172413793102,3
2024-06-15 12:37:44,0.1539380401,0.2382374406,-0.004886921961,-7.644686222,2.145204782,5.008669853,611.7865168539327,-272.5730337078652,585.8202247191011,-7701.977528089887,2695.561797752809,-1812.2696629213483,3
2024-06-15 12:37:44,-0.2260201424,-0.1759291887,-0.1050688252,-6.014234543,1.929726601,2.885013103,374.1588235294117,-195.63529411764705,179.44117647058823,-7590.188235294117,2841.335294117647,-1863.2470588235287,3
2024-06-15 12:37:44,-0.04642575979,-0.1869247705,-0.2663372457,-12.04044056,1.371877551,8.832210541,-851.5842696629213,2.6292134831460743,-834.9887640449438,-7701.123595505618,2840.067415730337,-1640.123595505618,3
2024-06-15 12:37:44,-0.04642575979,-0.1869247705,-0.2663372457,-12.04044056,1.371877551,8.832210541,-799.0,-194.8695652173913,-747.195652173913,-7579.45652173913,2428.4565217391305,-1577.4782608695652,3
2024-06-15 12:37:44,0.02809980139,0.432492584,0.1722639948,-6.636727333,0.5339069963,5.092466831,-1079.8333333333333,192.66666666666663,-62.5,-7978.0,2214.25,-1479.4166666666667,3
2024-06-15 12:37:44,0.02809980139,0.432492584,0.1722639948,-6.636727333,0.5339069963,5.092466831,-18.16483516483516,-49.472527472527474,1222.2637362637363,-7796.857142857143,2458.769230769231,-1415.3516483516482,3
2024-06-15 12:37:44,0.1001819,-0.07941248268,0.08674286306,-6.404489517,0.4548983276,4.127603531,1357.7954545454545,-220.04545454545453,538.340909090909,-7329.886363636364,3018.840909090909,-1471.8636363636365,3
2024-06-15 12:37:44,0.2809980214,-0.05742133409,-0.0720821023,-11.06599998,2.978386879,5.961562157,557.4285714285714,-313.02197802197804,-32.15384615384613,-7470.065934065934,3079.6153846153848,-1434.8131868131868,3
2024-06-15 12:37:45,0.2809980214,-0.05742133409,-0.0720821023,-11.06599998,2.978386879,5.961562157,-493.34482758620686,301.60919540229884,-236.51724137931035,-7520.35632183908,2829.2528735632186,-1478.9080459770114,3
2024-06-15 12:37:45,0.4056145251,0.1368338168,-0.1685988009,-6.670246124,0.6560112834,5.442020416,-773.5,262.0,-482.0,-7787.0,2640.5,-1847.0,3
2024-06-15 12:37:45,0.1368338168,-0.1820378453,-0.141720742,-6.081272125,-0.2657563984,4.369418144,347.0689655172414,15.586206896551722,491.5862068965517,-7749.448275862069,2514.2758620689656,-1467.5172413793102,3
2024-06-15 12:37:45,0.1368338168,-0.1820378453,-0.141720742,-6.081272125,-0.2657563984,4.369418144,809.3863636363636,-295.45454545454544,789.9545454545455,-7380.431818181818,2840.3863636363635,-1808.159090909091,3
2024-06-15 12:37:45,-0.2724458873,0.0,0.004886921961,-10.3309803,3.665522814,6.169857979,246.1123595505618,-343.8314606741573,-31.42696629213484,-7490.516853932584,3375.808988764045,-1452.9662921348315,3
2024-06-15 12:37:45,-0.2724458873,0.0,0.004886921961,-10.3309803,3.665522814,6.169857979,25.280898876404493,-84.25842696629213,-592.7977528089888,-7460.865168539326,3015.730337078652,-1462.0674157303372,3
2024-06-15 12:37:45,0.3115412891,-0.228463605,0.04886921868,-9.244012833,2.97599268,3.296815634,36.53488372093024,343.72093023255815,-558.1395348837209,-7325.395348837209,2793.093023255814,-1802.209302325581,3
2024-06-15 12:37:45,-0.7599163651,0.0109955743,0.1539380401,-4.5394063,-0.3950432837,4.438849926,-209.3736263736264,267.4725274725275,-504.1758241758242,-7594.32967032967,2569.5714285714284,-2117.087912087912,3
2024-06-15 12:37:45,-0.7599163651,0.0109955743,0.1539380401,-4.5394063,-0.3950432837,4.438849926,466.964705882353,-524.4,676.3764705882353,-7460.117647058823,2802.4117647058824,-1851.035294117647,3
2024-06-15 12:37:45,-0.2651155293,-0.1954768747,0.2064724565,-8.944737434,2.439691544,5.959167957,708.4819277108434,-592.156626506024,542.5843373493976,-7324.475903614458,3185.662650602409,-1848.1385542168675,3
2024-06-15 12:37:46,-0.1111774743,0.4569272101,0.2431243658,-8.930372238,3.349488258,5.485116005,-136.0,-24.0,-566.5,-7476.0,3034.25,-1840.75,3
2024-06-15 12:37:46,-0.1111774743,0.4569272101,0.2431243658,-8.930372238,3.349488258,5.485116005,-561.3483146067416,1.2584269662921344,-283.6292134831461,-7734.651685393258,2529.3370786516853,-1884.426966292135,3
2024-06-15 12:37:46,0.006108652335,0.1539380401,-0.2944370508,-4.996698856,-0.1005564705,5.130774021,-439.2758620689655,101.24137931034484,80.34482758620689,-7590.3448275862065,2534.793103448276,-1521.1379310344828,3
2024-06-15 12:37:46,0.006108652335,0.1539380401,-0.2944370508,-4.996698856,-0.1005564705,5.130774021,307.3370786516854,-146.01123595505618,290.4157303370786,-7740.056179775281,2895.044943820225,-1435.9101123595506,3
2024-06-15 12:37:46,-0.1087340117,-0.1673770845,0.01832595654,-6.663063526,1.316810966,4.742913723,182.28089887640448,-266.123595505618,-271.9887640449438,-7492.775280898876,3133.988764044944,-1440.5393258426966,3
2024-06-15 12:37:46,-0.4569272101,0.05986479297,-0.1014036313,-10.51533413,-1.429338455,7.292738438,-241.5909090909091,50.97727272727275,-233.3181818181818,-7605.068181818182,2761.5113636363635,-1567.9545454545455,3
2024-06-15 12:37:46,-0.4569272101,0.05986479297,-0.1014036313,-10.51533413,-1.429338455,7.292738438,-334.2413793103448,332.9310344827586,-283.55172413793105,-7637.448275862069,2489.758620689656,-1440.9655172413793,3
2024-06-15 12:37:46,0.4886921942,-0.0109955743,-0.2858849466,-6.936002254,1.022324085,5.15950489,226.70212765957447,4.904255319148945,-136.09574468085106,-7709.521276595745,2810.0,-1746.606382978723,3
2024-06-15 12:37:46,-0.008552113548,-0.3176499307,-0.2883284092,-4.8314991,0.2011129409,3.306392431,95.16853932584269,75.83146067415731,-224.56179775280896,-7730.550561797752,2749.370786516854,-1824.213483146068,3
2024-06-15 12:37:46,-0.008552113548,-0.3176499307,-0.2883284092,-4.8314991,0.2011129409,3.306392431,-327.3,67.71111111111111,-249.95555555555555,-7373.711111111111,2639.677777777778,-1770.2777777777778,3
2024-06-15 12:37:47,-0.3652974069,-0.04642575979,0.1930334121,-11.35569859,1.996764183,6.68700552,142.5,-258.5,370.0,-8033.0,2541.0,-1516.5,3
2024-06-15 12:37:47,-0.3652974069,-0.04642575979,0.1930334121,-11.35569859,1.996764183,6.68700552,1279.8022598870057,-1342.915254237288,436.090395480226,-7620.180790960452,3189.915254237288,-1365.6610169491526,3
2024-06-15 12:37:47,-1.026253581,0.5558874011,0.2956587672,-6.490680695,-1.429338455,2.363077164,1097.316384180791,-1236.135593220339,536.6553672316384,-7721.310734463277,3183.135593220339,-1338.542372881356,3
2024-06-15 12:37:47,-0.4923573732,0.1539380401,-0.1270599663,-7.326257229,-1.029506683,2.724601507,950.953488372093,-613.0,86.94186046511628,-7844.930232558139,2574.860465116279,-677.2906976744187,3
2024-06-15 12:37:47,-0.4923573732,0.1539380401,-0.1270599663,-7.326257229,-1.029506683,2.724601507,1762.0357142857142,-499.82142857142856,453.32142857142856,-8014.5,2859.178571428572,-1109.2857142857142,3
2024-06-15 12:37:47,-1.718974829,-0.5864306092,-1.00670588,-8.899248123,0.9983820915,4.814739704,2146.089887640449,-494.91011235955057,536.2471910112359,-7710.516853932584,2971.23595505618,-1196.741573033708,3
2024-06-15 12:37:47,0.616973877,-0.4508185387,-0.1795943826,-7.874529362,-1.948880196,6.871358871,2305.683168316832,-305.2772277227723,286.26732673267327,-7630.584158415842,2904.2871287128714,-1216.5643564356435,3
2024-06-15 12:37:47,0.616973877,-0.4508185387,-0.1795943826,-7.874529362,-1.948880196,6.871358871,2011.9482758620688,-279.91379310344826,91.43103448275863,-7606.3448275862065,2818.8189655172414,-1248.2327586206898,3
2024-06-15 12:37:47,-0.09162978828,0.1111774743,-0.1380555481,-7.55131197,-1.640028119,5.844246387,1799.7508532423208,90.28327645051196,-81.0716723549488,-7607.208191126279,2209.109215017065,-1724.4470989761091,3
2024-06-15 12:37:48,0.01221730467,-0.1820378453,0.08796459436,-7.196970463,-2.765302896,6.926425457,1678.9317406143346,78.33788395904438,67.73378839590444,-7727.344709897611,2344.2627986348125,-1715.2320819112629,3
2024-06-15 12:37:48,-0.09773843735,0.2528982162,-0.09040805697,-7.443572998,-1.89860189,5.877765179,1558.112627986348,66.39249146757679,216.5392491467577,-7847.481228668942,2479.41638225256,-1706.0170648464164,3
2024-06-15 12:37:48,-0.09773843735,0.2528982162,-0.09040805697,-7.443572998,-1.89860189,5.877765179,1626.0434782608695,-255.5652173913044,440.60869565217394,-7551.695652173913,2601.3478260869565,-1839.4782608695648,3
2024-06-15 12:37:48,0.2858849466,-0.4972442985,0.4031710625,-6.679822922,-0.7900865674,6.524199486,1230.5,-328.5,527.5,-7241.0,2510.0,-1722.0,3
2024-06-15 12:37:48,-0.2956587672,1.014036298,-0.5167919993,-7.931990147,-2.013523579,6.756437302,1157.3333333333333,94.0,-104.33333333333331,-7360.666666666667,2599.0,-2270.6666666666665,3
2024-06-15 12:37:48,-0.2956587672,1.014036298,-0.5167919993,-7.931990147,-2.013523579,6.756437302,297.95652173913044,185.91304347826087,-461.4565217391304,-7663.434782608696,2103.8478260869565,-2247.6521739130435,3
2024-06-15 12:37:48,0.109955743,-0.5583308339,0.4911356568,-7.022193432,-1.142034173,5.20020628,143.75862068965515,269.08045977011494,-614.735632183908,-7777.264367816092,1760.2988505747126,-2226.7011494252874,3
2024-06-15 12:37:48,0.109955743,-0.5583308339,0.4911356568,-7.022193432,-1.142034173,5.20020628,-123.23684210526316,569.0526315789474,-302.8684210526316,-7939.210526315789,1787.5263157894738,-2618.157894736842,3
2024-06-15 12:37:48,-0.1233947799,1.011592865,-0.763581574,-8.54251194,-1.364694953,5.772420406,-78.95698924731182,-97.5483870967742,-85.73118279569893,-7658.010752688172,2066.4193548387098,-2311.1935483870966,3
2024-06-15 12:37:48,0.4630358517,-0.4508185387,0.3640756905,-6.50744009,-1.391031146,5.080495834,559.9058823529411,-204.31764705882352,268.0,-7491.623529411765,2318.7764705882355,-2378.3411764705884,3
2024-06-15 12:37:49,0.4630358517,-0.4508185387,0.3640756905,-6.50744009,-1.391031146,5.080495834,525.6666666666666,240.66666666666663,-103.0,-7453.0,2261.0,-2394.0,3
2024-06-15 12:37:49,-0.1673770845,0.8038986921,-0.7257078886,-8.528146744,-0.9074024558,5.992686749,-189.0,-19.625,-470.5,-7621.0,1979.75,-2496.375,3
2024-06-15 12:37:49,-0.719599247,0.1490511149,0.1514945775,-7.347805023,-6.021417141,2.626439333,144.55263157894737,-432.7105263157895,282.7631578947368,-7626.736842105263,2089.2631578947367,-2314.5526315789475,3
2024-06-15 12:37:49,-0.719599247,0.1490511149,0.1514945775,-7.347805023,-6.021417141,2.626439333,993.7441860465116,-373.7906976744186,782.2558139534883,-7396.6511627906975,2388.395348837209,-2254.7441860465115,3
2024-06-15 12:37:49,0.1502728462,0.0354301855,-0.08552113175,-8.291120529,1.082179189,7.053318024,966.8,-724.4823529411765,1066.3176470588237,-7564.447058823529,1944.152941176471,-2372.8117647058825,3
2024-06-15 12:37:49,0.1502728462,0.0354301855,-0.08552113175,-8.291120529,1.082179189,7.053318024,1257.4333333333334,-1206.0,1262.7,-7600.477777777778,2116.777777777778,-1947.4,3
2024-06-15 12:37:49,-1.500285029,0.5326744914,-0.2822197378,-8.243236542,-5.063736439,2.779668093,900.0,-1612.0674157303372,1185.741573033708,-7765.842696629214,2174.7865168539324,-2030.9213483146068,3
2024-06-15 12:37:49,-0.3298672438,-0.342084527,-0.2260201424,-8.494627953,-4.266467571,3.227383852,1120.876404494382,-2212.449438202247,1940.8651685393256,-7665.640449438202,2295.5730337078653,-1764.0449438202247,3
2024-06-15 12:37:49,-0.3298672438,-0.342084527,-0.2260201424,-8.494627953,-4.266467571,3.227383852,765.3932584269663,-3262.887640449438,2954.438202247191,-7144.078651685393,3069.3932584269664,-1000.5955056179776,3
2024-06-15 12:37:49,-2.612059832,-0.5436700583,-0.3103195429,-6.121973515,-5.94959116,3.071760893,513.1034482758621,-2786.229885057471,3554.8735632183907,-6835.528735632184,3550.9885057471265,-347.7471264367816,3
2024-06-15 12:37:50,-5.615073204,0.866206944,-1.0726794,-5.035006046,-5.963956356,-0.2346317619,1226.8260869565215,-2528.1304347826085,3717.434782608696,-6649.869565217391,4013.869565217392,-280.1304347826087,3
2024-06-15 12:37:50,-5.615073204,0.866206944,-1.0726794,-5.035006046,-5.963956356,-0.2346317619,1130.178571428571,-1780.25,4041.857142857143,-6045.178571428572,5279.714285714285,15.0,3
2024-06-15 12:37:50,-1.777617812,1.382998943,-0.7489207983,-4.910507679,-5.990292549,-6.021417141,492.82278481012656,-956.4556962025316,3816.73417721519,-5541.810126582279,6344.316455696203,-156.18987341772151,3
2024-06-15 12:37:50,-1.777617812,1.382998943,-0.7489207983,-4.910507679,-5.990292549,-6.021417141,-545.2954545454545,-1305.2386363636365,4151.397727272727,-5248.431818181818,6884.25,257.375,3
2024-06-15 12:37:50,-1.365894675,2.172236919,-0.9663888216,-2.643198729,-5.439626217,-7.730877399,219.86666666666667,-935.8666666666668,2871.8,-4673.133333333333,7421.0,758.6,3
2024-06-15 12:37:50,-0.6157521605,0.6218608022,-0.2089159191,-2.382230759,-6.157886982,-10.77630138,-316.8089887640449,-501.9213483146067,1925.2921348314608,-3775.2921348314608,7033.29213483146,707.3820224719101,3
2024-06-15 12:37:50,-0.6157521605,0.6218608022,-0.2089159191,-2.382230759,-6.157886982,-10.77630138,-106.6060606060606,378.4242424242424,1523.1818181818182,-3673.848484848485,7985.545454545455,600.030303030303,3
2024-06-15 12:37:50,-0.4043927789,-0.7244861722,0.0415388383,-1.122880578,-3.79241538,-9.193734169,-78.72727272727272,286.9090909090909,1366.8181818181818,-3670.818181818182,8116.454545454545,360.6363636363636,3
2024-06-15 12:37:50,-0.3726277947,-1.161865711,0.3909537494,-0.2585737705,-3.818751812,-9.749189377,-295.1481481481481,-205.2962962962963,704.0123456790124,-3483.8765432098767,8273.086419753086,548.3456790123457,3
2024-06-15 12:37:50,-0.3726277947,-1.161865711,0.3909537494,-0.2585737705,-3.818751812,-9.749189377,-643.8505747126437,-1070.632183908046,339.8735632183908,-3163.793103448276,8004.620689655172,742.0919540229885,3
2024-06-15 12:37:51,4.365242958,0.2797762752,0.4862487316,-2.631227732,-3.497928619,-8.015787125,-382.0333333333333,-183.2888888888889,-76.86666666666667,-2927.4222222222224,7594.011111111111,584.8333333333334,3
2024-06-15 12:37:51,4.365242958,0.2797762752,0.4862487316,-2.631227732,-3.497928619,-8.015787125,-53.4891304347826,350.1630434782609,24.34782608695652,-3420.967391304348,7872.923913043478,319.6413043478261,3
2024-06-15 12:37:51,1.693318486,0.8747590184,0.3543018401,-2.284068346,-5.851428986,-3.548206806,77.27906976744185,-123.3953488372093,-208.88372093023256,-3641.139534883721,7752.418604651163,463.0,3
2024-06-15 12:37:51,3.484375477,0.7941248417,-0.08429940045,-1.723825216,-6.320692539,-3.347094059,302.625,-283.75,-367.375,-3375.5,7661.875,1137.0,3
2024-06-15 12:37:51,3.484375477,0.7941248417,-0.08429940045,-1.723825216,-6.320692539,-3.347094059,-13.333333333333329,505.0,-528.0,-3145.333333333333,7894.333333333333,982.0,3
2024-06-15 12:37:51,-5.005429745,1.530828357,-1.093448758,-1.55862534,-7.673416615,-4.848258495,-542.4545454545455,860.8636363636364,-654.3181818181819,-3642.522727272728,7281.727272727273,471.46590909090907,3
2024-06-15 12:37:51,1.411098719,1.310916781,-0.7501425147,3.49553442,-5.463568211,-9.198522568,-192.7078651685393,-391.247191011236,-225.8876404494382,-3766.764044943821,7418.741573033708,233.97752808988764,3
2024-06-15 12:37:51,1.411098719,1.310916781,-0.7501425147,3.49553442,-5.463568211,-9.198522568,-491.8351648351649,-826.0,-413.3076923076923,-3563.912087912088,7796.8351648351645,390.5384615384616,3
2024-06-15 12:37:51,-0.1869247705,-0.02565634064,-1.17530477,4.886565685,-6.986280441,-6.627150536,-1492.4883720930231,39.83720930232558,-1229.2093023255811,-3516.232558139535,7875.895348837209,1210.3255813953488,3
2024-06-15 12:37:51,-0.1869247705,-0.02565634064,-1.17530477,4.886565685,-6.986280441,-6.627150536,-1571.4945054945056,1098.956043956044,-2536.934065934066,-4014.351648351648,8294.76923076923,1835.3296703296703,3
2024-06-15 12:37:52,0.1747074574,-0.08674286306,-0.2101376504,4.388571739,-6.758831501,-6.294356346,-2131.279069767442,1831.5348837209303,-3439.988372093024,-4450.209302325581,7531.53488372093,1879.441860465116,3
2024-06-15 12:37:52,0.3543018401,0.0232128799,-0.2406809032,4.987122059,-5.525817394,-5.815515995,-1572.629213483146,2507.247191011236,-4214.044943820225,-5127.134831460674,6520.539325842697,1456.438202247191,3
2024-06-15 12:37:52,0.3543018401,0.0232128799,-0.2406809032,4.987122059,-5.525817394,-5.815515995,-1500.2727272727273,2742.181818181818,-4293.818181818182,-5797.727272727273,6097.0,884.0909090909091,3
2024-06-15 12:37:52,-0.1026253626,0.1820378453,0.216246292,4.604049683,-6.658275127,-6.806715488,-1075.0,2415.0,-4665.0,-6496.5,4425.5,614.5,3
2024-06-15 12:37:52,-0.145385921,-0.2687807083,0.58276546,4.058171749,-6.43082571,-6.517016888,-750.9414893617021,2864.813829787234,-4632.244680851064,-6835.196808510638,3741.765957446808,519.6276595744681,3
2024-06-15 12:37:52,-0.145385921,-0.2687807083,0.58276546,4.058171749,-6.43082571,-6.517016888,-1849.2465753424656,3091.356164383561,-2740.958904109589,-7384.904109589041,2967.945205479452,-74.24657534246575,3
2024-06-15 12:37:52,-0.1466076523,0.06475171447,0.1490511149,4.469974518,-5.966350555,-5.932831764,-2875.056818181818,2244.965909090909,-2885.9772727272725,-7607.375,2275.443181818182,-100.3068181818182,3
2024-06-15 12:37:52,-0.1466076523,0.06475171447,0.1490511149,4.469974518,-5.966350555,-5.932831764,-3222.428571428572,1943.8791208791208,-2539.263736263736,-7649.120879120879,2016.3296703296703,-598.0769230769231,3
2024-06-15 12:37:52,0.3335324228,-0.3958406746,-0.2700024247,4.089296341,-6.864176273,-9.119514465,-3253.4186046511627,1652.7906976744189,-1018.7906976744188,-7799.441860465116,1928.4651162790697,-610.0930232558139,3
2024-06-15 12:37:52,-0.590095818,0.2235766798,0.3824016452,3.035847664,-5.355829239,-5.906495571,-2886.9204545454545,1720.2613636363635,-710.3409090909091,-7860.909090909091,1746.9886363636365,-815.8636363636364,3
2024-06-15 12:37:53,-0.590095818,0.2235766798,0.3824016452,3.035847664,-5.355829239,-5.906495571,-2880.2065217391305,1978.3804347826087,-695.445652173913,-7955.108695652174,1725.9347826086955,-723.5326086956522,3
2024-06-15 12:37:53,0.5277875662,-0.4789183438,-0.3543018401,4.316745758,-6.461950302,-8.429984093,-1674.590909090909,1797.4545454545455,-82.72727272727272,-7836.363636363636,2049.6363636363635,-1320.1818181818182,3
2024-06-15 12:37:53,0.04276056588,0.4557054639,0.4935791194,2.250549555,-5.57848978,-6.172252178,-1694.258426966292,1864.7752808988764,-988.134831460674,-8002.820224719101,1959.1797752808989,-1869.0224719101125,3
2024-06-15 12:37:53,0.04276056588,0.4557054639,0.4935791194,2.250549555,-5.57848978,-6.172252178,-2718.6136363636365,917.8522727272727,-604.6704545454545,-8023.125,2081.329545454545,-1769.8295454545455,3
2024-06-15 12:37:53,0.1233947799,-0.1404990107,-0.7599163651,5.410895824,-5.571307182,-9.011775017,-1849.215053763441,490.0967741935484,240.66666666666663,-7673.451612903225,2364.1612903225805,-1827.516129032258,3
2024-06-15 12:37:53,0.1233947799,-0.1404990107,-0.7599163651,5.410895824,-5.571307182,-9.011775017,-1394.6896551724135,3.896551724137936,-158.44827586206895,-7860.620689655172,2397.896551724138,-1716.7586206896551,3
2024-06-15 12:37:53,0.03054326214,-0.1380555481,0.471587956,2.26730895,-5.652710438,-5.451597214,-1625.2425249169437,-246.2458471760797,-764.6445182724252,-7930.259136212625,2195.5714285714284,-1262.9900332225914,3
2024-06-15 12:37:53,-0.6963863969,0.2797762752,-0.5070181489,5.035006046,-7.529764175,-8.801085472,-1615.607973421927,-118.67109634551494,-684.2458471760797,-7830.923588039867,2209.8571428571427,-1316.810631229236,3
2024-06-15 12:37:53,-0.6963863969,0.2797762752,-0.5070181489,5.035006046,-7.529764175,-8.801085472,-1605.9734219269103,8.903654485049856,-603.8471760797343,-7731.58803986711,2224.1428571428573,-1370.6312292358805,3
2024-06-15 12:37:53,0.161268428,-0.1649336219,0.7379252315,2.547430515,-6.31829834,-6.220136166,-1023.9180327868852,565.0491803278688,-465.24590163934425,-7501.704918032787,2208.1803278688526,-1524.229508196721,3
2024-06-15 12:37:54,-0.4862487316,0.3225368559,-0.5277875662,4.910507679,-5.492298603,-8.410830498,12.890410958904113,475.4383561643836,456.6575342465753,-7687.958904109589,1929.4109589041093,-2083.123287671233,3
2024-06-15 12:37:54,-0.4862487316,0.3225368559,-0.5277875662,4.910507679,-5.492298603,-8.410830498,-49.57142857142857,452.3809523809524,197.1428571428572,-7555.238095238095,2180.04761904762,-2212.6666666666665,3
2024-06-15 12:37:54,0.248011291,-0.05009094998,0.3591887653,2.983175278,-5.868188381,-5.288791656,201.75,95.71428571428572,427.4285714285714,-7523.821428571428,2524.5714285714284,-2345.5,3
2024-06-15 12:37:54,-0.4300491214,0.3054326177,-0.2345722616,5.765237808,-5.827486992,-8.61912632,227.04494382022472,8.224719101123597,-87.89887640449439,-7462.112359550561,2659.674157303371,-2343.449438202247,3
2024-06-15 12:37:54,-0.4300491214,0.3054326177,-0.2345722616,5.765237808,-5.827486992,-8.61912632,-819.8636363636364,421.45454545454544,-790.2727272727273,-7553.954545454545,2458.2272727272725,-2385.3636363636365,3
2024-06-15 12:37:54,0.2394591719,-0.3909537494,0.2761110961,2.626439333,-6.133944988,-5.066130638,-344.1111111111111,422.3333333333333,-116.44444444444446,-7676.333333333333,2198.222222222222,-2333.333333333333,3
2024-06-15 12:37:54,0.2394591719,-0.3909537494,0.2761110961,2.626439333,-6.133944988,-5.066130638,599.6666666666666,77.06666666666666,354.5333333333333,-7509.0,2552.133333333333,-2201.6,3
2024-06-15 12:37:54,-0.7684684992,0.4166100919,-0.07819075137,5.762843609,-6.428431511,-9.617507935,283.125,-40.375,2.056818181818187,-7354.488636363636,2500.9886363636365,-2197.340909090909,3
2024-06-15 12:37:54,-0.4483750761,-0.5326744914,0.3921754956,2.868253708,-6.68700552,-5.884947777,98.01136363636364,63.63636363636364,-745.5568181818182,-7496.579545454545,2377.6477272727275,-2338.1704545454545,3
2024-06-15 12:37:54,-0.4483750761,-0.5326744914,0.3921754956,2.868253708,-6.68700552,-5.884947777,66.22727272727273,313.04545454545456,-832.0,-7542.0,2332.954545454545,-2536.727272727273,3
2024-06-15 12:37:55,-0.668286562,-0.668286562,-0.02565634064,3.703830004,-6.193799973,-9.311050415,436.8988764044944,-224.76404494382024,759.6516853932584,-7522.842696629214,2410.6629213483147,-2264.1348314606744,3
2024-06-15 12:37:55,-0.668286562,-0.668286562,-0.02565634064,3.703830004,-6.193799973,-9.311050415,459.55555555555554,-190.0,466.77777777777777,-7330.111111111111,2367.6666666666665,-2285.777777777778,3
2024-06-15 12:37:55,0.3445279896,0.3591887653,0.2382374406,2.947262287,-5.837063789,-6.038176537,149.49411764705883,-594.7529411764706,-152.18823529411765,-7370.576470588236,2599.670588235294,-2101.823529411765,3
2024-06-15 12:37:55,0.3445279896,0.3591887653,0.2382374406,2.947262287,-5.837063789,-6.038176537,-196.0,-183.6741573033708,-75.43820224719101,-7426.606741573034,2608.3370786516853,-2272.1011235955057,3
2024-06-15 12:37:55,-0.1673770845,-0.5522221923,-0.1905899495,3.79480958,-5.20020628,-9.619902611,-159.46153846153845,70.15384615384616,-81.76923076923077,-7392.615384615385,2252.0,-2358.923076923077,3
2024-06-15 12:37:55,-0.1307251602,0.2040289938,0.5338962078,2.197877169,-5.011064053,-6.119579315,109.51724137931036,-85.74137931034483,-18.32758620689655,-7382.879310344828,2373.3793103448274,-2201.9827586206898,3
2024-06-15 12:37:55,-0.1307251602,0.2040289938,0.5338962078,2.197877169,-5.011064053,-6.119579315,91.1264367816092,-78.27011494252874,-18.90229885057472,-7394.948275862069,2535.448275862069,-2203.706896551724,3
2024-06-15 12:37:55,-0.007330383174,0.009773843922,-0.5485569835,4.563348293,-4.419696331,-9.866505623,86.11111111111111,-185.3333333333333,-502.0,-7566.555555555556,2654.555555555556,-2147.222222222222,3
2024-06-15 12:37:55,-0.007330383174,0.009773843922,-0.5485569835,4.563348293,-4.419696331,-9.866505623,-410.1208791208791,-262.0659340659341,-638.2967032967033,-7301.626373626374,2416.879120879121,-2126.186813186813,3
2024-06-15 12:37:56,-0.3274237812,-0.05986479297,0.3885102868,2.296039343,-6.028599739,-5.674258232,-170.55555555555554,316.8888888888889,-158.44444444444446,-7740.333333333333,2137.4444444444443,-2132.777777777778,3
2024-06-15 12:37:56,-0.3286454976,0.4190535545,-0.441044718,4.314351559,-5.348646641,-8.949525833,879.1333333333333,-93.9,614.1444444444444,-7702.933333333333,2391.233333333333,-2376.333333333333,3
2024-06-15 12:37:56,-0.3286454976,0.4190535545,-0.441044718,4.314351559,-5.348646641,-8.949525833,483.8636363636364,41.27272727272727,593.7727272727273,-7348.363636363636,2360.818181818182,-2346.318181818182,3
2024-06-15 12:37:56,-0.0415388383,-0.6218608022,0.632856369,1.058237195,-5.664681435,-6.301538944,204.57142857142856,182.1428571428572,58.14285714285714,-7395.142857142857,2547.428571428572,-2408.428571428572,3
2024-06-15 12:37:56,-0.3872885704,0.7073819637,-0.4141666293,4.012681961,-5.066130638,-9.593565941,-192.5,-236.54545454545456,-574.9318181818181,-7315.340909090909,2361.2272727272725,-2337.659090909091,3
2024-06-15 12:37:56,-0.3872885704,0.7073819637,-0.4141666293,4.012681961,-5.066130638,-9.593565941,-451.876404494382,-132.57303370786516,-178.9438202247191,-7558.325842696629,2141.6067415730336,-2239.550561797753,3
2024-06-15 12:37:56,-0.1588249654,-0.6914994717,-0.03665191308,1.625662923,-5.61679697,-7.390900612,-148.19540229885058,-338.45977011494256,201.17241379310343,-7687.770114942528,2255.172413793104,-2347.4712643678163,3
2024-06-15 12:37:56,0.2211332172,0.6621779203,0.05131268129,2.920926094,-4.726154327,-7.560888767,515.875,-17.5,146.5,-7316.125,2279.875,-2389.125,3
2024-06-15 12:37:56,0.2211332172,0.6621779203,0.05131268129,2.920926094,-4.726154327,-7.560888767,584.5842696629213,101.08988764044943,139.6966292134831,-7676.078651685393,2640.8426966292136,-2217.179775280899,3
2024-06-15 12:37:56,0.1331686229,-1.047023058,-0.2040289938,2.705447912,-4.675876141,-8.398859978,-322.01162790697674,-412.953488372093,-843.9883720930233,-7437.697674418605,2549.220930232558,-2146.406976744186,3
2024-06-15 12:37:57,0.1331686229,-1.047023058,-0.2040289938,2.705447912,-4.675876141,-8.398859978,-849.8636363636364,-94.29545454545456,-614.6363636363636,-7753.090909090909,2077.954545454545,-2332.931818181818,3
2024-06-15 12:37:57,0.531452775,0.9578366876,0.3530801237,1.37666595,-5.255272865,-7.362170219,-398.3,62.23333333333333,-138.98888888888888,-7752.377777777778,1815.7666666666669,-1997.8333333333333,3
2024-06-15 12:37:57,-0.8466592431,-1.031140566,-0.5656611919,3.986345768,-3.502717018,-9.686940193,643.2840909090909,47.95454545454545,459.875,-7520.715909090909,1981.465909090909,-2164.6704545454545,3
2024-06-15 12:37:57,-0.8466592431,-1.031140566,-0.5656611919,3.986345768,-3.502717018,-9.686940193,657.5217391304348,140.2173913043478,115.7391304347826,-7405.695652173913,2429.043478260869,-2380.043478260869,3
2024-06-15 12:37:57,1.010371089,0.5448917747,-0.01588249579,1.630451322,-3.246537447,-6.337451935,218.6283783783784,156.2027027027027,109.50675675675676,-7703.263513513513,2215.972972972973,-2366.027027027027,3
2024-06-15 12:37:57,1.010371089,0.5448917747,-0.01588249579,1.630451322,-3.246537447,-6.337451935,155.4193548387097,-95.06451612903226,-77.12903225806451,-7662.129032258064,2253.516129032258,-2365.516129032258,3
2024-06-15 12:37:57,0.616973877,-0.1783726513,-0.3396410644,5.882553577,-4.252102375,-11.84650993,-487.8888888888889,-7.888888888888886,-546.1111111111111,-7431.111111111111,2025.111111111111,-2245.555555555556,3
2024-06-15 12:37:57,-0.07574728876,-0.009773843922,0.3286454976,0.6895300746,-4.936843872,-4.5370121,-391.6666666666666,47.66666666666666,-32.333333333333314,-7554.5,2089.1666666666665,-2339.833333333333,3
2024-06-15 12:37:57,-0.07574728876,-0.009773843922,0.3286454976,0.6895300746,-4.936843872,-4.5370121,533.8539325842696,25.89887640449438,459.4157303370786,-7772.213483146067,2008.2808988764043,-2355.955056179775,3
2024-06-15 12:37:57,-0.1930334121,0.3054326177,0.08796459436,5.549759388,-4.826710701,-12.8592577,709.1888888888889,-260.27777777777777,-125.86666666666667,-7369.955555555555,2526.411111111111,-2340.5444444444443,3
2024-06-15 12:37:58,0.8112290502,-0.7024950385,0.17715092,0.9959878922,-3.742137194,-5.413290024,-251.896551724138,-93.72413793103448,-580.8620689655172,-7697.712643678161,2294.287356321839,-2221.206896551724,3
2024-06-15 12:37:58,0.8112290502,-0.7024950385,0.17715092,0.9959878922,-3.742137194,-5.413290024,-149.42222222222222,-243.8,-441.5111111111111,-7575.911111111111,1931.1333333333328,-2354.4222222222224,3
2024-06-15 12:37:58,-0.9749409556,1.534493446,-0.1649336219,3.246537447,-5.449203014,-7.757213593,295.5058823529412,-378.34117647058827,71.45882352941176,-7774.670588235294,1920.1411764705883,-2402.0,3
2024-06-15 12:37:58,-0.9749409556,1.534493446,-0.1649336219,3.246537447,-5.449203014,-7.757213593,-84.49450549450549,-92.17582417582418,245.3736263736264,-7639.263736263736,2007.571428571429,-1962.8461538461536,3
2024-06-15 12:37:58,0.07696902007,-1.126435518,0.1136209369,4.458003521,-5.530605793,-9.145850182,283.5882352941176,-339.6470588235294,266.52941176470586,-7732.176470588235,2286.8823529411766,-2147.470588235294,3
2024-06-15 12:37:58,0.3188716471,0.7892379165,0.0354301855,0.9337386489,-5.209783077,-5.961562157,-287.92391304347825,-180.1304347826087,-106.97826086956522,-7791.413043478261,2380.8804347826085,-1819.967391304348,3
2024-06-15 12:37:58,-0.1588249654,0.3408628106,-0.09162978828,1.355118155,-3.596091032,-5.602431774,133.67441860465115,260.2093023255814,612.1860465116279,-7944.46511627907,1809.953488372093,-2146.6976744186045,3
2024-06-15 12:37:58,-0.1588249654,0.3408628106,-0.09162978828,1.355118155,-3.596091032,-5.602431774,380.9612403100775,-29.71317829457365,780.4031007751938,-7648.341085271318,1859.5658914728683,-2169.178294573644,3
2024-06-15 12:37:59,0.2492330223,-0.2712241709,0.05864306539,5.348646641,-7.596801758,-12.08114147,1048.123595505618,-13.19101123595506,409.08988764044943,-7735.224719101124,2367.3932584269664,-2349.011235955056,3
2024-06-15 12:37:59,0.2492330223,-0.2712241709,0.05864306539,1.529894829,-2.827552319,-4.654327869,-4.597701149425291,-130.68965517241378,-280.08045977011494,-7429.413793103448,2228.816091954023,-1974.114942528736,3
2024-06-15 12:37:59,0.4557054639,-0.06963863969,0.2052507252,1.529894829,-2.827552319,-4.654327869,-741.8651685393259,589.7191011235955,-159.29213483146066,-7588.269662921349,2134.865168539326,-2413.876404494382,3
2024-06-15 12:37:59,-0.762359798,0.4569272101,-0.6120869517,6.495469093,-8.243236542,-11.64060879,-711.1111111111111,563.6666666666666,-169.55555555555554,-7739.666666666667,2071.333333333333,-2281.111111111112,3
2024-06-15 12:37:59,-0.762359798,0.4569272101,-0.6120869517,6.495469093,-8.243236542,-11.64060879,249.3636363636364,-289.3181818181818,471.8636363636364,-7655.181818181818,2136.954545454545,-2382.590909090909,3
2024-06-15 12:37:59,-1.025031924,0.7599163651,-0.9126327038,4.893748283,-7.28316164,-9.603142738,559.2134831460675,-246.40449438202248,-824.9325842696629,-7557.651685393258,2348.6516853932585,-2153.4269662921347,3
2024-06-15 12:37:59,-1.025031924,0.7599163651,-0.9126327038,4.893748283,-7.28316164,-9.603142738,-82.83783783783784,-200.0540540540541,-715.1351351351351,-7360.810810810811,1749.054054054054,-1990.8648648648648,3
2024-06-15 12:37:59,1.131322384,-0.4483750761,0.7183775306,2.729389906,-5.702988625,-5.609614372,-221.4255319148936,57.12765957446808,-466.531914893617,-7713.425531914893,1817.063829787234,-2012.4468085106384,3
2024-06-15 12:37:59,-0.3738495409,0.6621779203,-0.8967501521,3.936067581,-6.112396717,-6.849811077,-131.97701149425288,63.67816091954023,-115.40229885057472,-7859.126436781609,1677.2183908045977,-1951.0229885057472,3
2024-06-15 12:38:00,-0.3738495409,0.6621779203,-0.8967501521,3.936067581,-6.112396717,-6.849811077,263.2470588235294,-282.4470588235294,603.5764705882352,-7641.023529411765,1893.6470588235293,-1959.2470588235287,3
2024-06-15 12:38:00,0.5705481172,-0.4776966274,0.6792821288,3.761290789,-6.737283707,-6.059724331,197.4125,-307.8125,375.325,-7590.6,2192.675,-2127.2625,3
2024-06-15 12:38:00,0.5705481172,-0.4776966274,0.6792821288,3.761290789,-6.737283707,-6.059724331,-240.6,-454.8,-506.33333333333337,-7603.933333333333,2044.4,-1830.8,3
2024-06-15 12:38:00,0.0232128799,0.5693264008,-0.8381071091,2.612074137,-6.591237068,-5.114014626,-540.3478260869565,-542.1304347826087,-406.7391304347826,-7477.130434782609,1996.0,-1801.8260869565213,3
2024-06-15 12:38:00,1.753183246,-0.2944370508,0.5485569835,3.114856482,-7.371747017,-4.955997467,-179.875,-148.5,64.1875,-7653.3125,1483.8125,-2044.0,3
2024-06-15 12:38:00,1.753183246,-0.2944370508,0.5485569835,3.114856482,-7.371747017,-4.955997467,267.5842696629214,72.21348314606742,312.65168539325845,-7936.651685393258,1821.9213483146068,-2084.730337078652,3
2024-06-15 12:38:00,-2.271197081,0.5375614166,-0.9505063295,4.601655483,-8.501810074,-4.642356873,884.5882352941177,-325.1764705882353,126.94117647058825,-7960.176470588235,1828.0,-1743.1764705882354,3
2024-06-15 12:38:00,-2.271197081,0.5375614166,-0.9505063295,4.601655483,-8.501810074,-4.642356873,152.3258426966292,-231.438202247191,-295.96629213483146,-7632.247191011236,2086.4157303370785,-1811.7865168539329,3
2024-06-15 12:38:00,1.095892191,-0.4581489265,0.763581574,3.672705412,-8.626308441,-5.209783077,-243.7,-166.03333333333333,-358.76666666666665,-7666.233333333334,1767.3333333333333,-1799.8333333333333,3
2024-06-15 12:38:00,-1.634675384,0.4667010605,-0.6414085031,4.151545525,-10.17056847,-5.111620426,-483.3617021276596,221.59574468085103,-381.0425531914893,-7815.021276595745,1669.3191489361702,-2015.127659574468,3
2024-06-15 12:38:01,-1.634675384,0.4667010605,-0.6414085031,4.151545525,-10.17056847,-5.111620426,-432.0731707317073,-25.39024390243901,-362.5365853658536,-7952.073170731707,1573.3902439024391,-2047.2682926829268,3
2024-06-15 12:38:01,0.9798278809,-0.1624901593,0.6890559793,3.023876667,-8.315062523,-4.632780075,129.03296703296704,88.14285714285714,154.96703296703296,-7615.846153846154,1466.065934065934,-1762.098901098901,3
2024-06-15 12:38:01,-0.3225368559,0.3090978265,-0.444709897,4.189853191,-9.459490776,-3.782838583,758.2988505747127,199.27586206896552,743.4597701149426,-7637.80459770115,1782.1724137931035,-1947.344827586207,3
2024-06-15 12:38:01,0.4434881806,-0.2687807083,0.2968805134,4.510675907,-7.927201748,-5.894524574,62.69230769230769,-626.8901098901099,-249.3736263736264,-7348.703296703296,1687.571428571429,-2054.648351648352,3
2024-06-15 12:38:01,-0.4569272101,0.1478293836,-0.1221730486,3.280056238,-8.61912632,-3.191470861,-489.22352941176473,164.8,119.7529411764706,-7892.117647058823,1457.3764705882354,-1997.917647058824,3
2024-06-15 12:38:01,-0.4569272101,0.1478293836,-0.1221730486,3.280056238,-8.61912632,-3.191470861,336.62921348314603,-626.7640449438202,314.5393258426966,-7976.146067415731,1467.0224719101125,-1968.4494382022472,3
2024-06-15 12:38:01,2.637716055,-0.3152064681,0.1209513173,4.30956316,-8.123526573,-4.917690277,1306.4,-1185.0333333333333,541.8333333333334,-7864.9,1838.0,-1756.6,3
2024-06-15 12:38:01,2.637716055,-0.3152064681,0.1209513173,4.30956316,-8.123526573,-4.917690277,1580.9885057471265,-1622.3045977011493,585.2701149425287,-7961.833333333333,1875.9885057471265,-1783.4310344827586,3
2024-06-15 12:38:01,-0.5534439087,0.01954768784,-0.3652974069,3.124433279,-5.973533154,-2.387019157,1662.5977011494251,-2159.6609195402298,367.45402298850576,-8045.166666666667,2057.597701149425,-1623.0862068965516,3
2024-06-15 12:38:02,2.16246295,-0.4141666293,0.3640756905,4.050989151,-8.676587105,-5.932831764,1453.9662921348315,-2978.808988764045,71.24719101123594,-7912.730337078651,1773.1011235955057,-639.9662921348315,3
2024-06-15 12:38:02,2.16246295,-0.4141666293,0.3640756905,4.050989151,-8.676587105,-5.932831764,1069.5681818181818,-2313.840909090909,703.0454545454545,-8211.5,1838.9772727272727,104.38636363636364,3
2024-06-15 12:38:02,-0.2492330223,0.2614503205,-0.2235766798,2.959233284,-9.239224434,-3.292027235,1256.4,-1862.6,771.0,-8244.4,1826.8,245.4,3
2024-06-15 12:38:02,-0.2492330223,0.2614503205,-0.2235766798,3.696647406,-8.327033043,-6.363788128,1713.1704545454545,-2365.2272727272725,1311.75,-8108.386363636364,2135.8636363636365,788.0909090909091,3
2024-06-15 12:38:02,2.167349815,-0.531452775,0.3017674387,3.696647406,-8.327033043,-6.363788128,2005.5454545454545,-2770.8636363636365,778.4090909090909,-7910.863636363636,2721.4772727272725,1362.9318181818182,3
2024-06-15 12:38:02,0.17715092,0.04886921868,-0.3310889602,3.016694069,-9.109937668,-3.727771997,1470.1818181818182,-2886.181818181818,169.73863636363637,-7657.284090909091,2985.909090909091,1625.6704545454545,3
2024-06-15 12:38:02,0.17715092,0.04886921868,-0.3310889602,3.016694069,-9.109937668,-3.727771997,476.57142857142856,-1840.0,-61.285714285714285,-7714.714285714285,2805.5714285714284,2065.8571428571427,3
2024-06-15 12:38:02,1.461189628,-0.3921754956,0.5558874011,3.23456645,-9.203310966,-5.770026207,291.9418604651163,-1009.5697674418604,188.8023255813953,-7681.093023255814,2687.186046511628,2182.639534883721,3
2024-06-15 12:38:02,-0.5766568184,0.6878342628,-0.6462954283,2.418143749,-7.153874874,-2.743755102,940.7555555555556,-73.95555555555555,695.0,-7752.7555555555555,2847.0666666666666,2356.0222222222224,3
2024-06-15 12:38:02,-0.5766568184,0.6878342628,-0.6462954283,2.418143749,-7.153874874,-2.743755102,729.5955056179776,-415.7752808988764,17.471910112359524,-7658.853932584269,2985.191011235955,2408.23595505618,3
2024-06-15 12:38:03,0.9126327038,-0.2724458873,0.6365215778,3.167528868,-9.287108421,-6.054935932,-26.15909090909088,-822.9318181818182,-149.5568181818182,-7740.113636363636,3045.693181818182,2309.25,3
2024-06-15 12:38:03,0.5864306092,0.4422664344,-0.7660250068,3.189076662,-8.65743351,-2.19308877,-439.27472527472526,-359.7912087912088,-266.1098901098901,-7424.0,2886.538461538461,2728.648351648352,3
2024-06-15 12:38:03,0.6414085031,-0.106290549,0.8723155856,3.335123062,-9.797073364,-4.302380562,-239.8705882352941,68.69411764705882,71.5764705882353,-7747.223529411764,2735.0823529411764,2848.4823529411765,3
2024-06-15 12:38:03,0.6414085031,-0.106290549,0.8723155856,3.335123062,-9.797073364,-4.302380562,268.77272727272725,462.1136363636364,-270.6818181818182,-7735.045454545455,2893.806818181818,2661.829545454545,3
2024-06-15 12:38:03,-3.103195429,0.5216789246,-1.018923283,4.513070107,-7.412448406,0.356736064,214.92857142857144,160.91071428571428,-305.57142857142856,-7573.75,3117.0,2541.339285714286,3
2024-06-15 12:38:03,1.230282545,-0.4080579877,0.5180137157,2.624045134,-8.066065788,-2.056619167,83.97619047619048,88.88690476190476,-686.5238095238095,-7565.416666666667,2983.6666666666665,2355.029761904762,3
2024-06-15 12:38:03,1.230282545,-0.4080579877,0.5180137157,2.624045134,-8.066065788,-2.056619167,-800.25,-25.52173913043481,-694.6086956521739,-7625.79347826087,2638.5978260869565,2626.8152173913045,3
2024-06-15 12:38:03,-0.483805269,0.1527163088,-0.2492330223,7.800309181,-11.99255657,-4.491522312,-517.8791208791208,571.2967032967033,-713.8241758241759,-7819.571428571428,2053.7912087912086,2470.725274725274,3
2024-06-15 12:38:03,0.5754350424,-0.2076941878,-0.3616322279,2.614468336,-6.272808552,0.6320692301,34.25,444.7857142857143,-172.82142857142856,-7829.392857142857,2040.5357142857144,2254.035714285714,3
2024-06-15 12:38:04,0.5754350424,-0.2076941878,-0.3616322279,2.614468336,-6.272808552,0.6320692301,278.96629213483146,520.314606741573,261.40449438202245,-8035.752808988764,2452.7977528089887,2375.752808988764,3
2024-06-15 12:38:04,0.5754350424,-0.2064724565,0.3408628106,8.042123795,-10.53688145,-2.849100113,-956.5,645.8,-260.3,-7580.1,2771.8,2403.1,3
2024-06-15 12:38:04,0.5754350424,-0.2064724565,0.3408628106,8.042123795,-10.53688145,-2.849100113,-1361.6,436.6,-697.2,-7990.8,1970.2,2287.8,3
2024-06-15 12:38:04,-0.2773328125,-0.02443460934,-0.3530801237,2.432508945,-5.75805521,0.3471592367,-1218.9213483146068,559.0,-535.5730337078652,-7836.022471910112,1695.6741573033707,2100.078651685393,3
2024-06-15 12:38:04,1.298699498,-0.3408628106,0.02809980139,7.426813602,-8.738836288,-2.04704237,-512.1444444444444,859.8555555555556,-85.12222222222223,-8125.633333333333,1809.6222222222225,2017.555555555556,3
2024-06-15 12:38:04,1.298699498,-0.3408628106,0.02809980139,7.426813602,-8.738836288,-2.04704237,-60.04444444444445,834.5777777777778,136.53333333333333,-8287.6,2223.288888888889,1758.2888888888888,3
2024-06-15 12:38:04,-0.09285151958,-0.4874704778,-0.5619960427,3.009511471,-6.155492783,-1.479616642,-384.2674418604651,64.23255813953489,-69.74418604651163,-8235.720930232557,2323.8023255813955,1727.406976744186,3
2024-06-15 12:38:04,0.4593706727,-0.5962044597,0.1307251602,6.660669327,-6.804321289,-3.292027235,-583.6818181818182,-528.1818181818182,-445.9545454545455,-8004.954545454545,2080.5454545454545,2008.0454545454545,3
2024-06-15 12:38:04,0.4593706727,-0.5962044597,0.1307251602,6.660669327,-6.804321289,-3.292027235,-326.4431818181818,-415.6363636363636,-491.2840909090909,-8179.988636363636,1895.625,2159.625,3
2024-06-15 12:38:04,0.04642575979,-0.7953465581,-0.02199114859,2.612074137,-4.517858505,-0.3974374831,58.34782608695652,-283.80434782608694,-226.5,-8200.847826086956,1487.4565217391305,2091.326086956521,3
2024-06-15 12:38:05,0.04642575979,-0.7953465581,-0.02199114859,2.612074137,-4.517858505,-0.3974374831,-260.31609195402297,509.6551724137931,445.3908045977012,-8230.189655172413,1867.9540229885056,2095.9885057471265,3
2024-06-15 12:38:05,0.393397212,-0.1527163088,-0.4960225821,8.432378769,-10.76433086,-7.235277653,-63.18965517241378,333.7931034482759,558.0344827586207,-8031.913793103448,1831.1724137931035,2086.793103448276,3
2024-06-15 12:38:05,-0.2968805134,-0.4239404798,0.1649336219,1.951274395,-5.940014362,-0.6775590777,61.47727272727273,-761.3409090909091,-547.75,-7649.897727272727,1695.3977272727273,2131.875,3
2024-06-15 12:38:05,-0.2968805134,-0.4239404798,0.1649336219,1.951274395,-5.940014362,-0.6775590777,-304.77777777777777,-403.0,-197.2,-8198.91111111111,1502.6666666666667,2117.2444444444445,3
2024-06-15 12:38:05,0.4581489265,-0.1551597714,0.04276056588,9.03571701,-11.85129833,-9.44512558,-154.11363636363637,-93.0681818181818,5.875,-8091.738636363636,1215.965909090909,1975.840909090909,3
2024-06-15 12:38:05,0.334754169,-0.2089159191,0.338419348,2.238578558,-5.231330872,-1.161187768,987.3181818181818,321.6818181818182,317.625,-7866.102272727273,1801.5568181818185,1970.215909090909,3
2024-06-15 12:38:05,0.334754169,-0.2089159191,0.338419348,2.238578558,-5.231330872,-1.161187768,630.9213483146068,23.910112359550567,-558.8314606741574,-8233.719101123595,2070.9775280898875,1978.820224719101,3
2024-06-15 12:38:05,0.1808161139,-0.2553416789,0.3689626157,7.888894558,-12.37562847,-10.03888798,21.53571428571428,-535.2857142857142,-699.6428571428571,-7869.285714285715,1751.5,2145.6071428571427,3
2024-06-15 12:38:05,-0.1356120855,0.07574728876,-0.0293215327,1.024718285,-5.817910194,-1.659181833,-312.8,300.3,-520.5,-8070.7,1525.7,2113.5,3
2024-06-15 12:38:06,1.104444385,-0.05131268129,0.216246292,7.10599041,-8.544905663,-7.999027729,195.7032967032967,224.92307692307693,-22.582417582417584,-8139.076923076923,1267.989010989011,2147.923076923077,3
2024-06-15 12:38:06,1.104444385,-0.05131268129,0.216246292,7.10599041,-8.544905663,-7.999027729,552.9662921348315,346.64044943820227,-843.3932584269663,-8237.887640449439,1670.8426966292134,1992.1460674157304,3
2024-06-15 12:38:06,-0.1026253626,-0.1160643995,0.4105014503,2.140416384,-5.365406036,-2.114080191,-156.98837209302326,32.25581395348837,-486.7093023255814,-8087.1511627906975,1655.639534883721,1847.4418604651164,3
2024-06-15 12:38:06,-0.8600982428,0.8991936445,-0.6585127115,6.629544735,-8.236053467,-7.39808321,-424.7391304347826,-526.9673913043479,-215.55434782608697,-8257.597826086956,1183.25,2142.826086956521,3
2024-06-15 12:38:06,-0.8600982428,0.8991936445,-0.6585127115,6.629544735,-8.236053467,-7.39808321,159.93023255813955,-313.5581395348837,-182.093023255814,-8206.511627906977,1185.3255813953488,1947.441860465116,3
2024-06-15 12:38:06,0.5216789246,-0.4239404798,1.174082994,3.016694069,-6.921637058,-4.120420933,18.01123595505618,241.96629213483143,-208.92134831460675,-8151.651685393258,1287.5955056179776,1671.6404494382025,3
2024-06-15 12:38:06,0.5216789246,-0.4239404798,1.174082994,3.016694069,-6.921637058,-4.120420933,159.61797752808988,226.2696629213484,331.29213483146066,-8484.370786516854,1130.2921348314608,1715.5168539325844,3
2024-06-15 12:38:06,-0.3078760803,-0.7086036801,0.9786061049,3.670311213,-7.144298077,-4.402936935,-11.973154362416109,-489.1677852348993,-91.94630872483222,-7842.295302013423,1184.724832214765,1965.4026845637584,3
2024-06-15 12:38:06,-0.3078760803,-0.7086036801,0.9786061049,3.670311213,-7.144298077,-4.402936935,38.36241610738255,-428.76510067114094,-91.2751677852349,-7895.986577181208,1243.7852348993288,2020.4362416107383,3
2024-06-15 12:38:07,-2.119702339,1.047023058,-1.007927656,4.728548527,-6.926425457,-3.950432777,69.82758620689656,-821.551724137931,3.1379310344827616,-8102.275862068966,1249.896551724138,2609.9310344827586,3
2024-06-15 12:38:07,-0.5791002512,-0.9822713137,1.018923283,5.125985622,-7.371747017,-5.779603004,83.66666666666667,-839.2222222222222,-431.22222222222223,-8038.888888888889,1235.888888888889,2446.222222222222,3
2024-06-15 12:38:07,-0.5791002512,-0.9822713137,1.018923283,5.125985622,-7.371747017,-5.779603004,-204.6235294117647,-364.1058823529412,-77.97647058823529,-8065.023529411765,1129.1764705882354,2676.1294117647058,3
2024-06-15 12:38:07,0.3042109013,1.348790407,-1.243721604,2.286462545,-4.730942726,-3.069366693,342.1111111111111,-178.48888888888888,95.88888888888889,-7860.977777777778,1229.6444444444444,2461.6,3
2024-06-15 12:38:07,0.3042109013,1.348790407,-1.243721604,2.286462545,-4.730942726,-3.069366693,-222.72413793103448,436.1724137931034,-193.06896551724137,-7926.241379310345,1216.7931034482758,2610.689655172414,3
2024-06-15 12:38:07,-0.822224617,-0.3066543639,0.7782423496,7.053318024,-7.213729858,-7.862558365,-340.19767441860466,329.9651162790698,-25.40697674418604,-8188.6511627906975,1392.8372093023256,2651.558139534884,3
2024-06-15 12:38:07,-0.003665191587,0.1514945775,-0.1624901593,1.26413846,-4.594472885,-2.964021683,-845.1609195402299,-344.85057471264366,-259.735632183908,-8113.425287356322,941.6666666666666,2679.011494252873,3
2024-06-15 12:38:07,0.3750712574,-0.3970624208,0.2651155293,9.081207275,-7.630321026,-8.750806808,-653.9545454545455,298.8181818181818,496.0,-7920.545454545455,1124.5,2609.818181818182,3
2024-06-15 12:38:07,-0.4373795092,-0.07330382615,0.4874704778,0.7469909191,-4.876988888,-3.435679436,-42.10112359550561,162.52808988764045,-207.8876404494382,-7785.123595505618,1186.3820224719102,2535.516853932584,3
2024-06-15 12:38:08,-0.4373795092,-0.07330382615,0.4874704778,0.7469909191,-4.876988888,-3.435679436,-538.0537634408602,324.5698924731183,-1578.215053763441,-7875.612903225807,1089.8494623655913,2572.2258064516127,3
2024-06-15 12:38:08,0.125838235,0.7513642311,-0.5766568184,8.341399193,-8.020575523,-9.540893555,-1587.4651162790697,706.6279069767443,-342.18604651162786,-8438.116279069767,845.5116279069767,2601.093023255814,3
2024-06-15 12:38:08,0.125838235,0.7513642311,-0.5766568184,8.341399193,-8.020575523,-9.540893555,-643.2197802197802,-76.15384615384613,302.7032967032967,-8277.934065934065,815.2087912087912,2652.197802197802,3
2024-06-15 12:38:08,0.04276056588,-0.5668829679,1.003040791,4.553771496,-5.762843609,-4.596867085,-188.5555555555556,-549.0,214.0,-8202.833333333334,776.6666666666666,2491.5,3
2024-06-15 12:38:08,0.106290549,1.150870085,-1.001819015,3.359065056,-4.800374508,-4.199429989,-249.0609756097561,-477.3414634146342,-419.8048780487805,-8164.926829268293,966.109756097561,2257.134146341464,3
2024-06-15 12:38:08,0.106290549,1.150870085,-1.001819015,3.359065056,-4.800374508,-4.199429989,-1358.8426966292134,-574.5730337078652,-797.6741573033707,-8174.70786516854,878.3258426966293,2617.741573033708,3
2024-06-15 12:38:08,-0.5302310586,-0.9541715384,0.9309586287,6.739677906,-6.912060261,-5.425261021,572.0860215053764,-1752.5591397849462,861.8494623655914,-8264.397849462366,346.4086021505376,3199.989247311828,3
2024-06-15 12:38:08,0.1490511149,0.7110471725,-0.3665191531,2.920926094,-5.655104637,-3.397372246,618.9090909090909,-730.6363636363636,214.9090909090909,-7705.545454545455,1042.0,3439.0,3
2024-06-15 12:38:08,0.1490511149,0.7110471725,-0.3665191531,2.920926094,-5.655104637,-3.397372246,-102.60919540229884,-992.3448275862067,346.2528735632184,-7920.873563218391,951.8735632183908,3388.9310344827586,3
2024-06-15 12:38:08,-0.1136209369,-0.5106833577,0.5106833577,6.153098583,-5.001487255,-7.65426302,-953.3012048192772,-1280.4578313253012,475.3734939759036,-7670.421686746988,860.0722891566265,3516.951807228916,3
2024-06-15 12:38:09,-0.1136209369,-0.5106833577,0.5106833577,6.153098583,-5.001487255,-7.65426302,-391.4666666666667,161.73333333333335,755.1333333333333,-7519.688888888889,1297.4666666666667,3512.0444444444443,3
2024-06-15 12:38:09,-0.3017674387,-0.1123992056,0.3640756905,0.4022258818,-4.197035789,-3.943250179,-280.7241379310345,2286.0,-83.13793103448276,-7648.103448275862,1268.4827586206898,3370.0689655172414,3
2024-06-15 12:38:09,-0.5070181489,0.3225368559,-0.2736676335,8.355764389,-8.006210327,-11.22641182,243.64044943820224,2373.6404494382023,-516.9213483146067,-7899.651685393258,1078.258426966292,3072.044943820225,3
2024-06-15 12:38:09,-0.5070181489,0.3225368559,-0.2736676335,8.355764389,-8.006210327,-11.22641182,602.3478260869565,1018.8369565217392,-465.5217391304348,-8166.065217391304,848.3478260869565,2803.021739130435,3
2024-06-15 12:38:09,-0.3090978265,-0.3335324228,0.6059783101,1.424550056,-3.722983599,-4.723760128,628.4347826086956,837.858695652174,-454.6521739130435,-8258.45652173913,874.4347826086956,2817.1521739130435,3
2024-06-15 12:38:09,0.03298672289,0.9468411207,-1.018923283,6.782773495,-6.880935669,-9.160215378,0.0232558139534901,29.348837209302324,-619.3720930232558,-7848.744186046511,967.8604651162792,2433.6976744186045,3
2024-06-15 12:38:09,0.03298672289,0.9468411207,-1.018923283,6.782773495,-6.880935669,-9.160215378,-432.6413043478261,402.25,-485.69565217391306,-7955.554347826087,689.2717391304348,2626.608695652174,3
2024-06-15 12:38:09,-0.07086037099,-0.7733554244,0.8234463334,4.714183331,-5.410895824,-5.552153587,51.21590909090909,832.1477272727273,-448.4090909090909,-8376.670454545454,759.3409090909091,2441.8522727272725,3
2024-06-15 12:38:09,-0.07086037099,-0.7733554244,0.8234463334,4.714183331,-5.410895824,-5.552153587,-16.793103448275858,1026.7931034482758,373.1264367816092,-8547.540229885057,1057.816091954023,1874.8045977011493,3
2024-06-15 12:38:09,1.017701507,1.037249207,-0.5277875662,0.5746083856,-3.23456645,-4.924872875,-215.99324324324328,-58.62837837837837,-28.5945945945946,-8399.277027027027,731.777027027027,2098.141891891892,3
2024-06-15 12:38:10,-0.2626720667,-0.299323976,0.8038986921,7.055712223,-7.122750282,-8.564059258,-189.9797297297297,-227.8851351351352,32.21621621621621,-8465.831081081082,623.331081081081,2044.425675675676,3
2024-06-15 12:38:10,-0.2626720667,-0.299323976,0.8038986921,7.055712223,-7.122750282,-8.564059258,-163.9662162162162,-397.1418918918919,93.02702702702705,-8532.385135135135,514.8851351351352,1990.70945945946,3
2024-06-15 12:38:10,0.2968805134,-0.09285151958,-0.1221730486,0.6775590777,-3.548206806,-4.189853191,126.9047619047619,-1099.111111111111,-452.57142857142856,-7955.825396825397,463.73015873015873,2456.84126984127,3
2024-06-15 12:38:10,-0.03420845419,0.07696902007,-0.2712241709,10.00297451,-10.07240677,-11.8872118,168.77777777777777,574.3555555555556,-337.0888888888889,-8289.8,1029.2444444444443,2339.3555555555554,3
2024-06-15 12:38:10,-0.03420845419,0.07696902007,-0.2712241709,10.00297451,-10.07240677,-11.8872118,-1062.4375,442.4583333333333,-476.0208333333333,-8525.416666666666,472.7291666666667,1746.7916666666667,3
2024-06-15 12:38:10,-0.02443460934,-0.4483750761,0.2431243658,1.173158884,-4.745307922,-4.884171486,-759.2762430939226,220.8895027624309,333.37016574585635,-8519.403314917126,218.86187845303868,1959.6519337016573,3
2024-06-15 12:38:10,-0.02443460934,-0.4483750761,0.2431243658,1.173158884,-4.745307922,-4.884171486,-546.0165745856353,166.19337016574585,351.6022099447514,-8484.044198895028,225.4917127071824,1972.3591160221,3
2024-06-15 12:38:10,-0.6805039048,1.428202987,-1.257160664,6.847416878,-7.445967197,-6.373364925,-233.34965034965035,238.32867132867133,416.6013986013986,-8106.692307692308,576.7972027972028,2029.958041958042,3
2024-06-15 12:38:10,0.1014036313,-1.102000952,0.4459316432,7.079654217,-5.916072369,-7.311892033,-101.1818181818182,376.0909090909091,445.27272727272725,-8099.0,519.4545454545455,2019.8181818181813,3
2024-06-15 12:38:10,0.1014036313,-1.102000952,0.4459316432,7.079654217,-5.916072369,-7.311892033,30.98601398601397,513.8531468531469,473.944055944056,-8091.307692307692,462.1118881118881,2009.6783216783217,3
2024-06-15 12:38:11,0.6035348773,0.25167647,-0.1136209369,2.059013367,-8.010998726,-3.287238836,-67.98360655737704,503.2295081967213,210.85245901639345,-8275.622950819672,1081.426229508197,1743.5573770491803,3
2024-06-15 12:38:11,0.3139847219,-0.3054326177,0.2736676335,8.164227486,-7.606379032,-9.29189682,-463.8571428571428,33.868131868131854,-226.2637362637363,-8150.384615384615,740.9560439560439,1706.0879120879122,3
2024-06-15 12:38:11,0.3139847219,-0.3054326177,0.2736676335,8.164227486,-7.606379032,-9.29189682,-790.0344827586207,66.65517241379314,113.20689655172418,-8543.931034482759,393.1724137931035,1730.655172413793,3
2024-06-15 12:38:11,-0.7782423496,-0.08552113175,0.7525860071,1.357512355,-5.609614372,-5.193023682,284.7802197802198,160.36263736263737,394.0989010989011,-8274.175824175823,1026.857142857143,1748.0549450549452,3
2024-06-15 12:38:11,-0.7782423496,-0.08552113175,0.7525860071,1.357512355,-5.609614372,-5.193023682,-147.95505617977528,241.56179775280896,256.5842696629214,-8069.696629213483,1066.438202247191,1845.573033707865,3
2024-06-15 12:38:11,0.5913175344,0.7147123218,-0.7599163651,5.327098846,-7.120356083,-7.524975777,-848.5505617977528,-160.59550561797752,-268.9438202247191,-8237.314606741573,808.4719101123595,1981.2921348314608,3
2024-06-15 12:38:11,0.2382374406,-0.7929030657,0.8588765264,5.054159641,-5.861005783,-4.879383087,-645.7752808988764,178.07865168539325,-135.53932584269663,-8094.685393258427,918.685393258427,1839.258426966292,3
2024-06-15 12:38:11,0.2382374406,-0.7929030657,0.8588765264,5.054159641,-5.861005783,-4.879383087,-467.6206896551725,834.2413793103449,-305.4482758620689,-8229.701149425287,978.448275862069,1627.5057471264367,3
2024-06-15 12:38:11,0.5888741016,1.102000952,-1.00670588,2.437297344,-4.242525578,-4.000710964,-1801.869565217392,2168.1304347826085,-495.57608695652175,-8157.195652173913,761.3152173913044,1310.586956521739,3
2024-06-15 12:38:11,-0.0171042271,-0.9737191796,0.5937610269,6.852205276,-7.094019413,-6.84023428,-2052.2558139534885,2589.6046511627906,-332.5348837209302,-8511.767441860466,531.8604651162791,1063.7441860465117,3
2024-06-15 12:38:12,-0.0171042271,-0.9737191796,0.5937610269,6.852205276,-7.094019413,-6.84023428,-1684.0625,2058.375,-562.0,-8533.75,483.6875,788.3125,3
2024-06-15 12:38:12,-0.07819075137,0.2809980214,-0.1490511149,-0.3806780577,-5.458779812,-3.497928619,-1730.712643678161,2333.114942528736,-606.5977011494252,-8165.0344827586205,290.8390804597701,-728.919540229885,3
2024-06-15 12:38:12,-0.7757988572,0.4483750761,-0.1038470939,10.39562416,-10.05804157,-10.6350441,-1138.876404494382,1938.8651685393256,-237.08988764044943,-8467.966292134832,80.97752808988764,-1072.8314606741574,3
2024-06-15 12:38:12,-0.9932668805,-0.393397212,0.8393288255,2.925714493,-5.322310448,-5.990292549,-165.12941176470588,1283.6,88.23529411764706,-8381.517647058823,481.7176470588236,-1354.4823529411765,3
2024-06-15 12:38:12,-0.9932668805,-0.393397212,0.8393288255,2.925714493,-5.322310448,-5.990292549,-230.5652173913044,931.4782608695652,29.09782608695652,-8161.385869565217,416.1195652173913,-1552.108695652174,3
2024-06-15 12:38:12,-0.06230825558,1.242499948,-1.077566266,5.935225964,-5.995080948,-7.429207802,-439.2608695652174,561.9130434782609,-182.858695652174,-8108.66847826087,423.7282608695652,-1549.9347826086955,3
2024-06-15 12:38:12,0.4923573732,-0.9236282706,0.7293730974,7.757213593,-6.402095318,-6.414066315,-1158.621951219512,-92.34146341463412,-531.7560975609756,-7859.5609756097565,233.3780487804878,-1444.3536585365855,3
2024-06-15 12:38:12,0.4923573732,-0.9236282706,0.7293730974,7.757213593,-6.402095318,-6.414066315,-1345.7666666666669,358.2333333333333,-432.25,-7899.483333333334,173.53333333333333,-1687.4833333333331,3
2024-06-15 12:38:12,-0.5363397002,0.161268428,-0.03420845419,-0.5003881454,-5.025429249,-4.630385876,-1344.6,608.7333333333333,-498.6666666666666,-8158.466666666666,-226.06666666666663,-1825.4666666666667,3
2024-06-15 12:38:13,-0.5363397002,0.161268428,-0.03420845419,-0.5003881454,-5.025429249,-4.630385876,-278.98850574712645,244.7816091954023,142.183908045977,-8102.701149425287,-61.11494252873564,-1428.4597701149426,3
2024-06-15 12:38:13,0.5290092826,0.5839871764,-0.7000515461,8.312667847,-8.494627953,-8.54251194,173.49425287356323,-214.48275862068965,155.98850574712642,-7830.80459770115,469.5747126436781,-1503.2988505747126,3
2024-06-15 12:38:13,0.4789183438,-0.290771842,1.147204876,3.42131424,-6.739677906,-3.521870613,-49.16666666666666,41.05555555555556,-32.266666666666666,-7864.077777777778,569.7888888888889,-1885.4444444444443,3
2024-06-15 12:38:13,0.4789183438,-0.290771842,1.147204876,3.42131424,-6.739677906,-3.521870613,-39.69387755102041,-56.16326530612245,-125.85374149659864,-7873.163265306122,314.374149659864,-1786.2448979591836,3
2024-06-15 12:38:13,-0.232128799,0.6291912198,-0.7012733221,4.156333923,-6.969521046,-5.724536419,33.77551020408163,84.65306122448979,-187.4183673469388,-8032.34693877551,170.83673469387756,-1825.0204081632653,3
2024-06-15 12:38:13,0.7244861722,-0.4080579877,0.1148426682,6.888118267,-6.461950302,-6.059724331,107.24489795918367,225.46938775510205,-248.9829931972789,-8191.530612244898,27.299319727891145,-1863.795918367347,3
2024-06-15 12:38:13,0.7244861722,-0.4080579877,0.1148426682,6.888118267,-6.461950302,-6.059724331,549.9344262295082,-308.655737704918,402.5081967213115,-8173.032786885245,237.9672131147541,-1414.0491803278687,3
2024-06-15 12:38:13,-0.9737191796,0.3286454976,0.432492584,0.4716577232,-5.066130638,-4.496310711,-293.85227272727275,875.4772727272727,-71.89772727272727,-7979.409090909091,248.13636363636363,-1722.375,3
2024-06-15 12:38:13,-0.9737191796,0.3286454976,0.432492584,0.4716577232,-5.066130638,-4.496310711,23.285714285714285,803.8571428571429,55.71428571428572,-8211.142857142857,292.42857142857144,-2058.285714285714,3
2024-06-15 12:38:13,0.2211332172,0.4776966274,-0.8344419003,9.47146225,-11.52329254,-5.070919037,-47.37113402061856,363.1855670103093,422.0927835051546,-8098.030927835051,269.5979381443299,-1685.1546391752577,3
2024-06-15 12:38:14,-1.215621829,-0.1038470939,2.370157242,4.395754337,-6.629544735,-3.648763418,512.375,-171.63636363636363,168.5340909090909,-8008.454545454545,483.6136363636364,-1489.5454545454545,3
2024-06-15 12:38:14,-1.215621829,-0.1038470939,2.370157242,4.395754337,-6.629544735,-3.648763418,-274.0681818181818,44.95454545454545,-309.1363636363636,-8017.454545454545,439.9318181818182,-1939.0454545454545,3
2024-06-15 12:38:14,1.75196147,1.032362223,-1.353677392,1.719036818,-4.410119534,-5.475539207,-237.0337078651685,210.5842696629213,157.57303370786516,-7875.078651685393,447.7977528089888,-1935.7752808988764,3
2024-06-15 12:38:14,0.1698205322,-0.2981022298,0.6023131609,7.558494568,-8.020575523,-3.38300705,68.13953488372093,-41.93023255813954,332.1860465116279,-7862.930232558139,375.5116279069768,-2085.4186046511627,3
2024-06-15 12:38:14,0.1698205322,-0.2981022298,0.6023131609,7.558494568,-8.020575523,-3.38300705,542.8522727272727,239.5681818181818,385.5795454545455,-7956.125,820.2727272727273,-2089.4886363636365,3
2024-06-15 12:38:14,-0.96028018,-0.3579670191,0.3139847219,-1.604115129,-6.205770969,-3.34230566,137.13636363636363,77.95454545454547,-264.6136363636364,-7883.977272727273,996.1818181818182,-2060.909090909091,3
2024-06-15 12:38:14,-0.96028018,-0.3579670191,0.3139847219,-1.604115129,-6.205770969,-3.34230566,-645.7241379310345,18.52873563218391,-461.4712643678161,-8038.896551724138,751.0689655172414,-1995.1264367816093,3
2024-06-15 12:38:14,0.8637634516,0.4581489265,-1.131322384,7.228095055,-10.59673691,-5.049371243,-1107.534090909091,57.93181818181819,-288.82954545454544,-7843.056818181818,572.5113636363636,-2013.4318181818185,3
2024-06-15 12:38:14,0.2675589919,-0.6597344875,0.8246681094,6.411672115,-7.175422668,-3.203441858,-816.629213483146,-328.43820224719104,118.1123595505618,-7821.977528089887,184.42696629213484,-2141.5280898876404,3
2024-06-15 12:38:14,0.2675589919,-0.6597344875,0.8246681094,6.411672115,-7.175422668,-3.203441858,-208.7608695652173,289.6847826086956,208.7282608695652,-7941.967391304348,476.6630434782609,-1882.0,3
2024-06-15 12:38:15,0.4386012554,-0.1136209369,-0.7782423496,1.812410712,-5.513846397,-5.27682066,-78.45555555555555,-209.1777777777777,-148.7888888888889,-8096.511111111111,805.7888888888889,-1821.1,3
2024-06-15 12:38:15,-1.469741821,-0.3188716471,-0.7611380816,6.701370716,-8.678980827,-3.835511208,-229.76666666666668,-210.06666666666663,-188.3111111111111,-8018.544444444445,673.1,-1780.4333333333334,3
2024-06-15 12:38:15,-1.469741821,-0.3188716471,-0.7611380816,6.701370716,-8.678980827,-3.835511208,-248.1,116.60000000000002,2.800000000000012,-8009.1,558.1,-1982.1,3
2024-06-15 12:38:15,0.5412266254,-0.6133087277,-0.4422664344,6.347028732,-7.050923824,-2.722207308,127.53086419753086,414.0617283950617,442.22222222222223,-7858.543209876543,506.9135802469136,-2124.5925925925926,3
2024-06-15 12:38:15,0.5412266254,-0.6133087277,-0.4422664344,6.347028732,-7.050923824,-2.722207308,199.78,52.22999999999999,294.53,-7866.05,751.52,-1751.05,3
2024-06-15 12:38:15,0.8478809595,-0.6560692787,-0.5338962078,2.585737944,-8.382100105,-4.254496574,2.012987012987012,-107.8181818181818,-357.62337662337666,-8034.2467532467535,758.2207792207793,-2089.519480519481,3
2024-06-15 12:38:15,-1.610240817,0.8772025108,0.2712241709,3.866635799,-9.313444138,-3.023876667,-222.86666666666667,-296.1333333333333,-480.73333333333335,-8030.6,679.0,-2114.333333333333,3
2024-06-15 12:38:15,-1.270599723,1.213178396,1.170417786,9.370905876,-5.267243862,-4.553771496,92.31125827814569,-311.4072847682119,388.05298013245033,-7870.241721854305,933.4238410596026,-2067.4867549668875,3
2024-06-15 12:38:15,0.5656611919,-1.588249683,-0.3469714522,10.3261919,-2.968810081,-6.497863293,-193.11920529801324,-182.5993377483444,333.08609271523176,-7850.705298013245,1093.6887417218545,-2006.228476821192,3
2024-06-15 12:38:16,0.5656611919,-1.588249683,-0.3469714522,10.3261919,-2.968810081,-6.497863293,-478.5496688741722,-53.79139072847681,278.11920529801324,-7831.1688741721855,1253.953642384106,-1944.9701986754967,3
2024-06-15 12:38:16,-0.3604104817,-2.048841953,-1.257160664,-1.912967205,-12.77546024,-0.2873041928,-1168.049180327869,-263.344262295082,232.5737704918033,-7616.508196721312,1003.5901639344262,-1538.7540983606557,3
2024-06-15 12:38:16,-0.3604104817,-2.048841953,-1.257160664,-1.912967205,-12.77546024,-0.2873041928,143.26829268292684,316.6585365853658,319.2926829268293,-7883.926829268293,1101.0,-1958.9268292682927,3
2024-06-15 12:38:16,-0.04642575979,1.255938888,1.96698606,1.510741234,-12.05480576,-1.553836942,358.41379310344826,-417.8620689655172,91.68965517241378,-8264.034482758621,1376.2068965517242,-1823.344827586207,3
2024-06-15 12:38:16,-0.8613200188,2.412917614,0.5338962078,9.593565941,-3.713406801,-8.216899872,76.66292134831461,-822.1685393258427,-242.47191011235955,-7692.808988764045,1157.5505617977528,-1467.4831460674156,3
2024-06-15 12:38:16,-0.8613200188,2.412917614,0.5338962078,9.593565941,-3.713406801,-8.216899872,-776.4888888888888,-22.95555555555555,-179.3,-7983.888888888889,1057.8444444444444,-1743.2444444444443,3
2024-06-15 12:38:16,-0.4105014503,-3.087312937,-0.9370672703,2.109291792,-9.528923035,-2.707842112,595.4883720930233,-265.06976744186045,-20.76744186046512,-8186.883720930233,1286.2558139534883,-1652.6744186046512,3
2024-06-15 12:38:16,-0.4105014503,-3.087312937,-0.9370672703,2.109291792,-9.528923035,-2.707842112,482.1363636363636,-421.57954545454544,-227.9090909090909,-7815.329545454545,1316.7613636363635,-1313.9204545454545,3
2024-06-15 12:38:16,0.9871582389,0.3017674387,0.4703662395,1.987187386,-14.16170311,3.141192675,-403.6444444444445,-276.4666666666667,-507.8666666666667,-7840.955555555555,1171.977777777778,-1614.9555555555555,3
2024-06-15 12:38:17,0.9871582389,0.3017674387,0.4703662395,1.987187386,-14.16170311,3.141192675,-682.8651685393259,37.70786516853933,-486.123595505618,-7970.955056179775,671.3033707865169,-1867.0449438202247,3
2024-06-15 12:38:17,0.2431243658,2.230879784,0.58276546,5.712565422,-8.497021675,-5.698200226,-313.95652173913044,154.6086956521739,-417.8695652173913,-7870.652173913043,350.0,-1651.695652173913,3
2024-06-15 12:38:17,0.4557054639,0.03420845419,-0.2138028294,10.14902115,-0.8403648138,-5.877765179,245.5,298.625,185.25,-8246.125,570.875,-1485.0,3
2024-06-15 12:38:17,0.4557054639,0.03420845419,-0.2138028294,10.14902115,-0.8403648138,-5.877765179,308.5813953488372,-250.7674418604651,9.162790697674438,-7995.581395348837,983.4883720930231,-1600.2093023255811,3
2024-06-15 12:38:17,0.1905899495,-2.285857677,-0.3017674387,4.525041103,-8.825027466,-6.248866558,-182.35555555555555,-158.13333333333333,-297.6777777777778,-7964.088888888888,929.7,-1547.522222222222,3
2024-06-15 12:38:17,-0.7208209634,-1.799609065,-1.108109593,0.2633621991,-11.92791271,1.829170108,-460.8131868131868,539.010989010989,-107.13186813186816,-8053.956043956044,879.4945054945055,-1697.9450549450548,3
2024-06-15 12:38:17,-0.7208209634,-1.799609065,-1.108109593,0.2633621991,-11.92791271,1.829170108,307.3333333333333,339.44444444444446,21.444444444444443,-8286.777777777777,673.6666666666666,-1702.6666666666667,3
2024-06-15 12:38:17,0.3970624208,0.5143485069,0.06719517708,3.739742994,-8.757989883,1.082179189,341.0777777777778,-196.2888888888889,14.844444444444449,-8165.5,1011.6222222222224,-1641.9888888888888,3
2024-06-15 12:38:17,-0.08796459436,1.775174379,0.08063421398,5.319916248,-8.58081913,-6.172252178,152.32954545454544,-275.8636363636364,105.07954545454548,-7902.727272727273,1089.0,-1598.159090909091,3
2024-06-15 12:38:17,-0.08796459436,1.775174379,0.08063421398,5.319916248,-8.58081913,-6.172252178,-515.8415300546449,-314.6885245901639,-340.9344262295082,-7857.666666666667,1017.896174863388,-1812.8743169398904,3
2024-06-15 12:38:18,-0.4190535545,0.3005456924,0.05742133409,5.566518784,-5.729324818,-2.968810081,-426.22404371584696,-186.8196721311476,-324.54098360655735,-7924.333333333333,1041.9398907103823,-1731.4535519125684,3
2024-06-15 12:38:18,-0.4190535545,0.3005456924,0.05742133409,5.566518784,-5.729324818,-2.968810081,448.92,809.8285714285714,35.308571428571426,-7960.611428571428,559.5428571428572,-1800.5028571428572,3
2024-06-15 12:38:18,-0.4728097022,0.2431243658,-0.3750712574,4.125209332,-9.02374649,-0.1101332754,712.9200000000001,875.5428571428572,17.02285714285714,-7842.897142857143,768.1142857142856,-2041.0742857142857,3
2024-06-15 12:38:18,0.2602286041,0.5167919993,0.5253441334,3.349488258,-11.15697956,-1.534683347,311.943661971831,-519.6619718309859,-274.7746478873239,-8012.140845070422,685.5352112676056,-1853.5070422535207,3
2024-06-15 12:38:18,-0.2577851415,0.7867944241,0.2455678284,3.019088268,-9.296685219,-1.053448796,319.8390804597701,-314.3448275862069,21.5632183908046,-7922.64367816092,414.0114942528736,-1865.735632183908,3
2024-06-15 12:38:18,-0.2577851415,0.7867944241,0.2455678284,6.72291851,-8.875306129,-0.962469101,864.8181818181819,-56.93181818181818,-50.40909090909091,-8204.40909090909,429.95454545454544,-1514.7272727272727,3
2024-06-15 12:38:18,0.9663888216,0.6010913849,-0.1722639948,6.72291851,-8.875306129,-0.962469101,813.8461538461538,-342.2307692307692,-65.38461538461539,-7905.461538461538,782.3076923076923,-1451.6153846153843,3
2024-06-15 12:38:18,0.48014009,-0.2504547536,-0.1050688252,5.099649429,-5.190629482,1.429338455,513.1333333333333,-321.6555555555556,-502.23333333333335,-8009.322222222222,562.4888888888889,-1468.1666666666667,3
2024-06-15 12:38:18,0.48014009,-0.2504547536,-0.1050688252,5.099649429,-5.190629482,1.429338455,583.0,-406.5,-544.5,-8092.5,391.0,-1432.0,3
2024-06-15 12:38:19,0.4276056588,0.0109955743,0.5277875662,4.5394063,-10.12986755,1.029506683,592.6483516483516,-273.13186813186815,12.087912087912088,-8184.10989010989,220.92307692307693,-1830.4835164835165,3
2024-06-15 12:38:19,-0.2712241709,-0.0293215327,-0.04276056588,1.194706678,-5.717353821,3.584120035,1151.0898876404494,-934.6629213483146,174.561797752809,-8142.38202247191,18.168539325842687,-1319.3595505617975,3
2024-06-15 12:38:19,-0.2712241709,-0.0293215327,-0.04276056588,1.194706678,-5.717353821,3.584120035,1741.9555555555555,-1267.3555555555556,279.7444444444444,-8292.633333333333,-17.355555555555554,-955.6222222222224,3
2024-06-15 12:38:19,0.09773843735,0.05864306539,0.6707300544,4.19464159,-7.297526836,1.335964561,1540.095238095238,-1772.571428571429,740.047619047619,-8190.0952380952385,525.1428571428571,-465.7142857142857,3
2024-06-15 12:38:19,0.1918116808,0.004886921961,-0.6670648456,1.97042799,-10.85531044,2.018311977,2091.736263736264,-2299.747252747253,1008.2637362637364,-8405.846153846154,651.7362637362637,-560.7142857142857,3
2024-06-15 12:38:19,-0.3518583775,-0.00122173049,0.9211847782,4.742913723,-9.737217903,1.692700624,1908.1264367816093,-2340.528735632184,434.35632183908046,-8240.206896551725,841.7931034482758,270.3103448275862,3
2024-06-15 12:38:19,-0.3518583775,-0.00122173049,0.9211847782,4.742913723,-9.737217903,1.692700624,1990.391304347826,-2262.5652173913045,264.67391304347825,-8192.95652173913,859.5434782608696,312.5869565217391,3
2024-06-15 12:38:19,0.8503243923,-0.003665191587,-0.9285151958,1.740584612,-8.429984093,2.035071373,969.3291139240506,-1898.025316455696,-600.9367088607595,-8171.93670886076,410.1139240506329,1099.6708860759493,3
2024-06-15 12:38:19,0.6548475623,-0.1172861308,1.038470864,2.693476915,-7.903259754,2.561795712,94.52941176470588,-1149.4117647058824,-858.4117647058823,-8191.117647058823,571.7058823529412,977.470588235294,3
2024-06-15 12:38:20,0.6548475623,-0.1172861308,1.038470864,2.693476915,-7.903259754,2.561795712,-302.1333333333333,-793.2,-498.7,-8378.133333333333,155.1,1298.6666666666667,3
2024-06-15 12:38:20,0.08185594529,-0.1857030392,-0.8943067193,4.168305397,-10.97980881,2.291250944,143.3448275862069,-683.1379310344828,-325.9310344827586,-8422.0,92.55172413793105,1614.3793103448277,3
2024-06-15 12:38:20,0.08185594529,-0.1857030392,-0.8943067193,4.168305397,-10.97980881,2.291250944,1351.75,-696.5,297.25,-8512.25,317.25,1849.0,3
2024-06-15 12:38:20,0.007330383174,0.1563815027,0.7574729323,2.808398485,-5.693411827,1.046266198,1549.470588235294,-186.68235294117648,-409.6352941176471,-7964.64705882353,287.2470588235294,1722.023529411765,3
2024-06-15 12:38:20,-0.676838696,-0.1722639948,-0.1478293836,5.056553841,-13.8073616,2.200271368,742.1264367816092,-28.75862068965517,-1030.9885057471265,-8755.057471264368,111.83908045977012,1747.183908045977,3
2024-06-15 12:38:20,-0.676838696,-0.1722639948,-0.1478293836,5.056553841,-13.8073616,2.200271368,234.8,-194.6,-301.9,-8433.8,106.8,1511.8,3
2024-06-15 12:38:20,0.06230825558,0.1588249654,0.5094616413,1.805228114,-5.822698593,0.4812345505,-206.93023255813955,359.51162790697674,1201.2093023255811,-8795.511627906977,349.3720930232558,1888.2558139534883,3
2024-06-15 12:38:20,-0.06352998316,-0.04642575979,-0.2223549485,5.844246387,-13.43386555,1.37666595,79.25,-638.0,490.2142857142857,-8366.07142857143,389.32142857142856,2188.5,3
2024-06-15 12:38:20,-0.06352998316,-0.04642575979,-0.2223549485,5.844246387,-13.43386555,1.37666595,543.75,-1775.3636363636365,-452.9772727272728,-8219.556818181818,620.4545454545455,2209.2386363636365,3
2024-06-15 12:38:20,0.06963863969,-0.1356120855,0.0415388383,-0.6871358752,-5.68383503,2.930502892,-347.8131868131868,-1604.5274725274726,-688.7142857142857,-8111.692307692308,439.0659340659341,2347.6813186813188,3
2024-06-15 12:38:21,0.06963863969,-0.1356120855,0.0415388383,5.765237808,-14.15452003,-0.1987187415,-1483.3370786516855,-1244.314606741573,404.123595505618,-7954.101123595506,536.6067415730337,2883.6629213483147,3
2024-06-15 12:38:21,0.1075122803,0.01954768784,-0.4129449129,1.661576033,-11.57596493,2.020706177,-1306.5454545454545,340.6363636363636,1542.6363636363635,-7858.272727272727,755.2727272727273,3596.090909090909,3
2024-06-15 12:38:21,0.1075122803,0.01954768784,-0.4129449129,1.661576033,-11.57596493,2.020706177,-736.3595505617977,1067.3595505617975,1467.4831460674156,-7885.797752808989,1297.4606741573034,3222.876404494382,3
2024-06-15 12:38:21,-0.2052507252,0.03176499158,0.8539896011,4.65193367,-11.03248119,1.63763392,-818.8988764044943,830.1235955056179,1158.685393258427,-7648.91011235955,1388.9887640449438,3256.7865168539324,3
2024-06-15 12:38:21,-0.25167647,0.00122173049,-0.6597344875,0.7015010715,-10.08437729,2.389413357,-844.2127659574468,731.6702127659574,611.7446808510638,-8019.797872340426,1617.4468085106382,3046.0851063829787,3
2024-06-15 12:38:21,-0.25167647,0.00122173049,-0.6597344875,0.7015010715,-10.08437729,2.389413357,-1158.341463414634,899.9268292682926,-233.0,-7951.951219512195,1583.3902439024391,2499.9268292682927,3
2024-06-15 12:38:21,-0.3689626157,0.00244346098,1.060462117,4.297592163,-10.25436592,0.7900865674,-842.2808988764045,686.7191011235955,-669.561797752809,-8028.67415730337,936.9662921348316,2516.7640449438204,3
2024-06-15 12:38:21,0.2186897546,0.05864306539,-1.303586483,3.493140221,-8.544905663,-0.5506663918,-230.2921348314607,335.4943820224719,-1047.2808988764043,-8260.067415730337,709.5393258426966,2638.5955056179773,3
2024-06-15 12:38:21,0.2186897546,0.05864306539,-1.303586483,3.493140221,-8.544905663,-0.5506663918,-46.43023255813954,402.4418604651163,-466.3720930232558,-7903.302325581395,918.2674418604652,2641.9767441860463,3
2024-06-15 12:38:22,0.2089159191,-0.02809980139,1.080009699,1.30005157,-5.784391403,0.55784899,40.934782608695656,800.304347826087,-628.0869565217391,-8208.58695652174,1384.5434782608695,2266.1521739130435,3
2024-06-15 12:38:22,0.2089159191,-0.02809980139,1.080009699,1.30005157,-5.784391403,0.55784899,-1104.0344827586207,879.2413793103449,-536.3793103448276,-8508.862068965518,447.3448275862069,1682.7241379310344,3
2024-06-15 12:38:22,-0.7452555895,-0.02565634064,-0.9615018964,7.393294811,-14.54238129,-2.487575531,-288.2758620689655,574.6206896551724,17.724137931034477,-8144.9655172413795,208.1034482758621,2170.0,3
2024-06-15 12:38:22,0.05375614017,-0.08796459436,0.1307251602,-0.9720458984,-6.212953568,2.604891539,-22.46875,438.6458333333333,-317.375,-8110.895833333333,401.4791666666666,2140.614583333333,3
2024-06-15 12:38:22,0.05375614017,-0.08796459436,0.1307251602,-0.9720458984,-6.212953568,2.604891539,-666.6896551724138,430.45977011494256,-853.8045977011494,-8043.83908045977,798.5862068965517,2112.6666666666665,3
2024-06-15 12:38:22,0.393397212,-0.1466076523,0.5913175344,5.640739441,-8.920795441,-0.09816227108,-641.8064516129032,618.1290322580645,-706.3225806451613,-8063.548387096775,644.9354838709678,2101.1935483870966,3
2024-06-15 12:38:22,-0.7660250068,0.3286454976,-0.5351179838,0.8044517636,-12.01649857,0.653617084,128.4878048780488,352.7317073170732,533.6585365853659,-8732.317073170732,-39.21951219512195,1255.0243902439024,3
2024-06-15 12:38:22,-0.7660250068,0.3286454976,-0.5351179838,0.8044517636,-12.01649857,0.653617084,748.561797752809,548.9550561797753,990.0337078651684,-8122.943820224719,352.62921348314603,1621.573033707865,3
2024-06-15 12:38:22,-0.5436700583,-0.0293215327,1.288925648,4.654327869,-11.15937424,-0.3878606856,-135.66292134831463,606.7528089887641,-304.7977528089888,-8146.955056179775,703.0898876404494,1223.056179775281,3
2024-06-15 12:38:23,0.25167647,0.1930334121,-0.9016370773,2.068590164,-8.461109161,-0.5817909837,-739.6931818181819,878.2386363636364,92.17045454545456,-8542.397727272728,152.20454545454544,1013.4659090909092,3
2024-06-15 12:38:23,0.4642575979,-0.3335324228,1.336573124,2.080561161,-8.698134422,-0.4285621047,-343.0112359550562,1912.887640449438,-117.6067415730337,-8344.67415730337,541.5280898876405,730.7752808988764,3
2024-06-15 12:38:23,0.4642575979,-0.3335324228,1.336573124,2.080561161,-8.698134422,-0.4285621047,-1445.2413793103449,1996.7586206896551,-475.1724137931034,-8506.528735632184,511.45977011494256,615.919540229885,3
2024-06-15 12:38:23,-0.522900641,0.1441642046,-1.077566266,6.358999729,-14.32690334,-1.872265697,-757.816091954023,1182.1954022988507,-434.44827586206895,-8444.724137931034,347.1264367816092,257.57471264367814,3
2024-06-15 12:38:23,0.2932153046,-0.3628539443,0.6585127115,0.3854664862,-7.831433773,1.417367458,-1115.0434782608695,1169.391304347826,-1093.1739130434785,-8211.304347826086,283.1304347826087,-675.8695652173913,3
2024-06-15 12:38:23,0.2932153046,-0.3628539443,0.6585127115,0.3854664862,-7.831433773,1.417367458,-1573.0117647058823,1612.164705882353,-414.09411764705885,-8290.058823529413,127.89411764705883,-828.7058823529412,3
2024-06-15 12:38:23,-0.3396410644,-0.05864306539,-0.1148426682,8.020575523,-15.64610767,-3.026270866,-770.8372093023256,1827.4651162790697,-425.7441860465116,-8124.116279069767,-46.06976744186045,-737.0930232558139,3
2024-06-15 12:38:23,-0.3396410644,-0.05864306539,-0.1148426682,8.020575523,-15.64610767,-3.026270866,-1075.7640449438202,1598.629213483146,-520.7977528089888,-8519.730337078652,237.7303370786517,-922.3258426966293,3
2024-06-15 12:38:23,0.006108652335,-0.1392772794,0.1392772794,7.173028469,-13.36682796,-3.172317266,-726.7016574585635,-162.79005524861878,-547.3977900552486,-8159.209944751381,-184.31491712707185,-1438.022099447514,3
2024-06-15 12:38:24,0.006108652335,-0.1392772794,0.1392772794,7.173028469,-13.36682796,-3.172317266,123.47142857142858,191.28571428571428,-632.2,-8244.057142857142,-385.3571428571428,-1597.7,3
2024-06-15 12:38:24,-0.004886921961,0.03909537569,-0.09651670605,-3.052607059,-6.390124321,3.804386616,28.41111111111111,478.1555555555556,283.3888888888889,-8260.966666666667,56.78888888888889,-1470.3111111111111,3
2024-06-15 12:38:24,0.5754350424,-0.2443460971,0.299323976,3.689464808,-7.527369976,-0.08140286058,154.53333333333333,1.0333333333333314,166.5,-8078.166666666667,-30.266666666666666,-1249.3,3
2024-06-15 12:38:24,0.5754350424,-0.2443460971,0.299323976,3.689464808,-7.527369976,-0.08140286058,-346.1222222222222,36.97777777777776,-458.8888888888889,-8125.033333333334,-0.2333333333333342,-1513.9666666666667,3
2024-06-15 12:38:24,-0.1038470939,0.2761110961,-0.4581489265,-1.278503656,-10.69489861,0.5626373887,-198.4333333333333,574.3666666666667,96.03333333333332,-8285.866666666667,-461.6333333333333,-1855.1,3
2024-06-15 12:38:24,-0.1038470939,0.2761110961,-0.4581489265,-1.278503656,-10.69489861,0.5626373887,66.03529411764706,-13.741176470588227,-275.38823529411764,-7992.917647058824,13.188235294117646,-1578.8705882352942,3
2024-06-15 12:38:24,-0.4544837475,-0.3188716471,1.058018565,3.957615376,-13.89834118,-0.6392518282,-206.25,159.5568181818182,-309.95454545454544,-7947.238636363636,97.38636363636364,-1630.3295454545455,3
2024-06-15 12:38:24,0.342084527,0.1466076523,-0.5351179838,-0.5770025849,-10.17296314,1.929726601,-658.3777777777777,823.8666666666667,-205.7111111111111,-8041.511111111111,-638.2222222222222,-2328.733333333333,3
2024-06-15 12:38:24,0.248011291,-0.2773328125,0.07819075137,3.471592426,-8.588001251,1.589749932,527.1351351351351,612.0675675675676,270.3783783783784,-7841.310810810811,-528.6216216216217,-2238.175675675676,3
2024-06-15 12:38:25,1.125213742,-0.03176499158,-1.058018565,0.2082955539,-9.016563416,3.303998232,174.23595505617976,-40.01123595505618,308.5056179775281,-8005.808988764045,-201.28089887640448,-2331.4269662921347,3
2024-06-15 12:38:25,1.125213742,-0.03176499158,-1.058018565,0.2082955539,-9.016563416,3.303998232,103.8314606741573,-555.8426966292135,93.34831460674158,-7771.932584269663,-307.4494382022472,-2125.1348314606744,3
2024-06-15 12:38:25,0.2565633953,-0.09896016866,1.292590857,3.442862034,-9.282320023,2.631227732,-112.95505617977528,-398.2584269662922,-116.6067415730337,-7813.022471910112,77.47191011235955,-2041.191011235955,3
2024-06-15 12:38:25,0.2565633953,-0.09896016866,1.292590857,3.442862034,-9.282320023,2.631227732,-141.6,456.68888888888887,208.4,-7997.177777777778,-242.68888888888887,-2281.311111111111,3
2024-06-15 12:38:25,0.1979203373,-0.1685988009,-1.41720736,3.655946016,-10.66377449,4.187458992,237.3409090909091,149.73863636363637,39.31818181818181,-8004.681818181818,-316.7045454545455,-2388.3863636363635,3
2024-06-15 12:38:25,0.2211332172,-0.1050688252,1.26815629,2.640804529,-9.179368973,2.286462545,323.28235294117644,323.38823529411764,-14.470588235294118,-8008.223529411764,-280.18823529411765,-1955.541176470588,3
2024-06-15 12:38:25,0.2211332172,-0.1050688252,1.26815629,2.640804529,-9.179368973,2.286462545,-159.0,-400.0,-270.0,-7856.0,-44.0,-2129.0,3
2024-06-15 12:38:25,0.2455678284,-0.3054326177,-1.523497939,2.923320293,-9.244012833,5.698200226,-451.6206896551725,-574.5747126436781,122.60919540229884,-8009.241379310345,-185.79310344827587,-2205.9885057471265,3
2024-06-15 12:38:25,-0.248011291,0.1343903542,1.662775159,3.08133769,-9.59835434,3.758896589,39.5,-58.01086956521739,191.7826086956522,-8045.195652173913,-132.56521739130434,-2237.8695652173915,3
2024-06-15 12:38:25,-0.248011291,0.1343903542,1.662775159,3.08133769,-9.59835434,3.758896589,195.6896551724137,-59.68965517241378,89.48275862068965,-8127.482758620689,13.75862068965517,-1853.344827586207,3
2024-06-15 12:38:26,0.3323107064,-0.3005456924,-1.335351467,2.56897831,-7.259219646,3.682282209,-155.77528089887642,-741.9662921348315,2.314606741573037,-7671.370786516853,285.9550561797753,-1881.8988764044943,3
2024-06-15 12:38:26,0.3323107064,-0.3005456924,-1.335351467,2.56897831,-7.259219646,3.682282209,-169.73626373626374,-491.1538461538462,-150.17582417582418,-7642.615384615385,143.95604395604394,-1746.3846153846157,3
2024-06-15 12:38:26,0.2675589919,-0.1380555481,0.9993755221,4.039018154,-8.530540466,2.93529129,34.897727272727266,477.4886363636364,123.22727272727272,-7863.545454545455,-321.4659090909091,-2004.2045454545453,3
2024-06-15 12:38:26,0.09285151958,-0.4483750761,-0.85765481,-0.2250549644,-7.393294811,4.687847137,-260.3253012048193,293.710843373494,-370.31325301204816,-7899.265060240964,94.3734939759036,-2116.5662650602408,3
2024-06-15 12:38:26,0.09285151958,-0.4483750761,-0.85765481,-0.2250549644,-7.393294811,4.687847137,49.89655172413791,-239.51724137931035,-330.7931034482759,-7880.689655172414,-80.44827586206897,-1685.5862068965516,3
2024-06-15 12:38:26,0.3506366611,-0.5705481172,-1.00670588,1.953668594,-4.857835293,3.670311213,-219.7558139534884,801.9302325581396,550.8255813953489,-7842.895348837209,20.91860465116279,-2304.4651162790697,3
2024-06-15 12:38:26,0.3506366611,-0.5705481172,-1.00670588,1.953668594,-4.857835293,3.670311213,-51.375,150.23863636363637,-788.0681818181819,-7978.0,92.0,-2359.8863636363635,3
2024-06-15 12:38:26,-0.1123992056,-0.4471533597,0.6719517708,7.508216381,-13.22078133,4.273650169,-508.4827586206897,265.9770114942529,-518.2183908045977,-7862.264367816092,-55.50574712643679,-2005.4137931034484,3
2024-06-15 12:38:26,-0.1123992056,-0.4471533597,0.6719517708,7.508216381,-13.22078133,4.273650169,-584.1086956521739,-31.445652173913047,-688.0108695652174,-7767.282608695652,-247.5217391304348,-2246.0652173913045,3
2024-06-15 12:38:27,0.3787364662,-0.7550294399,0.7941248417,2.671929121,-6.265625954,3.248931646,50.62790697674421,284.0232558139535,543.9302325581396,-7832.232558139535,-447.09302325581393,-2651.0,3
2024-06-15 12:38:27,1.995085835,-0.9981538057,-1.0726794,4.395754337,-5.327098846,4.414907932,405.3033707865168,97.12359550561796,361.17977528089887,-7636.988764044944,-322.76404494382024,-2645.258426966292,3
2024-06-15 12:38:27,1.995085835,-0.9981538057,-1.0726794,4.395754337,-5.327098846,4.414907932,-141.5625,3.3125,159.0625,-7992.65625,84.28125,-2459.0625,3
2024-06-15 12:38:27,0.4214970171,-0.2651155293,1.26815629,4.048594952,-7.855375767,4.833893299,-490.4096385542169,-524.710843373494,-343.8433734939759,-7696.253012048192,58.30120481927711,-2037.795180722892,3
2024-06-15 12:38:27,0.88086766,-1.012814522,-1.065348983,3.988739967,-4.115632534,4.979939461,-565.3932584269663,249.95505617977528,291.40449438202245,-7935.629213483146,-284.2247191011236,-2515.5280898876404,3
2024-06-15 12:38:27,0.88086766,-1.012814522,-1.065348983,3.988739967,-4.115632534,4.979939461,792.7272727272727,-379.3636363636364,496.45454545454544,-7641.545454545455,-255.54545454545456,-2647.090909090909,3
2024-06-15 12:38:27,-0.1014036313,0.2968805134,1.178969979,4.314351559,-8.343792915,5.937620163,37.103448275862064,-268.3793103448276,115.79310344827589,-7923.931034482759,140.48275862068965,-1977.4827586206893,3
2024-06-15 12:38:27,-0.1014036313,0.2968805134,1.178969979,4.314351559,-8.343792915,5.937620163,-430.0337078651685,-636.1685393258427,-467.0449438202247,-7696.797752808989,344.51685393258424,-1833.9101123595503,3
2024-06-15 12:38:27,0.4935791194,-0.5656611919,-0.2345722616,3.684676409,-7.979874134,5.5042696,-808.7865168539325,177.85393258426967,-50.51685393258427,-7787.842696629214,-54.7752808988764,-2387.7191011235955,3
2024-06-15 12:38:27,-0.8075638413,0.4214970171,0.6988298297,6.435614109,-7.92001915,4.874594688,-841.6629213483146,416.23595505617976,637.1460674157304,-7928.606741573034,5.786516853932584,-2427.0224719101125,3
2024-06-15 12:38:28,-0.8075638413,0.4214970171,0.6988298297,6.435614109,-7.92001915,4.874594688,-145.08433734939757,15.85542168674698,311.18072289156623,-7955.710843373494,13.771084337349397,-2089.638554216868,3
2024-06-15 12:38:28,0.3640756905,-0.2932153046,-0.590095818,4.242525578,-7.501033783,6.033388138,246.4022988505747,-697.2528735632184,-106.86206896551724,-7995.264367816092,595.8275862068965,-1840.3908045977007,3
2024-06-15 12:38:28,-0.3152064681,0.2247984111,0.6438519955,5.631162167,-11.85369301,4.587290287,187.5647058823529,-825.3882352941176,-332.74117647058824,-7769.894117647059,313.1647058823529,-1921.058823529412,3
2024-06-15 12:38:28,-0.1038470939,0.25167647,0.2822197378,2.183511972,-2.056619167,3.426102638,297.7816091954023,-324.71264367816093,303.0,-7957.448275862069,462.5172413793104,-2094.1609195402298,3
2024-06-15 12:38:28,-0.1038470939,0.25167647,0.2822197378,2.183511972,-2.056619167,3.426102638,-286.17045454545456,-490.5113636363636,-327.3636363636364,-8089.522727272727,472.5340909090909,-1501.5113636363635,3
2024-06-15 12:38:28,-0.5143485069,-0.5326744914,-0.6414085031,7.580042362,-11.81538582,7.077260017,-350.7741935483871,-202.80645161290323,-576.258064516129,-7866.935483870968,407.1290322580645,-1918.290322580645,3
2024-06-15 12:38:28,0.1331686229,0.3054326177,1.199739337,2.051830769,-4.98233366,4.912901878,-200.52941176470588,514.1764705882352,23.294117647058822,-8123.058823529412,281.29411764705884,-2237.764705882353,3
2024-06-15 12:38:28,0.1331686229,0.3054326177,1.199739337,2.051830769,-4.98233366,4.912901878,55.01123595505618,-140.02247191011236,21.60674157303371,-7879.741573033708,261.0449438202247,-2184.7865168539324,3
2024-06-15 12:38:28,0.7977899909,-1.100779176,-1.293812633,3.873818398,-5.674258232,5.822698593,-177.88636363636363,-468.9659090909091,-161.23863636363637,-8141.897727272727,444.3636363636364,-1926.0795454545453,3
2024-06-15 12:38:29,-0.2797762752,0.3127630055,1.154535294,3.478775024,-9.782708168,6.121973515,-229.1136363636364,-780.7613636363636,-696.409090909091,-8032.625,268.42045454545456,-1428.125,3
2024-06-15 12:38:29,-0.2797762752,0.3127630055,1.154535294,3.478775024,-9.782708168,6.121973515,-472.1379310344828,-408.3448275862069,-873.8965517241379,-7841.586206896552,-5.310344827586221,-1750.5172413793102,3
2024-06-15 12:38:29,0.4422664344,-0.7696902156,-1.02991879,3.390189648,-4.149151325,4.90571928,-465.25,-219.25,-413.25,-8017.0,85.75,-2008.25,3
2024-06-15 12:38:29,0.4422664344,-0.7696902156,-1.02991879,3.390189648,-4.149151325,4.90571928,-93.95652173913044,-500.1739130434783,502.0869565217391,-8235.95652173913,254.17391304347825,-1743.891304347826,3
2024-06-15 12:38:29,0.01954768784,0.2761110961,0.7086036801,4.692635536,-6.234501362,5.006275654,43.85227272727273,-711.0227272727273,-362.9090909090909,-7916.329545454545,245.42045454545453,-1103.3863636363635,3
2024-06-15 12:38:29,0.8857545853,-0.4850270152,-0.6414085031,2.602497339,-4.302380562,5.98789835,209.04494382022472,-512.4157303370787,-654.561797752809,-8104.5842696629215,284.70786516853934,-1128.7865168539329,3
2024-06-15 12:38:29,0.8857545853,-0.4850270152,-0.6414085031,2.602497339,-4.302380562,5.98789835,-163.14606741573033,-326.64044943820227,-327.67415730337075,-8391.685393258427,-173.438202247191,-1566.573033707865,3
2024-06-15 12:38:29,-1.137431145,0.4080579877,0.7904596329,6.921637058,-8.698134422,4.505887508,628.1318681318681,-464.4065934065934,235.1758241758241,-8108.2307692307695,-146.03296703296704,-1365.901098901099,3
2024-06-15 12:38:29,0.4105014503,-0.06352998316,-0.4630358517,3.730166197,-7.354987621,5.245696068,963.0,-451.6551724137931,406.8965517241379,-8336.103448275862,-8.931034482758633,-1106.5517241379312,3
2024-06-15 12:38:29,0.4105014503,-0.06352998316,-0.4630358517,3.730166197,-7.354987621,5.245696068,1547.470588235294,-2003.058823529412,958.4117647058824,-8376.823529411764,342.2352941176471,-332.0,3
2024-06-15 12:38:30,-0.09773843735,0.09529497474,0.7220427394,4.254496574,-9.622296333,5.324704647,2252.0,-3584.590909090909,1236.25,-8565.681818181818,284.52272727272725,-175.6590909090909,3
2024-06-15 12:38:30,-0.04886921868,0.1514945775,0.5632177591,2.559401512,-2.52827692,3.236960649,1551.534090909091,-1220.5568181818182,800.6590909090909,-8214.90909090909,1611.1704545454545,1121.284090909091,3
2024-06-15 12:38:30,0.4129449129,-0.8759807348,-1.078788042,5.621585369,-9.593565941,7.371747017,735.945054945055,-1052.7032967032967,394.7692307692308,-8035.538461538462,1492.923076923077,1261.6483516483518,3
2024-06-15 12:38:30,0.4129449129,-0.8759807348,-1.078788042,5.621585369,-9.593565941,7.371747017,242.4705882352941,-1232.5411764705882,-162.38823529411764,-8015.7764705882355,1583.5882352941176,1431.105882352941,3
2024-06-15 12:38:30,0.1368338168,0.5644394755,1.148426652,4.034229755,-8.475474358,6.785167694,-203.25806451612905,-744.9354838709678,-592.1612903225806,-8142.483870967741,1501.967741935484,1615.9354838709678,3
2024-06-15 12:38:30,0.5448917747,-0.4642575979,-0.7525860071,2.743755102,-4.120420933,4.747702122,-124.247311827957,-616.9139784946236,-371.1935483870968,-8183.709677419355,1227.236559139785,1897.8279569892472,3
2024-06-15 12:38:30,0.5448917747,-0.4642575979,-0.7525860071,2.743755102,-4.120420933,4.747702122,48.45569620253164,-67.0632911392405,-569.1139240506329,-8205.379746835442,1030.873417721519,2110.9240506329115,3
2024-06-15 12:38:30,-0.8625417352,0.3286454976,0.3005456924,5.669469833,-6.789956093,6.189011574,-438.8,190.96666666666667,-81.53333333333333,-8173.833333333333,1292.7,1989.6,3
2024-06-15 12:38:30,-0.8625417352,0.3286454976,0.3005456924,5.669469833,-6.789956093,6.189011574,-650.75,-206.54545454545456,532.3863636363636,-7921.113636363636,1259.6136363636365,2063.181818181818,3
2024-06-15 12:38:31,0.2186897546,0.09773843735,0.2370157093,2.485181332,-1.716642618,2.839523315,-241.72222222222223,38.0888888888889,288.3888888888889,-8146.733333333334,1384.888888888889,1757.0777777777778,3
2024-06-15 12:38:31,0.2260201424,-1.197295904,-1.302364707,5.554547787,-7.711723804,8.319850922,358.0113636363636,159.76136363636363,606.5681818181819,-8308.613636363636,1385.875,1930.2386363636365,3
2024-06-15 12:38:31,0.2260201424,-1.197295904,-1.302364707,5.554547787,-7.711723804,8.319850922,202.375,-108.8125,373.8125,-8217.25,1668.125,2057.625,3
2024-06-15 12:38:31,-0.2590068579,0.908967495,1.397659659,3.64158082,-9.651026726,7.618350029,257.0375,-1.0750000000000028,165.475,-8113.45,1841.65,2222.525,3
2024-06-15 12:38:31,0.5962044597,-0.3885102868,-0.6646214128,2.219424963,-5.377377033,6.325480938,-763.4883720930233,-539.6976744186046,-272.51162790697674,-8024.209302325581,1781.4883720930234,2019.93023255814,3
2024-06-15 12:38:31,0.5962044597,-0.3885102868,-0.6646214128,2.219424963,-5.377377033,6.325480938,-821.9886363636364,-384.9318181818182,-165.75,-8225.579545454546,1524.5454545454545,2124.181818181818,3
2024-06-15 12:38:31,-0.6976081133,-0.3567453027,-0.7672467232,6.91684866,-9.993397713,7.723694801,-2.0439560439560296,241.23076923076923,93.52747252747253,-8158.021978021978,1446.5604395604396,2154.208791208792,3
2024-06-15 12:38:31,-0.6976081133,-0.3567453027,-0.7672467232,6.91684866,-9.993397713,7.723694801,256.9318181818182,-148.28409090909088,-111.39772727272728,-8140.647727272727,1570.1931818181818,2054.931818181818,3
2024-06-15 12:38:31,0.1368338168,0.8881980777,1.127657294,3.42131424,-7.043741226,6.088454723,244.49438202247188,-441.8426966292135,-20.15730337078652,-7942.629213483146,1443.9775280898875,2623.7078651685392,3
2024-06-15 12:38:31,0.2455678284,-0.5375614166,-1.023810148,2.990357876,-5.410895824,5.968744755,265.0444444444445,-190.2444444444444,25.40000000000001,-7974.511111111111,1464.111111111111,2200.155555555556,3
2024-06-15 12:38:32,0.2455678284,-0.5375614166,-1.023810148,2.990357876,-5.410895824,5.968744755,37.69662921348315,330.4269662921348,-334.0224719101124,-8089.202247191011,1856.629213483146,2142.224719101124,3
2024-06-15 12:38:32,-0.8466592431,0.3640756905,0.3628539443,4.57531929,-5.621585369,5.999869347,573.3409090909091,482.0681818181818,-378.0909090909091,-8251.863636363636,1445.2045454545455,2063.5227272727275,3
2024-06-15 12:38:32,0.0720821023,0.4618141353,0.4508185387,1.529894829,-2.985569477,3.08373189,-120.58139534883722,26.116279069767444,-694.8604651162791,-8203.093023255815,1475.860465116279,2305.0697674418607,3
2024-06-15 12:38:32,0.0720821023,0.4618141353,0.4508185387,1.529894829,-2.985569477,3.08373189,-324.03370786516854,-220.2022471910112,-113.85393258426969,-7874.112359550561,1631.876404494382,2332.550561797753,3
2024-06-15 12:38:32,0.4129449129,-0.9786061049,-1.252273798,3.801992416,-6.940790653,6.787561893,-485.9230769230769,-205.0,-14.84615384615384,-7993.0,1621.7692307692307,1972.6153846153843,3
2024-06-15 12:38:32,0.4129449129,-0.9786061049,-1.252273798,3.801992416,-6.940790653,6.787561893,-225.43529411764703,382.1882352941177,266.8941176470588,-8291.941176470587,1500.164705882353,2072.0470588235294,3
2024-06-15 12:38:32,0.01954768784,0.4276056588,1.20218277,2.731784105,-8.956708908,6.483498096,-6.284090909090935,498.1136363636364,-282.9318181818182,-8195.71590909091,1490.3863636363635,2016.5681818181813,3
2024-06-15 12:38:32,-0.1087340117,-0.2895501256,-0.2223549485,2.928108692,-0.9193734527,4.333505154,-212.06666666666663,-239.29999999999995,-203.14444444444445,-8106.411111111111,1617.0333333333333,2007.2,3
2024-06-15 12:38:32,-0.1087340117,-0.2895501256,-0.2223549485,2.928108692,-0.9193734527,4.333505154,-538.9213483146067,-814.9775280898876,-280.6741573033708,-7864.76404494382,1420.4831460674156,2182.168539325842,3
2024-06-15 12:38:32,-0.2125810981,-1.040914416,-1.02991879,5.767632008,-10.73799419,8.710105896,-864.0891089108911,-223.6435643564356,-312.6930693069307,-8227.118811881188,1613.2277227722773,1971.940594059406,3
2024-06-15 12:38:33,0.2687807083,0.581543684,1.221730471,2.516305923,-7.445967197,7.17063427,-109.58823529411764,454.4705882352941,212.1764705882353,-8224.64705882353,1604.9411764705883,1967.5882352941176,3
2024-06-15 12:38:33,0.2687807083,0.581543684,1.221730471,2.516305923,-7.445967197,7.17063427,-163.36666666666667,505.2,-428.4,-8080.711111111111,1622.088888888889,1995.2666666666669,3
2024-06-15 12:38:33,0.7428121567,-0.3445279896,-0.6499606371,2.961627483,-6.107608318,6.390124321,-279.2134831460674,111.58426966292136,-511.0112359550562,-8008.76404494382,1602.2921348314608,2206.078651685393,3
2024-06-15 12:38:33,0.7428121567,-0.3445279896,-0.6499606371,2.961627483,-6.107608318,6.390124321,-236.42696629213484,-561.6516853932584,-425.5280898876405,-7920.966292134832,1609.3932584269662,2375.8988764044943,3
2024-06-15 12:38:33,0.0109955743,0.03176499158,0.3042109013,4.826710701,-8.779537201,6.912060261,-608.3103448275862,-546.551724137931,-561.8275862068965,-8332.51724137931,1052.6896551724135,1950.448275862069,3
2024-06-15 12:38:33,-0.1429424733,0.5436700583,0.7965682745,2.667140722,-5.746084213,4.204218388,-68.63636363636364,-262.8181818181818,-7.727272727272734,-8222.454545454546,971.0,2318.5,3
2024-06-15 12:38:33,-0.1429424733,0.5436700583,0.7965682745,2.667140722,-5.746084213,4.204218388,202.2022471910112,859.123595505618,-119.2808988764045,-8284.752808988764,971.2921348314608,2327.325842696629,3
2024-06-15 12:38:33,-0.4752531648,0.7318165898,1.14231801,3.651157618,-10.98699188,7.024587631,-452.7,-316.4,122.6,-8210.0,1359.7,2075.9,3
2024-06-15 12:38:33,-0.4752531648,0.7318165898,1.14231801,3.651157618,-10.98699188,7.024587631,-227.0561797752809,306.8089887640449,304.8988764044944,-8100.988764044944,1309.6067415730338,2055.0337078651687,3
2024-06-15 12:38:34,0.1282816976,1.398881435,1.565036774,0.8212111592,-6.007051945,6.098031521,399.4047619047619,671.3809523809524,246.97619047619048,-8241.880952380952,1014.75,2096.8928571428573,3
2024-06-15 12:38:34,0.1282816976,1.398881435,1.565036774,0.8212111592,-6.007051945,6.098031521,368.4666666666667,208.4,-366.73333333333335,-8138.233333333334,1337.2333333333331,1932.8666666666663,3
2024-06-15 12:38:34,0.6731734872,-0.5412266254,-0.3518583775,-0.3399766386,-6.756437302,5.693411827,-245.8,-388.4666666666667,206.0,-8004.6,1612.2,2058.4666666666667,3
2024-06-15 12:38:34,0.08185594529,-1.282817006,-1.342681766,2.049436569,-8.236053467,8.961497307,-613.3333333333333,-584.0,121.0,-8142.666666666667,1561.0,2081.0,3
2024-06-15 12:38:34,0.08185594529,-1.282817006,-1.342681766,2.049436569,-8.236053467,8.961497307,-568.5428571428572,-62.71428571428572,249.8,-8203.457142857143,1187.6857142857143,2156.542857142857,3
2024-06-15 12:38:34,0.04886921868,0.7904596329,0.8491026759,1.606509328,-9.222464561,8.887276649,114.41095890410958,485.5068493150685,35.20547945205482,-8217.986301369863,1196.5342465753424,2097.2876712328766,3
2024-06-15 12:38:34,-0.7428121567,1.056796908,0.9883799553,0.0023942017,-5.604825974,4.757278919,366.5824175824176,145.36263736263737,85.74725274725274,-8161.89010989011,1256.868131868132,2127.164835164835,3
2024-06-15 12:38:34,-0.7428121567,1.056796908,0.9883799553,0.0023942017,-5.604825974,4.757278919,-16.11173184357542,-140.68156424581005,2.044692737430168,-8243.910614525139,1570.2625698324025,2095.5083798882683,3
2024-06-15 12:38:34,0.0720821023,-0.6585127115,-0.8515461683,0.4788403511,-4.71657753,4.304774761,-627.3253012048193,-104.14457831325302,-473.8795180722892,-8096.566265060241,1339.0602409638554,2110.3614457831327,3
2024-06-15 12:38:34,0.0720821023,-0.6585127115,-0.8515461683,0.4788403511,-4.71657753,4.304774761,-1148.032967032967,1239.6593406593406,-621.6483516483516,-8258.934065934065,1173.6923076923076,1705.989010989011,3
2024-06-15 12:38:35,-0.1673770845,-0.9358455539,-1.159422278,2.334346771,-10.68532181,9.260771751,-2621.75,1994.0833333333333,-762.75,-8094.833333333333,1062.0,1386.5,3
2024-06-15 12:38:35,0.08063421398,1.020144939,1.058018565,0.9385270476,-8.975862503,8.532935143,-3586.021739130435,1391.445652173913,-1170.5434782608695,-8196.532608695652,733.3260869565217,1177.195652173913,3
2024-06-15 12:38:35,0.08063421398,1.020144939,1.058018565,0.9385270476,-8.975862503,8.532935143,-4047.3846153846152,1061.5934065934066,-1188.175824175824,-8229.384615384615,928.8571428571428,1032.175824175824,3
2024-06-15 12:38:35,-0.1233947799,0.1747074574,0.1197295859,0.4860229492,-4.323928356,3.517082214,-3792.1744186046512,862.8139534883721,-165.11627906976742,-8969.697674418605,479.1860465116279,1504.2093023255811,3
2024-06-15 12:38:35,0.4337143302,-0.8710938692,-1.330464482,0.7374141216,-5.506663799,5.702988625,-1227.5,-9.47777777777776,825.5444444444445,-8845.122222222222,446.0111111111111,1596.0555555555557,3
2024-06-15 12:38:35,0.4337143302,-0.8710938692,-1.330464482,0.7374141216,-5.506663799,5.702988625,882.1914893617021,-664.0212765957447,1446.276595744681,-8383.63829787234,452.8936170212766,1224.8085106382978,3
2024-06-15 12:38:35,-0.0109955743,0.2455678284,0.2797762752,1.991975784,-6.811503887,7.240066051,2995.065934065934,-1207.043956043956,-1742.6043956043957,-7891.197802197802,785.6593406593406,1373.5164835164835,3
2024-06-15 12:38:35,0.1270599663,1.192408919,1.367116451,0.2418143749,-5.856217384,4.709394932,2230.551724137931,-676.9310344827586,-1369.5172413793102,-7729.310344827586,392.3448275862069,1301.9310344827586,3
2024-06-15 12:38:35,-0.2455678284,-0.5876523852,-0.9334021211,-0.4118026793,-3.462015629,3.541024208,1059.2333333333331,-92.53333333333332,-1703.7333333333331,-8380.566666666668,-6.533333333333331,1005.2,3
2024-06-15 12:38:36,-0.2455678284,-0.5876523852,-0.9334021211,-0.4118026793,-3.462015629,3.541024208,393.876404494382,323.4269662921348,-1191.0898876404494,-8797.76404494382,-175.2134831460674,846.1460674157304,3
2024-06-15 12:38:36,-0.05009094998,-0.9847147465,-1.466076612,4.273650169,-12.67490387,10.82418633,585.6666666666667,-191.0,-451.0,-8765.0,-414.0,856.3333333333334,3
2024-06-15 12:38:36,0.07574728876,1.152091861,1.389107585,1.242590666,-9.478644371,8.453926086,894.6881720430108,-746.3440860215054,191.25806451612905,-7899.440860215053,236.88172043010752,1522.010752688172,3
2024-06-15 12:38:36,0.07574728876,1.152091861,1.389107585,1.242590666,-9.478644371,8.453926086,610.8953488372093,-483.953488372093,-235.7674418604651,-8121.174418604651,274.8255813953488,1700.2209302325582,3
2024-06-15 12:38:36,0.1050688252,0.2223549485,0.290771842,-0.09097966552,-4.165910721,2.372653961,906.010989010989,-110.24175824175823,-157.0879120879121,-8584.736263736264,-340.9230769230769,1416.868131868132,3
2024-06-15 12:38:36,0.3579670191,-1.243721604,-1.561371565,0.2753331959,-4.994304657,4.707000732,503.1162790697674,-1194.6279069767445,498.953488372093,-8420.093023255815,294.66279069767444,2122.5697674418607,3
2024-06-15 12:38:36,0.125838235,0.2785545588,0.2076941878,2.346317768,-13.57751751,8.145073891,-121.5632183908046,-715.7931034482758,-23.781609195402297,-8019.126436781609,448.0574712643678,2547.2528735632186,3
2024-06-15 12:38:36,0.125838235,0.2785545588,0.2076941878,2.346317768,-13.57751751,8.145073891,-352.5263157894737,-581.8947368421052,-540.4315789473684,-7810.0,-10.32631578947371,2295.294736842105,3
2024-06-15 12:38:36,0.1551597714,1.31458199,1.456302762,1.048660398,-7.503427982,6.497863293,20.60714285714285,-123.11904761904762,1.7261904761904816,-8345.630952380952,-392.4880952380952,1772.047619047619,3
2024-06-15 12:38:37,0.1295034289,-0.3115412891,-0.4141666293,0.8427590132,-4.781220913,2.662352324,-86.12359550561797,141.92134831460675,425.5393258426966,-8172.393258426966,-60.49438202247188,2026.1797752808989,3
2024-06-15 12:38:37,0.1295034289,-0.3115412891,-0.4141666293,0.8427590132,-4.781220913,2.662352324,-784.7727272727273,-217.77272727272725,-196.6818181818182,-8474.0,-51.54545454545455,2414.954545454545,3
2024-06-15 12:38:37,-0.09651670605,-1.908343077,-2.653598547,2.707842112,-5.487510204,7.211335659,-466.46590909090907,-364.2840909090909,-226.875,-7980.0,-165.63636363636363,2240.7613636363635,3
2024-06-15 12:38:37,-0.2174680233,0.6035348773,1.141096234,4.364629745,-9.43315506,7.043741226,-26.65116279069768,487.13953488372096,21.11627906976744,-8419.093023255815,10.976744186046512,2011.441860465116,3
2024-06-15 12:38:37,0.3310889602,1.114218235,1.461189628,0.4955997467,-4.735731125,3.426102638,-591.7826086956521,469.4347826086956,92.52173913043478,-8383.521739130434,107.2608695652174,2323.782608695652,3
2024-06-15 12:38:37,0.3310889602,1.114218235,1.461189628,0.4955997467,-4.735731125,3.426102638,-400.0,183.9,-291.2,-7677.6,-547.4,2049.1,3
2024-06-15 12:38:37,0.4862487316,-0.8283332586,-1.018923283,0.4022258818,-4.647145271,3.809175014,332.0,773.4117647058823,-359.8235294117647,-8444.411764705883,-576.1176470588235,1357.8235294117646,3
2024-06-15 12:38:37,-0.2944370508,-0.6133087277,-0.9688322544,5.195417881,-12.05480576,10.91277122,665.3333333333334,689.0,514.5555555555555,-8703.333333333334,-391.44444444444446,1106.7777777777778,3
2024-06-15 12:38:37,-0.2944370508,-0.6133087277,-0.9688322544,5.195417881,-12.05480576,10.91277122,743.8823529411765,-41.23529411764706,1124.8235294117646,-8549.529411764706,99.41176470588236,1668.0588235294117,3
2024-06-15 12:38:38,-0.08552113175,1.15575707,1.511280656,1.865083098,-9.797073364,8.410830498,457.91011235955057,-481.7640449438202,1072.4831460674156,-8175.044943820225,629.0898876404494,1884.056179775281,3
2024-06-15 12:38:38,-0.08552113175,1.15575707,1.511280656,1.865083098,-9.797073364,8.410830498,-36.888888888888886,-74.06666666666666,-402.2111111111111,-8233.522222222222,-51.27777777777778,1399.2444444444443,3
2024-06-15 12:38:38,-0.09651670605,0.1050688252,0.5998696685,1.26653266,-3.023876667,2.365471363,-41.80898876404494,165.68539325842696,-69.16853932584274,-8329.640449438202,337.0561797752809,973.8426966292136,3
2024-06-15 12:38:38,0.4850270152,-1.284038782,-1.821600199,0.7350199223,-4.589684486,5.746084213,-294.4022988505747,-339.3103448275862,191.02298850574712,-8560.19540229885,791.8735632183908,1889.2183908045977,3
2024-06-15 12:38:38,0.4850270152,-1.284038782,-1.821600199,0.7350199223,-4.589684486,5.746084213,-625.9106145251396,-568.9162011173185,-79.8268156424581,-8230.541899441341,1001.195530726257,1729.7709497206704,3
2024-06-15 12:38:38,-0.1123992056,0.3909537494,0.4386012554,3.586514235,-12.49294472,7.905653954,-736.5251396648044,-485.1173184357542,-206.64245810055863,-7972.441340782123,696.7262569832402,1700.7206703910615,3
2024-06-15 12:38:38,0.2052507252,1.10933125,1.230282545,1.242590666,-4.431667328,4.235342979,-248.3670212765957,-503.9148936170213,-619.1382978723404,-8305.803191489362,-29.606382978723403,1446.771276595745,3
2024-06-15 12:38:38,0.2052507252,1.10933125,1.230282545,1.242590666,-4.431667328,4.235342979,-87.1968085106383,-384.7659574468085,-362.75531914893617,-8405.271276595744,-28.54255319148936,1551.5585106382978,3
2024-06-15 12:38:38,-0.2431243658,-0.2138028294,-0.770911932,1.130063176,-4.888959885,4.345476151,-84.58024691358025,-195.03703703703704,328.2345679012345,-8538.197530864198,410.0123456790124,1659.679012345679,3
2024-06-15 12:38:38,-0.2431243658,-0.2138028294,-0.770911932,1.130063176,-4.888959885,4.345476151,-430.3375,-443.125,115.7,-7918.825,746.925,2103.8875,3
2024-06-15 12:38:39,-0.09040805697,-0.4153883755,-0.4178318381,3.744531393,-12.49055004,10.36928749,-803.3655913978495,0.5161290322580498,-1210.462365591398,-8115.021505376344,6.182795698924736,1548.010752688172,3
2024-06-15 12:38:39,0.2015855312,1.369559884,1.593136549,1.608903527,-8.705317497,7.735665798,-382.0506329113924,-116.50632911392404,-167.08860759493672,-8720.45569620253,-346.9113924050633,1614.9240506329113,3
2024-06-15 12:38:39,0.2015855312,1.369559884,1.593136549,1.608903527,-8.705317497,7.735665798,-377.0689655172414,-334.0689655172414,460.82758620689657,-8718.48275862069,353.48275862068965,1796.344827586207,3
2024-06-15 12:38:39,0.2211332172,0.3518583775,0.4642575979,0.9911994934,-3.612850428,3.167528868,-680.1176470588235,-1033.6470588235295,560.9411764705883,-8437.882352941177,428.7058823529412,2475.5882352941176,3
2024-06-15 12:38:39,0.4972442985,-1.786170006,-1.765400529,0.316034615,-3.900154591,5.360617638,-672.6923076923077,-486.5384615384616,-240.30769230769232,-8016.692307692308,319.7692307692308,2411.846153846154,3
2024-06-15 12:38:39,0.4972442985,-1.786170006,-1.765400529,0.316034615,-3.900154591,5.360617638,-188.5421686746988,64.86746987951807,340.8795180722892,-8507.951807228916,672.3373493975904,1970.265060240964,3
2024-06-15 12:38:39,0.03665191308,0.2675589919,0.5766568184,2.746149302,-10.00776291,7.479485989,-774.2222222222222,289.6666666666667,1522.6666666666667,-8115.111111111111,937.8888888888888,2181.8888888888887,3
2024-06-15 12:38:39,0.03665191308,0.2675589919,0.5766568184,2.746149302,-10.00776291,7.479485989,-1389.067415730337,-260.03370786516854,674.370786516854,-7742.067415730337,1430.9887640449438,2627.1573033707864,3
2024-06-15 12:38:39,0.4227187634,1.227839112,1.431868076,0.9959878922,-5.638344765,5.181052685,-1709.8181818181818,-548.2272727272727,-153.95454545454544,-7733.045454545455,1005.9545454545456,2546.681818181818,3
2024-06-15 12:38:39,-0.37751472,-0.5106833577,-1.130100727,1.537077546,-5.023035049,3.957615376,-1302.6483516483518,188.7912087912088,-916.043956043956,-8490.978021978022,594.5934065934066,2375.4395604395604,3
2024-06-15 12:38:40,-0.283441484,-0.1209513173,-0.7855727077,4.709394932,-15.06910515,10.84812832,-1036.9431818181818,-177.98863636363637,674.7386363636364,-7859.852272727273,1908.636363636364,2743.0454545454545,3
2024-06-15 12:38:40,0.1221730486,1.571145415,1.777617812,0.8930372596,-8.671798706,7.230489254,-1560.0,-610.6,-454.6,-7774.0,1515.4,2916.0,3
2024-06-15 12:38:40,0.1221730486,1.571145415,1.777617812,0.8930372596,-8.671798706,7.230489254,-866.0574712643678,120.3103448275862,-1165.287356321839,-8513.402298850575,184.71264367816093,2262.3793103448274,3
2024-06-15 12:38:40,0.04764748737,-0.2076941878,-0.3848451078,1.022324085,-3.509899616,2.578555346,-362.23333333333335,74.56666666666666,-223.43333333333328,-8283.4,349.3666666666667,2308.4666666666667,3
2024-06-15 12:38:40,0.04764748737,-0.2076941878,-0.3848451078,1.022324085,-3.509899616,2.578555346,508.0,-547.2,1236.0666666666666,-7975.533333333334,1696.6,2889.6666666666665,3
2024-06-15 12:38:40,0.5852088928,-1.666440368,-2.214997292,2.554613113,-7.189787865,7.888894558,-500.79069767441865,-452.6744186046512,11.883720930232585,-7711.441860465116,1819.2790697674416,3181.046511627907,3
2024-06-15 12:38:40,-0.9443976879,0.8185594082,1.241278172,1.881842494,-10.08916569,7.094019413,-1089.8461538461538,-391.5274725274725,-895.4835164835165,-7660.824175824176,915.3186813186812,2720.197802197802,3
2024-06-15 12:38:40,-0.9443976879,0.8185594082,1.241278172,1.881842494,-10.08916569,7.094019413,324.98823529411766,276.7529411764706,-119.08235294117648,-8205.564705882352,798.3176470588236,2329.447058823529,3
2024-06-15 12:38:40,0.003665191587,0.1514945775,0.6658431292,2.097320795,-3.222595453,3.356670856,719.3296703296703,345.20879120879124,910.6703296703296,-8256.263736263736,1305.901098901099,2528.5054945054944,3
2024-06-15 12:38:41,0.6157521605,-0.7990117669,-1.143539786,1.125274777,-8.236053467,6.428431511,247.125,-404.0568181818182,203.6136363636364,-8007.738636363636,1887.534090909091,3032.431818181818,3
2024-06-15 12:38:41,0.6157521605,-0.7990117669,-1.143539786,1.125274777,-8.236053467,6.428431511,-738.7640449438202,-234.59550561797752,-1409.1460674157304,-7973.932584269663,723.9325842696629,2720.303370786517,3
2024-06-15 12:38:41,-0.03787364438,0.5290092826,0.538783133,1.82198751,-8.094796181,6.248866558,-507.0,-220.66666666666663,-1455.3333333333333,-8030.0,652.6666666666666,2744.0,3
2024-06-15 12:38:41,-0.03787364438,0.5290092826,0.538783133,1.82198751,-8.094796181,6.248866558,46.47826086956522,282.95652173913044,288.95652173913044,-8091.0,774.2608695652174,2647.086956521739,3
2024-06-15 12:38:41,0.08429940045,-0.1221730486,-0.2113593817,0.6823474765,-7.058106422,3.845088005,160.1829268292683,82.28048780487805,400.7439024390244,-8168.451219512195,1346.7560975609756,3058.7682926829266,3
2024-06-15 12:38:41,-0.3054326177,-0.00244346098,0.2394591719,0.7062895298,-9.950302124,6.531382084,-512.8089887640449,-161.8426966292135,-224.35955056179776,-7642.887640449439,1594.6404494382025,3331.8314606741574,3
2024-06-15 12:38:41,-0.3054326177,-0.00244346098,0.2394591719,0.7062895298,-9.950302124,6.531382084,-896.2727272727273,318.27272727272725,-1533.8181818181818,-8182.5,552.3636363636364,2850.954545454545,3
2024-06-15 12:38:41,-0.1307251602,0.01466076635,-0.228463605,1.170764685,-6.847416878,4.86741209,-70.5483870967742,582.8709677419355,-637.236559139785,-8506.494623655914,564.1720430107526,2368.1075268817203,3
2024-06-15 12:38:41,0.1001819,-0.287106663,-0.7941248417,1.259350061,-8.664615631,6.306327343,641.4651162790698,47.59302325581393,1014.8604651162792,-8117.244186046511,1098.9883720930234,2718.313953488372,3
2024-06-15 12:38:41,0.1001819,-0.287106663,-0.7941248417,1.259350061,-8.664615631,6.306327343,179.1,-302.1,149.3,-7617.7,1490.9,3415.9,3
2024-06-15 12:38:42,-0.1404990107,0.2736676335,0.7648032904,0.06224924326,-9.402029991,5.219359875,-877.4418604651163,-71.13953488372093,-1113.046511627907,-8036.46511627907,962.1162790697674,2849.046511627907,3
2024-06-15 12:38:42,0.0720821023,0.145385921,-0.4691445231,0.2920926213,-8.70771122,6.002263546,-515.7368421052631,114.21052631578948,-1131.842105263158,-8379.631578947368,578.5263157894736,2365.0526315789475,3
2024-06-15 12:38:42,0.0720821023,0.145385921,-0.4691445231,0.2920926213,-8.70771122,6.002263546,797.3414634146342,-212.52439024390245,583.7926829268292,-8170.475609756098,555.3048780487804,2595.0243902439024,3
2024-06-15 12:38:42,0.0354301855,0.2675589919,0.07086037099,0.248996973,-15.78257751,3.406949043,-34.72727272727275,-13.81818181818182,776.2727272727273,-7806.454545454545,1470.5454545454545,3243.454545454545,3
2024-06-15 12:38:42,0.0354301855,0.2675589919,0.07086037099,0.248996973,-15.78257751,3.406949043,-980.3720930232558,441.2906976744186,-152.48837209302326,-7710.790697674419,1067.639534883721,3182.1976744186045,3
2024-06-15 12:38:42,0.106290549,0.6096435189,-0.3677408695,0.9864110947,-8.358158112,2.887407303,-315.1111111111111,850.4444444444445,-997.2222222222222,-8423.777777777777,517.2222222222222,2474.555555555556,3
2024-06-15 12:38:42,1.47707212,-0.1392772794,0.01466076635,1.11569798,-6.983886242,6.560112476,496.7931034482759,289.9655172413793,549.448275862069,-8481.344827586207,497.2413793103448,1956.793103448276,3
2024-06-15 12:38:42,1.47707212,-0.1392772794,0.01466076635,1.11569798,-6.983886242,6.560112476,-51.23333333333335,229.61111111111111,502.8444444444444,-8255.222222222223,1164.3555555555556,2623.777777777778,3
2024-06-15 12:38:42,0.3885102868,0.283441484,-1.047023058,0.8762778044,-6.39251852,7.441178799,-725.2,55.0,-877.1555555555556,-7989.7555555555555,977.3111111111112,2483.488888888889,3
2024-06-15 12:38:42,0.3885102868,0.283441484,-1.047023058,1.031900883,-6.399701118,6.126761913,-357.5393258426966,-33.96629213483146,-1079.1797752808989,-8063.4157303370785,428.4719101123595,2202.7865168539324,3
2024-06-15 12:38:43,0.9822713137,-0.7599163651,0.5436700583,1.031900883,-6.399701118,6.126761913,51.48314606741573,148.1011235955056,84.95505617977528,-8401.258426966293,520.8988764044943,2045.247191011236,3
2024-06-15 12:38:43,-0.0171042271,1.133765936,-0.9358455539,1.707065821,-12.18169785,6.957550049,172.4943820224719,-303.2247191011236,696.2921348314607,-8189.76404494382,706.1348314606741,2418.9775280898875,3
2024-06-15 12:38:43,-0.0171042271,1.133765936,-0.9358455539,1.707065821,-12.18169785,6.957550049,-194.35227272727275,-516.4431818181818,31.82954545454544,-7981.534090909091,1029.7613636363635,2796.806818181818,3
2024-06-15 12:38:43,-0.05986479297,-0.2663372457,0.0,-0.6177040339,-0.3998316824,8.882488251,-443.3666666666667,-185.77777777777777,-564.1222222222223,-8032.177777777778,617.8555555555556,2694.088888888889,3
2024-06-15 12:38:43,0.4605923891,-0.02199114859,0.00122173049,4.302380562,-8.451532364,8.865729332,7.067415730337075,525.2247191011236,-871.5280898876405,-8178.651685393258,541.1910112359551,2301.123595505618,3
2024-06-15 12:38:43,0.4605923891,-0.02199114859,0.00122173049,4.302380562,-8.451532364,8.865729332,652.3636363636364,880.7045454545455,425.8636363636364,-8361.204545454546,215.97727272727275,2147.840909090909,3
2024-06-15 12:38:43,0.3017674387,0.1759291887,0.1857030392,2.85867691,-5.813121796,8.947132111,-6.897727272727273,-250.1818181818182,-255.45454545454544,-8006.215909090909,1497.875,2728.568181818182,3
2024-06-15 12:38:43,0.3017674387,0.1759291887,0.1857030392,2.85867691,-5.813121796,8.947132111,-736.7272727272727,-368.3636363636364,-814.8181818181818,-7912.363636363636,817.0909090909091,2506.0,3
2024-06-15 12:38:43,0.06963863969,-0.1319468915,-0.3799581826,1.965639591,-6.277596951,7.680599213,417.3908045977012,-535.3678160919541,-988.2528735632184,-8513.563218390804,575.264367816092,2369.528735632184,3
2024-06-15 12:38:44,0.06963863969,-0.1319468915,-0.3799581826,1.965639591,-6.277596951,7.680599213,541.6373626373627,-225.8901098901099,286.2637362637363,-8298.274725274725,929.6483516483516,2438.5824175824177,3
2024-06-15 12:38:44,-0.06963863969,0.2797762752,0.5400048494,2.93529129,-6.229712963,7.848193169,216.974025974026,-19.610389610389603,78.72727272727273,-8031.805194805195,1339.987012987013,2923.883116883117,3
2024-06-15 12:38:44,0.6951646209,-0.1392772794,-0.5485569835,0.9552865028,-2.212242365,9.878476143,-100.82978723404256,-175.85106382978722,-99.12765957446808,-7833.340425531915,1349.2978723404256,3009.36170212766,3
2024-06-15 12:38:44,0.6951646209,-0.1392772794,-0.5485569835,0.9552865028,-2.212242365,9.878476143,-729.5,-101.7093023255814,-873.9651162790698,-7932.023255813953,681.1976744186047,2657.0232558139533,3
2024-06-15 12:38:44,-1.523497939,0.9211847782,-0.8564330935,4.395754337,-7.196970463,6.224924564,-354.6067415730337,367.3707865168539,-478.2022471910112,-8428.056179775282,152.8988764044944,2307.1348314606744,3
