Timestamp,Gyro_x_x,Gyro_y_x,Gyro_z_x,Acc_x_x,Acc_y_x,Acc_z_x,Gyro_x_y,Gyro_y_y,Gyro_z_y,Acc_x_y,Acc_y_y,Acc_z_y,combined_action_num
2024-06-15 12:12:06,0.05864306539,0.03176499158,0.008552113548,1.45088625,1.017535686,9.464279175,297.58620689655174,-292.50574712643675,-171.35632183908046,-7630.0344827586205,2991.5057471264367,1256.103448275862,2
2024-06-15 12:12:07,-0.09040805697,0.01832595654,0.05131268129,1.192312479,0.4261679053,9.88805294,51.66666666666666,227.9247311827957,194.25806451612905,-7746.634408602151,3114.52688172043,1377.6881720430108,2
2024-06-15 12:12:07,0.008552113548,0.0293215327,-0.04764748737,1.302445769,0.4692635238,9.761159897,-31.666666666666657,7.494623655913983,257.1612903225806,-7911.688172043011,3207.537634408602,1378.763440860215,2
2024-06-15 12:12:07,0.008552113548,0.0293215327,-0.04764748737,1.302445769,0.4692635238,9.761159897,-205.2162162162162,6.675675675675677,-243.64864864864865,-7757.7027027027025,3037.675675675676,1202.027027027027,2
2024-06-15 12:12:07,-0.009773843922,-0.01588249579,0.006108652335,1.170764685,0.4261679053,9.713275909,-191.5555555555556,341.22222222222223,49.0,-7614.111111111111,3157.3888888888887,1333.0,2
2024-06-15 12:12:07,-0.009773843922,-0.01588249579,0.006108652335,1.170764685,0.4261679053,9.713275909,-294.53846153846155,44.76923076923077,-321.84615384615387,-7958.153846153846,2992.6153846153848,1319.6923076923076,2
2024-06-15 12:12:07,-0.1551597714,0.08185594529,-0.07696902007,1.355118155,0.2202665508,10.02931118,-189.52272727272725,-37.57954545454545,-208.5681818181818,-7884.772727272727,2987.375,1330.8295454545455,2
2024-06-15 12:12:07,-2.320066214,0.5962044597,-0.7330383062,3.42131424,0.7182605267,7.400477409,357.2289156626506,-149.8433734939759,-272.56626506024094,-7991.3373493975905,2976.5180722891564,1207.1686746987953,2
2024-06-15 12:12:07,-2.320066214,0.5962044597,-0.7330383062,3.42131424,0.7182605267,7.400477409,623.1724137931035,-594.1494252873563,-385.6666666666666,-7947.379310344828,2671.1609195402298,1267.551724137931,2
2024-06-15 12:12:07,-4.734205723,0.967610538,-1.436755061,-0.06703764945,-8.518569946,6.380547523,730.8863636363636,-323.375,-295.45454545454544,-7756.113636363636,2535.9204545454545,1347.7386363636365,2
2024-06-15 12:12:07,-4.734205723,0.967610538,-1.436755061,-1.309628367,-12.30859089,2.832340717,789.4,-192.85,34.95,-7576.5,2611.6,1349.6,2
2024-06-15 12:12:08,-3.295007229,0.3677408695,0.3237585723,-1.309628367,-12.30859089,2.832340717,858.2888888888889,-21.183333333333337,-0.0499999999999971,-7593.166666666667,2698.266666666667,1391.8222222222223,2
2024-06-15 12:12:08,-0.1380555481,-0.07330382615,0.8564330935,-1.350329757,-9.770736694,2.066195965,-250.0,301.3809523809524,532.6666666666666,-7947.714285714285,3301.809523809524,1173.3809523809523,2
2024-06-15 12:12:08,-0.1380555481,-0.07330382615,0.8564330935,-1.350329757,-9.770736694,2.066195965,-377.8222222222222,31.51111111111112,153.75555555555556,-7714.822222222222,3252.0666666666666,1270.9555555555555,2
2024-06-15 12:12:08,0.7440338731,-0.01832595654,0.09896016866,-0.9792284966,-8.724471092,2.30561614,-282.6235294117647,-87.03529411764706,235.7764705882353,-7381.494117647058,3229.423529411765,1252.3647058823528,2
2024-06-15 12:12:08,0.1197295859,0.01588249579,-0.1014036313,-2.209848166,-9.861717224,1.800439715,-268.86301369863014,-36.52054794520548,47.02739726027397,-7404.917808219178,3231.849315068493,1237.13698630137,2
2024-06-15 12:12:08,0.1197295859,0.01588249579,-0.1014036313,-2.209848166,-9.861717224,1.800439715,-259.958904109589,69.64383561643837,288.8082191780822,-7379.575342465753,3227.054794520548,1196.041095890411,2
2024-06-15 12:12:08,-0.3103195429,-0.1869247705,0.08429940045,-1.290474772,-10.09874249,2.956839085,189.8,183.34117647058824,371.964705882353,-7765.505882352942,3647.9764705882353,1339.129411764706,2
2024-06-15 12:12:08,-0.17715092,-0.08552113175,0.02076941915,-1.644816518,-8.84896946,2.85867691,-105.6,-134.0,-43.4,-7504.8,3890.6,1245.2,2
2024-06-15 12:12:08,-0.17715092,-0.08552113175,0.02076941915,-1.644816518,-8.84896946,2.85867691,-280.16129032258067,-49.29032258064516,36.516129032258064,-7371.193548387097,3652.83870967742,1246.0,2
2024-06-15 12:12:08,0.3885102868,-0.1295034289,0.1551597714,-1.532289028,-9.234436035,2.353500366,-277.75,-9.0,110.25,-7376.0,3649.75,1222.75,2
2024-06-15 12:12:09,0.3885102868,-0.1295034289,0.1551597714,-1.532289028,-9.234436035,2.353500366,311.66666666666663,1.5333333333333314,307.8,-7662.4,3526.266666666667,1323.5333333333333,2
2024-06-15 12:12:09,0.1123992056,-0.06475171447,0.06108652428,-1.912967205,-8.999804497,2.758120298,-37.72222222222222,-217.5,55.27777777777778,-7741.111111111111,3758.3888888888887,1260.1666666666667,2
2024-06-15 12:12:09,0.04520402849,0.004886921961,0.06230825558,-1.719036818,-9.722852707,2.952050686,2.551724137931034,-175.51724137931035,-212.6896551724137,-7529.0344827586205,3851.689655172414,1524.8620689655172,2
2024-06-15 12:12:09,0.04520402849,0.004886921961,0.06230825558,-1.719036818,-9.722852707,2.952050686,-191.4,50.6,44.4,-7321.333333333333,3622.8,1320.8666666666666,2
2024-06-15 12:12:09,-0.196698606,-0.5009095073,-0.04764748737,-2.018311977,-9.208099365,3.277662039,-79.95555555555555,191.0888888888889,-46.57777777777778,-7496.355555555556,3572.2444444444445,1243.1333333333334,2
2024-06-15 12:12:09,-0.3127630055,-0.8100073338,0.2028072625,-1.55862534,-8.6957407,2.691082716,-149.41176470588235,-248.94117647058823,-115.28235294117648,-7368.423529411764,3757.1294117647058,1409.364705882353,2
2024-06-15 12:12:09,-0.3127630055,-0.8100073338,0.2028072625,-1.55862534,-8.6957407,2.691082716,-183.0,150.60000000000002,-183.6,-7388.0,3651.0,1292.0,2
2024-06-15 12:12:09,-0.6976081133,-1.397659659,-0.07941248268,-1.740584612,-10.59194851,2.331952572,-34.298850574712645,58.32183908045977,61.54022988505747,-7618.402298850575,3828.19540229885,1191.344827586207,2
2024-06-15 12:12:09,-0.6976081133,-1.397659659,-0.07941248268,-1.740584612,-10.59194851,2.331952572,38.0,-288.0,-189.66666666666663,-7509.666666666667,3839.8333333333335,1239.3333333333333,2
2024-06-15 12:12:09,0.1307251602,-1.023810148,0.5998696685,-1.953668594,-10.82897472,1.953668594,115.6067415730337,289.97752808988764,-6.943820224719104,-7332.449438202248,3606.337078651685,1378.202247191011,2
2024-06-15 12:12:10,0.4728097022,-0.4080579877,0.3066543639,-1.039083481,-9.555258751,2.63601613,-66.16981132075472,20.9622641509434,-264.6981132075472,-7420.207547169812,3764.2075471698113,1239.5849056603774,2
2024-06-15 12:12:10,0.4728097022,-0.4080579877,0.3066543639,-1.039083481,-9.555258751,2.63601613,-105.16352201257862,-180.29559748427675,-187.9685534591195,-7360.459119496855,3871.125786163522,1225.748427672956,2
2024-06-15 12:12:10,-0.2382374406,-0.5167919993,-0.1747074574,-2.56897831,-9.045293808,2.647987127,45.62222222222222,30.68888888888889,-213.7111111111111,-7481.733333333334,3639.266666666667,1362.7777777777778,2
2024-06-15 12:12:10,-1.883908391,-0.4007275999,0.3689626157,-0.5626373887,-11.01093388,5.530605793,-59.05882352941177,-22.529411764705884,-178.76470588235293,-7618.941176470588,3922.705882352941,1186.529411764706,2
2024-06-15 12:12:10,-1.883908391,-0.4007275999,0.3689626157,-0.5626373887,-11.01093388,5.530605793,-39.6875,-185.9375,-344.0,-7419.9375,3690.875,1121.0625,2
2024-06-15 12:12:10,0.2101376504,-0.8698720932,0.2858849466,-0.2082955539,-9.643844604,3.325546265,39.888888888888886,-361.6,-115.06666666666666,-7504.022222222222,4136.444444444444,1369.6888888888889,2
2024-06-15 12:12:10,0.5192354321,0.3115412891,-0.106290549,0.390254885,-8.190564156,3.658340216,-44.310344827586206,-140.58620689655172,-59.20689655172413,-7515.827586206897,3539.310344827586,1346.344827586207,2
2024-06-15 12:12:10,0.08796459436,0.5009095073,-0.2235766798,-1.865083098,-9.260771751,3.763684988,24.12359550561797,30.415730337078628,56.47191011235955,-7330.820224719101,3747.52808988764,1389.5280898876404,2
2024-06-15 12:12:10,0.08796459436,0.5009095073,-0.2235766798,-1.865083098,-9.260771751,3.763684988,-350.65909090909093,-5.840909090909091,-246.6818181818182,-7654.818181818182,4000.409090909091,1283.3636363636365,2
2024-06-15 12:12:11,0.1905899495,0.1905899495,-0.1331686229,-1.690306425,-9.117119789,3.734954596,-516.448275862069,-321.4022988505747,-833.9425287356322,-7730.620689655172,3816.2528735632186,1378.0804597701149,2
2024-06-15 12:12:11,0.2028072625,0.08063421398,-0.03787364438,-1.673547029,-8.573636055,3.722983599,-319.4090909090909,-221.5568181818182,-692.5568181818182,-7349.545454545455,3474.2954545454545,1181.4772727272727,2
2024-06-15 12:12:11,0.2028072625,0.08063421398,-0.03787364438,-1.673547029,-8.573636055,3.722983599,-503.6404494382023,12.067415730337082,-439.2696629213483,-7334.157303370786,3372.516853932584,1336.9101123595506,2
2024-06-15 12:12:11,-0.09407325089,0.04520402849,0.01221730467,-1.673547029,-9.701305389,3.761290789,-878.5604395604396,406.6483516483517,-428.8681318681319,-7361.208791208791,3370.802197802198,1586.175824175824,2
2024-06-15 12:12:11,-0.09407325089,0.04520402849,0.01221730467,-1.673547029,-9.701305389,3.761290789,-2353.247058823529,1185.2941176470588,269.3647058823529,-7335.84705882353,3192.505882352941,1375.152941176471,2
2024-06-15 12:12:11,-0.01588249579,0.1233947799,0.03420845419,-1.436521053,-9.464279175,3.749319792,-2891.6516853932585,1541.4719101123596,551.2134831460675,-7416.314606741573,2867.94382022472,1253.191011235955,2
2024-06-15 12:12:11,0.2541199327,-0.06841690838,0.09773843735,-1.659181833,-8.908824921,3.397372246,-2248.340909090909,1187.340909090909,-30.45454545454544,-7676.590909090909,2896.2727272727275,1049.8863636363635,2
2024-06-15 12:12:11,0.2541199327,-0.06841690838,0.09773843735,-1.659181833,-8.908824921,3.397372246,-1723.1048951048951,638.034965034965,149.54545454545453,-7858.048951048951,3029.909090909091,1194.2517482517485,2
2024-06-15 12:12:11,-0.0109955743,-0.003665191587,0.1942551434,-2.238578558,-9.490615845,4.666299343,-851.7078651685393,-83.96629213483146,-254.123595505618,-7857.08988764045,3256.7640449438204,1029.8539325842696,2
2024-06-15 12:12:11,-0.09162978828,-0.03298672289,0.01588249579,-1.663970232,-8.781931877,4.635174274,-219.438202247191,-249.42696629213484,489.8314606741573,-7900.033707865168,3325.011235955056,1210.8539325842696,2
2024-06-15 12:12:12,-0.09162978828,-0.03298672289,0.01588249579,-1.663970232,-8.781931877,4.635174274,1.1689189189189189,77.24324324324324,193.4797297297297,-7553.506756756757,3677.8783783783774,1222.608108108108,2
2024-06-15 12:12:12,-0.02199114859,-0.04642575979,-0.00122173049,-2.04464817,-8.762778282,4.594472885,1.8445945945945947,-49.783783783783775,-12.601351351351354,-7555.533783783784,3641.391891891892,1205.0405405405406,2
2024-06-15 12:12:12,-0.02199114859,-0.04642575979,-0.00122173049,-2.04464817,-8.762778282,4.594472885,-156.27777777777777,134.88888888888889,32.888888888888886,-7705.111111111111,3387.9444444444443,1272.5,2
2024-06-15 12:12:12,-0.03787364438,-0.1661553532,0.05986479297,-1.843535304,-8.779537201,4.556165695,-281.2105263157895,325.7894736842105,-43.47368421052632,-7754.263157894737,3469.736842105264,1005.2105263157896,2
2024-06-15 12:12:12,-0.02076941915,-0.1857030392,0.1038470939,-1.814804912,-8.741230011,4.467580318,-297.2758620689655,58.34482758620689,-45.172413793103445,-7703.758620689655,3519.448275862069,1091.655172413793,2
2024-06-15 12:12:12,-0.02076941915,-0.1857030392,0.1038470939,-1.814804912,-8.741230011,4.467580318,-315.3736263736264,215.5164835164835,-105.78021978021978,-7694.186813186813,3650.593406593407,1256.857142857143,2
2024-06-15 12:12:12,-0.1136209369,-0.2223549485,0.1087340117,-1.790862918,-8.789113998,4.71657753,36.87912087912088,-91.0769230769231,-102.92307692307692,-7389.626373626374,3681.5274725274726,1341.362637362637,2
2024-06-15 12:12:12,-0.01221730467,-0.2138028294,0.1014036313,-1.482010841,-8.741230011,4.781220913,-304.04545454545456,299.59090909090907,-118.57954545454544,-7733.170454545455,3470.1022727272725,1017.7613636363636,2
2024-06-15 12:12:12,-0.01221730467,-0.2138028294,0.1014036313,-1.482010841,-8.741230011,4.781220913,-227.3846153846154,-27.43956043956044,114.56043956043956,-7685.582417582417,3509.923076923077,1008.5274725274726,2
2024-06-15 12:12:12,0.02443460934,-0.1087340117,0.05497787148,-1.462857246,-8.621520042,4.730942726,23.93103448275862,108.22988505747126,89.34482758620689,-7401.413793103448,3649.689655172414,993.7931034482758,2
2024-06-15 12:12:13,0.02443460934,-0.1087340117,0.05497787148,-1.462857246,-8.621520042,4.730942726,179.69662921348316,-69.32584269662922,93.8988764044944,-7697.348314606742,3622.123595505618,1003.8089887640448,2
2024-06-15 12:12:13,0.03909537569,0.008552113548,0.0109955743,-1.89860189,-8.583212852,4.683058739,251.34065934065933,-380.4945054945055,-100.3076923076923,-7400.791208791209,3471.989010989011,1004.054945054945,2
2024-06-15 12:12:13,-0.04276056588,-0.1514945775,0.03909537569,-2.272097349,-8.55448246,4.319139957,528.4642857142857,-421.8928571428571,194.8571428571429,-7325.642857142857,3536.285714285714,971.25,2
2024-06-15 12:12:13,-0.04276056588,-0.1514945775,0.03909537569,-2.272097349,-8.55448246,4.319139957,380.3,-338.1066666666667,332.06666666666666,-7322.806666666666,3513.08,977.1266666666668,2
2024-06-15 12:12:13,-0.1844813079,-0.4153883755,0.1649336219,-1.922544003,-8.748413086,4.438849926,-41.696969696969695,-566.8181818181819,271.7575757575757,-7323.545454545455,3550.5151515151515,1342.5151515151515,2
2024-06-15 12:12:13,-0.0171042271,-0.2761110961,0.145385921,-1.434126854,-8.767566681,4.57531929,538.320987654321,110.39506172839506,429.7160493827161,-7322.3456790123455,4072.358024691358,1172.6049382716049,2
2024-06-15 12:12:13,-0.0171042271,-0.2761110961,0.145385921,-1.434126854,-8.767566681,4.57531929,-81.21917808219177,-382.0958904109589,39.136986301369866,-7525.986301369863,3794.561643835617,1208.2465753424658,2
2024-06-15 12:12:13,-0.1050688252,-0.2028072625,0.09773843735,-1.74776721,-8.36294651,4.359841347,231.7945205479452,-367.027397260274,74.75342465753425,-7492.424657534247,3770.5890410958905,1212.3561643835617,2
2024-06-15 12:12:13,-0.1050688252,-0.2028072625,0.09773843735,-1.74776721,-8.36294651,4.359841347,-56.88372093023256,56.86046511627907,84.46511627906978,-7451.604651162791,3814.883720930232,1354.0,2
2024-06-15 12:12:13,-0.1734857261,-0.2309070677,0.1368338168,-1.742978811,-8.817844391,4.355052948,-40.66666666666667,-70.83333333333334,85.88888888888889,-7504.055555555556,4010.3888888888887,1351.0,2
2024-06-15 12:12:14,-0.5864306092,-0.06719517708,0.03665191308,-0.7637503147,-9.442731857,3.916913986,149.5,16.904255319148938,58.27659574468085,-7091.946808510638,3729.148936170213,1218.5531914893618,2
2024-06-15 12:12:14,-0.5864306092,-0.06719517708,0.03665191308,-0.7637503147,-9.442731857,3.916913986,224.5,-26.180851063829785,-67.25531914893617,-7118.010638297872,3746.170212765957,1067.4893617021276,2
2024-06-15 12:12:14,-0.1698205322,0.2528982162,-0.1600466967,-1.268926859,-9.31823349,3.648763418,-88.0,-427.7894736842105,-184.73684210526315,-7471.684210526316,4142.052631578948,1243.9473684210527,2
2024-06-15 12:12:14,0.05253441259,0.2761110961,-0.1295034289,-1.575384736,-9.39484787,3.27287364,-43.641304347826086,-197.7934782608696,-335.89130434782606,-7054.608695652174,3913.869565217392,1351.945652173913,2
2024-06-15 12:12:14,0.05253441259,0.2761110961,-0.1295034289,-1.575384736,-9.39484787,3.27287364,204.20454545454547,334.02272727272725,-28.045454545454547,-7415.0,3747.613636363637,982.9545454545456,2
2024-06-15 12:12:14,-0.0171042271,0.1747074574,-0.1197295859,-1.587355733,-9.430760384,3.303998232,-133.54545454545453,-164.72727272727272,-3.363636363636364,-7404.636363636364,4387.409090909091,1315.2727272727273,2
2024-06-15 12:12:14,-0.0171042271,0.1747074574,-0.1197295859,-1.587355733,-9.430760384,3.303998232,-1.7472527472527446,-163.7802197802198,-298.57142857142856,-7268.56043956044,3876.5824175824177,1208.428571428571,2
2024-06-15 12:12:14,0.03054326214,-0.0354301855,0.01588249579,-1.537077546,-9.3685112,3.428496838,-8.58426966292135,-42.438202247191015,-41.24719101123596,-7464.325842696629,4063.7078651685392,1304.7752808988764,2
2024-06-15 12:12:14,0.05253441259,-0.09529497474,0.02565634064,-1.41018486,-9.421183586,3.399766445,-147.3448275862069,-286.6896551724138,-261.3448275862069,-7298.586206896552,4021.103448275862,1380.6896551724135,2
2024-06-15 12:12:14,0.05253441259,-0.09529497474,0.02565634064,-1.41018486,-9.421183586,3.399766445,38.0,4.0,242.0,-7109.0,3950.5,1140.5,2
2024-06-15 12:12:15,0.03176499158,-0.02565634064,-0.00122173049,-1.278503656,-9.361329079,3.423708439,177.52380952380952,5.206349206349206,249.9417989417989,-7203.476190476191,4238.338624338624,968.4391534391534,2
2024-06-15 12:12:15,0.006108652335,-0.06963863969,-0.04886921868,-1.391031146,-9.30386734,3.406949043,258.4761904761905,40.12698412698413,29.835978835978835,-7322.523809523809,4400.772486772486,983.7830687830688,2
2024-06-15 12:12:15,0.006108652335,-0.06963863969,-0.04886921868,-1.391031146,-9.30386734,3.406949043,214.4871794871795,285.2564102564103,-3.705128205128205,-7102.807692307692,4049.846153846154,1336.576923076923,2
2024-06-15 12:12:15,0.04642575979,-0.1075122803,0.006108652335,-1.386242747,-9.263166428,3.593696833,70.0,51.52941176470589,84.54117647058823,-7318.423529411764,4466.564705882353,1342.6352941176472,2
2024-06-15 12:12:15,0.04642575979,-0.1075122803,0.006108652335,-1.386242747,-9.263166428,3.593696833,318.86206896551727,-9.79310344827586,-16.482758620689655,-7121.96551724138,3802.8275862068967,1313.448275862069,2
2024-06-15 12:12:15,0.0293215327,-0.125838235,-0.008552113548,-0.9576807022,-9.26556015,3.562572241,332.55056179775283,-250.28089887640448,13.573033707865171,-7347.337078651685,4261.898876404494,1316.505617977528,2
2024-06-15 12:12:15,0.05009094998,-0.1356120855,-0.08552113175,-0.7972691655,-9.337387085,3.830722809,47.0,-499.45454545454544,-188.72727272727272,-7227.272727272727,4166.818181818182,1368.909090909091,2
2024-06-15 12:12:15,0.05009094998,-0.1356120855,-0.08552113175,-0.7972691655,-9.337387085,3.830722809,-19.47826086956522,-91.91304347826087,-88.34782608695653,-7308.04347826087,4219.434782608696,1202.304347826087,2
2024-06-15 12:12:15,0.2125810981,-0.2064724565,-0.02076941915,-0.9481038451,-8.856152534,3.888183594,17.470588235294116,-291.7058823529412,-164.49411764705883,-7510.517647058824,4366.870588235294,1352.2941176470588,2
2024-06-15 12:12:15,-0.09651670605,-0.1392772794,0.04398229718,-0.383072257,-9.203310966,3.897760391,94.00641025641026,-315.12179487179486,-244.34615384615384,-7358.0192307692305,4112.019230769231,1221.3974358974358,2
2024-06-15 12:12:16,-0.09651670605,-0.1392772794,0.04398229718,-0.383072257,-9.203310966,3.897760391,83.10897435897436,-208.0705128205128,-255.8846153846154,-7125.326923076923,4179.326923076923,1245.7564102564102,2
2024-06-15 12:12:16,0.02809980139,0.06230825558,-0.1710422635,-0.6392518282,-9.13866806,3.888183594,210.03488372093025,-10.011627906976742,-58.44186046511629,-7468.290697674419,3836.941860465117,1001.1627906976744,2
2024-06-15 12:12:16,0.02809980139,0.06230825558,-0.1710422635,-0.6392518282,-9.13866806,3.888183594,311.2967032967033,-166.93406593406593,-246.65934065934067,-7462.010989010989,4081.010989010989,1358.076923076923,2
2024-06-15 12:12:16,-0.003665191587,-0.01466076635,-0.0354301855,-1.149216771,-8.966285706,3.722983599,-62.90909090909091,-214.3636363636364,-120.45454545454544,-7068.954545454545,4122.772727272727,907.4545454545456,2
2024-06-15 12:12:16,-0.1185078546,-0.1111774743,0.2260201424,-0.9576807022,-9.974244118,3.162740469,37.71910112359551,-87.88764044943821,346.6179775280899,-7481.831460674157,4165.23595505618,1081.6629213483145,2
2024-06-15 12:12:16,-0.1185078546,-0.1111774743,0.2260201424,-0.9576807022,-9.974244118,3.162740469,324.0,-439.5454545454545,381.8181818181818,-7407.636363636364,4369.545454545455,1065.0,2
2024-06-15 12:12:16,-0.2247984111,-0.0354301855,0.1820378453,-0.3615244627,-9.416395187,3.60566783,145.5483870967742,-726.0860215053764,-250.247311827957,-7099.505376344087,4375.419354838709,1395.2903225806451,2
2024-06-15 12:12:16,0.2052507252,0.1233947799,-0.07452555746,-0.9457096457,-9.133879662,3.057395458,346.5302013422819,-594.9865771812081,-198.6510067114094,-7281.946308724832,4166.355704697987,1489.456375838926,2
2024-06-15 12:12:16,0.2052507252,0.1233947799,-0.07452555746,-0.9457096457,-9.133879662,3.057395458,367.33557046979865,-541.2953020134228,-302.67785234899327,-7267.181208053691,4189.174496644296,1614.9597315436242,2
2024-06-15 12:12:16,0.08185594529,0.2345722616,-0.0354301855,-0.8451532125,-9.473855972,3.301604033,481.7674418604651,-14.627906976744184,-156.67441860465115,-7326.930232558139,4065.9302325581393,1304.2790697674418,2
2024-06-15 12:12:17,0.08185594529,0.2345722616,-0.0354301855,-0.8451532125,-9.473855972,3.301604033,8.545454545454547,-242.8409090909091,-115.36363636363636,-7494.727272727273,4324.409090909091,1229.0454545454545,2
2024-06-15 12:12:17,-0.08552113175,0.326202035,-0.1319468915,-1.161187768,-9.435548782,3.462015629,104.29885057471265,-77.26436781609198,70.19540229885058,-6898.793103448276,3789.057471264368,1169.8390804597702,2
2024-06-15 12:12:17,0.0232128799,0.08552113175,-0.06841690838,-1.340752959,-9.40681839,3.244143248,-99.4494382022472,557.8089887640449,207.19101123595505,-7536.977528089887,4307.977528089888,1040.4831460674156,2
2024-06-15 12:12:17,0.0232128799,0.08552113175,-0.06841690838,-1.340752959,-9.40681839,3.244143248,-60.43181818181818,-197.88636363636363,-214.6590909090909,-7084.954545454545,4267.045454545455,1217.659090909091,2
2024-06-15 12:12:17,0.01466076635,0.02687807009,-0.0232128799,-1.024718285,-9.516951561,3.339911461,-143.3010752688172,-306.8279569892473,-229.5268817204301,-7270.666666666667,4399.193548387097,1259.505376344086,2
2024-06-15 12:12:17,-0.01221730467,0.07941248268,-0.02565634064,-1.235408068,-9.208099365,3.318363667,-290.61290322580646,-36.935483870967744,-212.32258064516128,-7254.0,4215.322580645161,1346.0645161290322,2
2024-06-15 12:12:17,-0.01221730467,0.07941248268,-0.02565634064,-1.235408068,-9.208099365,3.318363667,-118.63529411764704,-31.78823529411764,-214.6235294117647,-7099.1882352941175,3766.105882352941,1289.035294117647,2
2024-06-15 12:12:17,-0.1270599663,-0.04642575979,-0.03420845419,-1.446097851,-8.992621422,2.894589901,-122.5,-179.41463414634146,102.3658536585366,-7472.3536585365855,4091.2926829268295,1241.5121951219512,2
2024-06-15 12:12:17,-0.1270599663,-0.04642575979,-0.03420845419,-1.446097851,-8.992621422,2.894589901,112.45454545454544,-289.27272727272725,69.9090909090909,-7232.0,4158.909090909091,1550.909090909091,2
2024-06-15 12:12:17,-0.3738495409,0.2211332172,0.2272418737,-2.997540474,-10.53688145,4.616020679,149.54054054054055,8.594594594594597,40.10810810810811,-7083.081081081081,4045.6216216216217,1225.4054054054054,2
2024-06-15 12:12:18,-1.097113967,0.06475171447,0.8100073338,-4.484339714,-10.10113716,1.67115283,-16.405405405405418,-51.94594594594595,-49.081081081081095,-7131.189189189189,4087.783783783784,1185.945945945946,2
2024-06-15 12:12:18,-1.097113967,0.06475171447,0.8100073338,-4.484339714,-10.10113716,1.67115283,-138.07453416149067,44.3416149068323,-236.80124223602485,-7334.95652173913,4099.403726708075,1501.751552795031,2
2024-06-15 12:12:18,0.3298672438,-1.296256065,1.199739337,-5.91128397,-9.212887764,-0.2873041928,195.9047619047619,568.4761904761905,339.0,-7466.0,4037.904761904762,984.8571428571428,2
2024-06-15 12:12:18,-0.6414085031,-1.496619821,2.1258111,-5.379771233,-9.102754593,-1.699883223,20.23529411764705,-239.52941176470588,-66.0,-7119.0,4279.235294117647,1205.6470588235295,2
2024-06-15 12:12:18,-0.6414085031,-1.496619821,2.1258111,-5.379771233,-9.102754593,-1.699883223,297.30337078651684,48.0,8.719101123595507,-7234.359550561798,4089.6067415730336,1238.741573033708,2
2024-06-15 12:12:18,-0.1502728462,-0.4740314186,1.198517561,-5.214571476,-7.182605267,0.6440402865,108.8993288590604,128.73825503355704,1.5436241610738222,-7180.006711409396,4179.302013422819,953.2751677852348,2
2024-06-15 12:12:18,-0.1502728462,-0.4740314186,1.198517561,-5.214571476,-7.182605267,0.6440402865,51.85234899328859,-19.583892617449663,109.59731543624162,-7450.476510067114,4450.442953020134,942.5369127516778,2
2024-06-15 12:12:18,0.4190535545,0.1490511149,0.6316346526,-5.204994678,-6.727706909,1.577778935,-37.62068965517241,108.3793103448276,119.65517241379308,-7394.241379310345,4215.827586206897,976.8620689655172,2
2024-06-15 12:12:18,0.8894197941,0.1380555481,0.3872885704,-7.412448406,-5.006275654,2.466027737,-262.58620689655174,-217.0344827586207,-442.4827586206897,-7501.620689655172,4748.0344827586205,1359.7241379310344,2
2024-06-15 12:12:18,0.8894197941,0.1380555481,0.3872885704,-7.412448406,-5.006275654,2.466027737,-464.3956043956045,-0.2857142857142776,-712.6153846153846,-7168.10989010989,4961.340659340659,1283.934065934066,2
2024-06-15 12:12:19,0.4764748812,-0.004886921961,0.2455678284,-9.033323288,-4.072536945,3.031059265,-1843.636363636364,697.5454545454545,-1813.2272727272727,-7102.318181818182,4414.681818181818,1220.6818181818182,2
2024-06-15 12:12:19,0.2247984111,0.008552113548,0.1747074574,-8.6957407,-3.090914488,2.372653961,-1606.3846153846157,693.0,-2216.846153846154,-7755.461538461538,3874.769230769231,1283.923076923077,2
2024-06-15 12:12:19,0.2247984111,0.008552113548,0.1747074574,-8.6957407,-3.090914488,2.372653961,-1573.4175824175825,800.1428571428571,-2222.8901098901097,-7765.901098901098,3858.835164835165,1126.2307692307693,2
2024-06-15 12:12:19,0.09407325089,-0.0232128799,0.1246165112,-8.24802494,-3.754108191,2.722207308,-1478.7674418604652,297.3488372093023,-2670.4418604651164,-8190.790697674419,3164.220930232558,1109.2441860465117,2
2024-06-15 12:12:19,0.09407325089,-0.0232128799,0.1246165112,-8.24802494,-3.754108191,2.722207308,-1201.797752808989,-505.3820224719101,-3041.752808988764,-8331.932584269663,1407.6404494382025,1213.9662921348315,2
2024-06-15 12:12:19,-0.05375614017,-0.06475171447,-0.1221730486,-7.295132637,-2.240972757,2.504334927,-650.3370786516854,-298.4719101123595,-2930.168539325842,-7735.370786516853,662.6179775280899,1121.741573033708,2
2024-06-15 12:12:19,-0.1270599663,-0.07086037099,-0.3921754956,-10.44590187,-3.260902643,3.201047659,-972.4444444444443,236.95555555555555,-1796.3555555555556,-7951.555555555556,83.66666666666666,665.1777777777778,2
2024-06-15 12:12:19,-0.1270599663,-0.07086037099,-0.3921754956,-10.44590187,-3.260902643,3.201047659,-1339.9411764705883,229.0705882352941,-868.1764705882354,-8069.141176470588,62.976470588235294,983.9176470588236,2
2024-06-15 12:12:19,-0.1563815027,0.1368338168,0.3824016452,-9.605537415,-3.995922565,3.325546265,-1260.0,625.0,-374.0,-8219.227272727272,-147.9090909090909,1092.2727272727273,2
2024-06-15 12:12:19,0.1673770845,-0.2089159191,0.04398229718,-7.158663273,-2.78924489,2.616862535,-2173.1666666666665,1087.6666666666667,-138.43333333333334,-8287.266666666666,-160.7,1351.3666666666666,2
2024-06-15 12:12:20,0.1673770845,-0.2089159191,0.04398229718,-7.158663273,-2.78924489,2.616862535,-1942.7272727272727,85.92045454545453,609.8068181818182,-9225.806818181818,-250.22727272727272,1787.5568181818182,2
2024-06-15 12:12:20,-0.07086037099,0.04886921868,0.008552113548,-8.846575737,-3.145981073,3.294421434,-315.66257668711654,-938.2085889570552,951.6503067484664,-8254.9509202454,43.04294478527608,2245.208588957056,2
2024-06-15 12:12:20,-0.07086037099,0.04886921868,0.008552113548,-8.846575737,-3.145981073,3.294421434,-168.4233128834356,-847.4110429447853,1062.6932515337423,-7988.079754601227,389.0552147239264,2354.411042944785,2
2024-06-15 12:12:20,-0.01954768784,0.01832595654,0.0354301855,-8.508993149,-3.107673883,3.253720045,1509.5,-1154.0,640.5,-7757.0,277.5,2253.5,2
2024-06-15 12:12:20,-0.4459316432,0.1050688252,0.01954768784,-8.080430984,-3.306392431,2.849100113,2072.840909090909,-262.47727272727275,900.5681818181818,-7826.181818181818,759.9318181818181,1721.3181818181818,2
2024-06-15 12:12:20,-0.4459316432,0.1050688252,0.01954768784,-8.080430984,-3.306392431,2.849100113,2102.945054945055,209.86813186813183,1223.2747252747254,-8014.285714285715,943.6263736263736,1601.3956043956043,2
2024-06-15 12:12:20,-0.3408628106,0.2467895597,0.2199114859,-7.556100368,-4.659116745,1.079784989,1698.357142857143,487.0357142857143,1354.9642857142858,-8102.607142857143,1315.5,1195.25,2
2024-06-15 12:12:20,2.1258111,-0.3152064681,0.1209513173,-12.38999367,-0.6847416759,4.709394932,1503.090909090909,710.8636363636364,1851.8636363636365,-8264.636363636364,2073.8636363636365,738.1818181818182,2
2024-06-15 12:12:20,2.1258111,-0.3152064681,0.1209513173,-12.38999367,-0.6847416759,4.709394932,1227.505617977528,952.3483146067416,1920.2921348314608,-8320.505617977527,2772.584269662921,53.58426966292134,2
2024-06-15 12:12:20,-1.760513663,0.17715092,-0.7929030657,-8.815450668,-3.909731388,3.203441858,-40.550561797752806,1288.6741573033707,856.6516853932584,-7440.157303370786,2885.213483146068,-447.13483146067415,2
2024-06-15 12:12:21,-1.760513663,0.17715092,-0.7929030657,-8.815450668,-3.909731388,3.203441858,-1085.4494382022472,1488.573033707865,-365.2921348314607,-7038.157303370786,2016.1797752808989,-306.2808988764045,2
2024-06-15 12:12:21,0.2565633953,-0.1685988009,0.1148426682,-7.405265808,-4.412513733,2.97359848,-1000.25,1496.375,-333.25,-7268.0,2386.625,51.875,2
2024-06-15 12:12:21,-0.008552113548,0.05497787148,0.109955743,-8.188169479,-4.019864559,3.15795207,-534.5,149.5,66.0,-7566.5,2886.5,413.0,2
2024-06-15 12:12:21,-0.008552113548,0.05497787148,0.109955743,-8.188169479,-4.019864559,3.15795207,139.6,-416.8,218.6,-7704.8,2916.2,348.6,2
2024-06-15 12:12:21,0.05009094998,0.05497787148,0.1685988009,-8.755595207,-3.643975019,3.107673883,37.27272727272725,-90.72727272727276,668.4545454545455,-8020.181818181818,3296.818181818182,99.54545454545456,2
2024-06-15 12:12:21,-0.1111774743,0.1710422635,-0.02199114859,-7.357381821,-3.093308687,2.885013103,-62.45454545454547,223.63636363636363,1202.0,-8007.454545454545,3819.636363636364,-285.72727272727275,2
2024-06-15 12:12:21,-0.1111774743,0.1710422635,-0.02199114859,-7.357381821,-3.093308687,2.885013103,519.5238095238095,4.5238095238095255,1629.095238095238,-8015.666666666667,4057.857142857143,-241.3809523809524,2
2024-06-15 12:12:21,0.02199114859,0.09651670605,-0.1576032341,-8.413225174,-3.136404276,2.609679937,392.5681818181818,-57.69318181818182,1302.1818181818182,-7581.215909090909,4673.761363636364,-193.22727272727272,2
2024-06-15 12:12:21,0.02199114859,0.09651670605,-0.1576032341,-8.413225174,-3.136404276,2.609679937,274.0744680851064,303.09574468085106,578.5744680851063,-7658.191489361702,4285.04255319149,-186.67021276595744,2
2024-06-15 12:12:21,0.2003637999,-0.2125810981,0.02443460934,-9.418789864,-3.869029999,3.205836058,74.60638297872342,132.35106382978722,354.10638297872345,-7366.702127659574,4142.489361702128,-291.45744680851067,2
2024-06-15 12:12:22,-0.1930334121,0.04031710699,0.04886921868,-7.912836552,-2.987963676,3.033453465,25.32258064516129,-233.25806451612905,284.241935483871,-7051.741935483871,4017.790322580645,-350.0806451612903,2
2024-06-15 12:12:22,-0.1930334121,0.04031710699,0.04886921868,-7.912836552,-2.987963676,3.033453465,-162.47252747252747,-265.7802197802198,238.6153846153846,-7260.098901098901,4358.395604395604,-116.92307692307692,2
2024-06-15 12:12:22,-0.0415388383,0.2333505303,-0.2590068579,-9.569623947,-3.028665066,1.175553083,-496.34482758620686,-418.6551724137931,244.86206896551724,-7011.19540229885,4425.068965517241,287.32183908045977,2
2024-06-15 12:12:22,0.08918632567,0.006108652335,0.03298672289,-7.87931776,-3.845088005,2.288856745,-565.8764044943821,-335.97752808988764,30.561797752808985,-6994.595505617977,3988.8988764044943,302.5730337078652,2
2024-06-15 12:12:22,0.08918632567,0.006108652335,0.03298672289,-7.87931776,-3.845088005,2.288856745,-36.52272727272725,87.77272727272728,297.10227272727275,-7279.670454545455,4415.75,326.4886363636364,2
2024-06-15 12:12:22,0.06352998316,-0.007330383174,-0.06475171447,-7.558494568,-3.766079187,2.475604534,-350.7011494252873,-184.02298850574712,300.2298850574713,-7223.379310344828,4338.712643678161,370.13793103448273,2
2024-06-15 12:12:22,0.06352998316,-0.007330383174,-0.06475171447,-7.558494568,-3.766079187,2.475604534,-359.57142857142856,17.42857142857143,343.85714285714283,-6889.142857142857,4349.0,178.57142857142858,2
2024-06-15 12:12:22,-0.01954768784,0.2309070677,-0.1576032341,-10.93671322,-4.165910721,2.626439333,-26.988888888888887,-69.92222222222222,-77.46666666666667,-7154.644444444444,4851.722222222223,178.87777777777777,2
2024-06-15 12:12:22,0.08429940045,0.0109955743,0.1893682331,-7.575253963,-4.163516521,1.345541358,-199.66666666666663,21.933333333333334,69.93333333333334,-6951.2,4263.733333333334,287.46666666666664,2
2024-06-15 12:12:22,0.08429940045,0.0109955743,0.1893682331,-7.575253963,-4.163516521,1.345541358,-150.61111111111111,171.94444444444446,152.94444444444446,-6996.055555555556,4449.5,295.27777777777777,2
2024-06-15 12:12:23,-0.1820378453,0.25167647,-0.02809980139,-8.84896946,-3.529053211,2.882618904,-107.5,-218.0,7.5,-7246.5,4820.0,373.5,2
2024-06-15 12:12:23,0.1649336219,0.05131268129,0.01343903504,-8.365341187,-4.582501888,1.582567334,62.04494382022472,-79.84269662921349,-284.82022471910113,-6615.471910112359,4480.224719101124,357.9887640449438,2
2024-06-15 12:12:23,0.1649336219,0.05131268129,0.01343903504,-8.365341187,-4.582501888,1.582567334,211.4705882352941,59.35294117647058,-79.35294117647058,-6894.64705882353,4580.941176470588,278.47058823529414,2
2024-06-15 12:12:23,-0.03909537569,0.04031710699,-0.1527163088,-8.219294548,-3.38061285,1.584961534,118.84827586206896,-30.76551724137932,-0.3241379310344854,-7069.565517241379,4819.23448275862,75.28965517241379,2
2024-06-15 12:12:23,-0.03909537569,0.04031710699,-0.1527163088,-8.219294548,-3.38061285,1.584961534,-19.05128205128205,-132.07692307692307,35.87179487179487,-6958.615384615385,4905.666666666667,482.71794871794873,2
2024-06-15 12:12:23,-0.3762930036,-0.03054326214,0.1014036313,-9.701305389,-4.098873138,1.912967205,-63.87234042553192,56.61702127659574,-322.43617021276594,-6652.54255319149,4104.595744680851,273.2872340425532,2
2024-06-15 12:12:23,0.1209513173,-0.06108652428,0.03909537569,-7.900865555,-3.780444384,1.175553083,-15.764705882352942,-15.941176470588236,553.7294117647059,-7129.235294117647,4927.211764705882,326.3764705882353,2
2024-06-15 12:12:23,0.1209513173,-0.06108652428,0.03909537569,-7.900865555,-3.780444384,1.175553083,-59.550561797752806,-227.247191011236,193.7752808988764,-6852.393258426966,4826.831460674157,197.6516853932584,2
2024-06-15 12:12:23,-0.006108652335,0.05742133409,0.01954768784,-8.420407295,-3.327940464,1.230619669,-144.33707865168537,-233.08988764044943,-44.31460674157303,-6731.651685393258,4525.842696629214,197.71910112359552,2
2024-06-15 12:12:23,-0.05375614017,0.02687807009,-0.03176499158,-9.004592896,-4.326322556,1.130063176,-54.0,165.5,143.0,-6866.5,4854.5,311.5,2
2024-06-15 12:12:24,-0.05375614017,0.02687807009,-0.03176499158,-9.004592896,-4.326322556,1.130063176,-16.755555555555556,-358.3111111111112,-7.044444444444451,-6942.466666666666,5049.333333333333,499.2,2
2024-06-15 12:12:24,-0.3677408695,0.0109955743,-0.0720821023,-8.398859978,-4.508281708,1.534683347,32.34831460674157,-355.51685393258424,-282.03370786516854,-6768.651685393258,4587.303370786517,288.8988764044944,2
2024-06-15 12:12:24,-0.3677408695,0.0109955743,-0.0720821023,-8.398859978,-4.508281708,1.534683347,110.5,-89.66666666666667,261.83333333333337,-6911.666666666667,4575.333333333333,144.83333333333334,2
2024-06-15 12:12:24,0.0293215327,0.2675589919,-0.2590068579,-8.188169479,-3.476380825,1.292868972,154.47826086956522,93.2391304347826,370.3804347826087,-6991.097826086957,4952.358695652174,151.6195652173913,2
2024-06-15 12:12:24,-0.06597344577,0.2577851415,0.4056145251,-9.165003777,-5.063736439,2.365471363,59.83870967741935,-298.9139784946237,75.81720430107526,-6705.118279569892,4885.752688172043,220.80645161290323,2
2024-06-15 12:12:24,-0.06597344577,0.2577851415,0.4056145251,-9.165003777,-5.063736439,2.365471363,162.94117647058823,-324.4117647058824,346.8235294117647,-7034.411764705882,5239.941176470588,150.8235294117647,2
2024-06-15 12:12:24,0.05864306539,-0.1624901593,-0.1991420686,-7.931990147,-3.744531393,-0.2777273953,408.0,-570.8181818181819,333.45454545454544,-6665.818181818182,5070.363636363636,199.63636363636363,2
2024-06-15 12:12:24,0.04764748737,0.02443460934,-0.008552113548,-8.413225174,-4.204218388,1.209071875,442.2052631578947,-138.82105263157894,297.7368421052632,-6574.115789473684,5160.6578947368425,333.62105263157895,2
2024-06-15 12:12:24,0.04764748737,0.02443460934,-0.008552113548,-8.413225174,-4.204218388,1.209071875,270.1,-150.4,103.0,-6707.8,5347.5,205.2,2
2024-06-15 12:12:24,0.06352998316,0.1026253626,-0.1808161139,-7.987056732,-3.782838583,1.034295082,-3.416666666666657,-48.44444444444444,81.19444444444444,-6620.861111111111,5079.555555555556,194.88888888888889,2
2024-06-15 12:12:25,0.06352998316,0.1026253626,-0.1808161139,-7.987056732,-3.782838583,1.034295082,191.75,-128.1184210526316,70.22368421052632,-6640.131578947368,5171.263157894737,159.8684210526316,2
2024-06-15 12:12:25,0.06108652428,0.2138028294,0.08918632567,-10.35492229,-5.367800236,0.9193734527,118.31034482758622,-181.20689655172413,3.2068965517241423,-6656.0,5226.0,347.34482758620686,2
2024-06-15 12:12:25,0.1087340117,-0.1869247705,0.03176499158,-6.030993938,-3.909731388,0.4596867263,-100.98837209302326,27.36046511627907,-245.093023255814,-6754.093023255814,5220.744186046512,596.1395348837209,2
2024-06-15 12:12:25,0.1087340117,-0.1869247705,0.03176499158,-6.030993938,-3.909731388,0.4596867263,-95.51648351648352,81.5934065934066,-258.2307692307692,-6705.923076923077,4557.208791208791,280.16483516483515,2
2024-06-15 12:12:25,-0.1282816976,0.5143485069,-0.1441642046,-10.16817474,-4.299986362,0.8283938169,299.4186046511628,-26.302325581395348,211.86046511627907,-6574.348837209303,4984.558139534884,299.5581395348837,2
2024-06-15 12:12:25,-0.1893682331,-0.1295034289,0.03054326214,-7.072471619,-5.193023682,0.2130839527,219.11111111111111,-324.5,391.83333333333337,-6619.5,5663.333333333333,263.77777777777777,2
2024-06-15 12:12:25,-0.1893682331,-0.1295034289,0.03054326214,-7.072471619,-5.193023682,0.2130839527,-320.65909090909093,-30.02272727272728,-144.5,-6519.704545454545,5065.863636363636,199.77272727272728,2
2024-06-15 12:12:25,-0.06841690838,0.1514945775,-0.2064724565,-8.528146744,-3.543418407,0.09576806426,-71.69662921348315,57.51685393258427,62.62921348314607,-6595.528089887641,5104.876404494382,333.8876404494382,2
2024-06-15 12:12:25,-0.06841690838,0.1514945775,-0.2064724565,-8.528146744,-3.543418407,0.09576806426,54.75,-147.125,-198.375,-6713.0,5011.0,246.5,2
2024-06-15 12:12:25,0.1172861308,-0.2125810981,0.02076941915,-9.947908401,-5.063736439,-0.14844051,-81.6896551724138,-303.8275862068965,-208.93103448275863,-6611.0344827586205,4937.448275862069,157.86206896551724,2
2024-06-15 12:12:26,-0.1991420686,0.2260201424,0.1722639948,-8.494627953,-5.078101635,1.570596337,-87.30645161290323,-283.1774193548387,-284.03225806451616,-6570.548387096775,4819.5161290322585,194.79032258064515,2
2024-06-15 12:12:26,-0.1991420686,0.2260201424,0.1722639948,-8.494627953,-5.078101635,1.570596337,-105.0483870967742,-312.747311827957,-289.40860215053766,-6595.279569892473,4805.537634408603,226.51075268817203,2
2024-06-15 12:12:26,0.08063421398,0.09529497474,-0.125838235,-7.896077156,-4.38617754,-0.9983820915,284.2023121387283,-277.53179190751445,-296.0462427745665,-6726.14450867052,4540.664739884393,449.59537572254334,2
2024-06-15 12:12:26,-0.1246165112,0.009773843922,-0.1685988009,-7.28316164,-4.170699596,-0.009576806799,539.8395061728395,-311.3703703703704,267.8395061728395,-6908.679012345679,5190.641975308642,346.69135802469134,2
2024-06-15 12:12:26,-0.1246165112,0.009773843922,-0.1685988009,-7.28316164,-4.170699596,-0.009576806799,107.05555555555556,-67.44444444444444,330.3888888888889,-6759.777777777777,5049.055555555556,179.11111111111111,2
2024-06-15 12:12:26,-0.1624901593,-0.04398229718,0.1148426682,-9.897629738,-5.003881454,-0.09816227108,-103.07865168539324,83.12359550561797,248.93258426966293,-6365.977528089888,5178.494382022472,240.6516853932584,2
2024-06-15 12:12:26,-0.1624901593,-0.04398229718,0.1148426682,-9.897629738,-5.003881454,-0.09816227108,50.86516853932584,362.9438202247191,221.0,-6693.426966292135,5308.2808988764045,276.1011235955056,2
2024-06-15 12:12:26,0.1893682331,-0.06963863969,-0.04886921868,-7.026981831,-4.939238071,0.4213795066,-264.5,-26.7027027027027,8.5,-6568.108108108108,5327.783783783784,-39.86486486486486,2
2024-06-15 12:12:26,0.03420845419,0.1734857261,0.0415388383,-8.889671326,-5.185841084,-0.8379706144,-102.375,-62.3125,157.6875,-6386.1875,5337.8125,-70.0,2
2024-06-15 12:12:26,0.03420845419,0.1734857261,0.0415388383,-8.889671326,-5.185841084,-0.8379706144,90.18681318681318,-11.89010989010989,12.824175824175825,-6382.945054945055,5527.527472527472,205.69230769230768,2
2024-06-15 12:12:27,0.008552113548,-0.04031710699,-0.1026253626,-6.193799973,-4.548983097,-0.5506663918,-149.4418604651163,39.44186046511628,65.04651162790697,-6309.511627906977,5273.744186046512,354.1162790697674,2
2024-06-15 12:12:27,-0.2809980214,0.06841690838,-0.1319468915,-10.82897472,-6.145915985,-0.8571242094,193.13953488372093,303.7674418604651,-76.51162790697674,-6695.872093023256,5029.186046511628,-58.68604651162791,2
2024-06-15 12:12:27,-0.2809980214,0.06841690838,-0.1319468915,-10.82897472,-6.145915985,-0.8571242094,189.3085106382979,74.90425531914894,-11.861702127659573,-6634.734042553191,5327.765957446809,-56.840425531914896,2
2024-06-15 12:12:27,-0.8613200188,-1.403768301,0.4764748812,-4.079719543,-3.440467834,-3.555389643,-233.34939759036143,-330.2530120481928,13.662650602409638,-6485.590361445783,5189.6626506024095,-20.132530120481928,2
2024-06-15 12:12:27,-0.8613200188,-1.403768301,0.4764748812,-4.079719543,-3.440467834,-3.555389643,-41.28089887640449,73.01123595505618,156.41573033707866,-6397.76404494382,5285.505617977528,-39.06741573033708,2
2024-06-15 12:12:27,-0.7220427394,-0.9285151958,-0.2541199327,-12.18169785,-5.497087002,4.991910458,41.8876404494382,-179.1123595505618,11.449438202247194,-6369.6741573033705,5711.471910112359,365.247191011236,2
2024-06-15 12:12:27,0.4862487316,-0.1319468915,0.1160643995,-7.95593214,-5.049371243,2.693476915,-130.8426966292135,-39.65168539325842,-303.6292134831461,-6495.651685393258,5031.078651685393,303.2808988764045,2
2024-06-15 12:12:27,0.4862487316,-0.1319468915,0.1160643995,-7.95593214,-5.049371243,2.693476915,93.46153846153844,92.15384615384616,165.53846153846155,-6363.384615384615,5250.307692307692,-58.15384615384615,2
2024-06-15 12:12:27,0.2504547536,0.07696902007,0.1233947799,-7.536946774,-4.141968727,2.298433542,30.75581395348837,-244.7093023255814,-215.2674418604651,-6706.232558139535,5604.744186046512,231.7325581395349,2
2024-06-15 12:12:27,0.1539380401,0.04520402849,-0.01832595654,-8.123526573,-4.453215122,2.798821688,104.31460674157304,-277.35955056179773,-409.23595505617976,-6391.820224719101,5226.0,86.86516853932585,2
2024-06-15 12:12:28,0.1539380401,0.04520402849,-0.01832595654,-8.123526573,-4.453215122,2.798821688,373.10526315789474,-343.34736842105264,-451.5894736842105,-6561.063157894737,5186.505263157895,35.694736842105264,2
2024-06-15 12:12:28,0.01343903504,-0.1747074574,-0.4361577928,-6.43082571,-3.629609823,1.996764183,204.6547619047619,-562.0833333333334,-325.6428571428571,-6743.464285714285,5843.809523809524,33.69047619047619,2
2024-06-15 12:12:28,0.01343903504,-0.1747074574,-0.4361577928,-6.43082571,-3.629609823,1.996764183,534.2183908045977,-442.7126436781609,-1275.6896551724135,-6830.597701149425,4828.402298850575,759.1264367816092,2
2024-06-15 12:12:28,0.3481931984,-0.03298672289,0.09896016866,-9.619902611,-5.451597214,3.639186621,415.4782608695653,-238.4782608695652,-1321.9565217391305,-6182.521739130435,4938.434782608696,217.69565217391303,2
2024-06-15 12:12:28,0.2370157093,0.02565634064,0.2809980214,-7.299921036,-3.663128614,2.628833532,53.98757763975158,23.012422360248426,-1370.4037267080746,-5872.583850931677,4939.677018633541,71.11180124223603,2
2024-06-15 12:12:28,0.2370157093,0.02565634064,0.2809980214,-7.299921036,-3.663128614,2.628833532,-482.123595505618,-84.39325842696627,-659.7415730337079,-7203.943820224719,2536.5393258426966,534.2808988764045,2
2024-06-15 12:12:28,-0.106290549,0.05742133409,0.07086037099,-8.497021675,-4.71657753,3.45722723,-384.9130434782609,51.56521739130437,1686.1739130434785,-7354.173913043478,4586.260869565218,529.695652173913,2
2024-06-15 12:12:28,0.03054326214,0.3188716471,-0.01466076635,-7.302315235,-3.744531393,3.114856482,-853.5555555555555,131.88888888888889,1168.3333333333333,-6560.555555555556,4869.333333333333,61.22222222222223,2
2024-06-15 12:12:28,0.03054326214,0.3188716471,-0.01466076635,-7.302315235,-3.744531393,3.114856482,-517.8536585365854,-395.219512195122,1294.4878048780488,-6580.243902439024,5198.731707317073,1042.3658536585367,2
2024-06-15 12:12:28,-0.216246292,-0.08063421398,-0.3115412891,-8.137891769,-4.587290287,2.360682964,-6.475675675675676,20.42162162162162,1179.3405405405406,-6323.9243243243245,5741.605405405406,1027.6324324324323,2
2024-06-15 12:12:29,-0.216246292,-0.08063421398,-0.3115412891,-8.137891769,-4.587290287,2.360682964,-181.07027027027027,127.44864864864864,1135.0162162162162,-6189.3297297297295,5618.362162162162,888.172972972973,2
2024-06-15 12:12:29,0.1869247705,0.02199114859,0.01954768784,-8.36294651,-4.393360138,3.691859007,-183.8705882352941,260.1411764705882,561.7176470588236,-6351.470588235294,5644.964705882353,423.45882352941175,2
2024-06-15 12:12:29,0.06475171447,0.3359758854,-0.1026253626,-8.279149055,-4.247313976,2.434903145,-238.73563218390805,146.3793103448276,223.632183908046,-6063.6781609195405,5616.988505747127,363.5057471264368,2
2024-06-15 12:12:29,0.06475171447,0.3359758854,-0.1026253626,-8.279149055,-4.247313976,2.434903145,-221.978021978022,-55.21978021978022,313.7142857142857,-6170.989010989011,5739.0,595.6043956043956,2
2024-06-15 12:12:29,0.08796459436,-0.003665191587,0.02809980139,-7.948749542,-5.068524837,2.518700123,-304.93023255813955,-45.06976744186046,-52.72093023255814,-6069.46511627907,5340.6511627906975,574.6279069767442,2
2024-06-15 12:12:29,0.05497787148,-0.07696902007,-0.1783726513,-6.900089264,-4.675876141,2.652775526,-73.27272727272728,39.27272727272727,230.0909090909091,-6100.090909090909,5512.909090909091,444.27272727272725,2
2024-06-15 12:12:29,0.05497787148,-0.07696902007,-0.1783726513,-6.900089264,-4.675876141,2.652775526,7.528089887640448,-271.8876404494382,19.97752808988764,-6049.101123595506,5993.898876404494,409.0561797752809,2
2024-06-15 12:12:29,0.02809980139,-0.01221730467,0.05253441259,-10.10592556,-6.028599739,4.039018154,-288.7674418604651,6.476744186046517,13.627906976744184,-6059.197674418605,5384.476744186047,504.98837209302326,2
2024-06-15 12:12:29,0.02809980139,-0.01221730467,0.05253441259,-10.10592556,-6.028599739,4.039018154,-7.714285714285708,-285.7142857142857,-114.71428571428572,-6055.406593406594,5534.582417582417,629.3516483516484,2
2024-06-15 12:12:29,0.2590068579,0.01954768784,0.3005456924,-7.364564419,-4.022258759,2.480392933,44.04761904761905,38.47619047619048,-67.85714285714286,-6099.619047619048,5727.547619047619,530.8571428571429,2
2024-06-15 12:12:30,-0.07086037099,0.07941248268,0.06841690838,-7.884106159,-4.939238071,2.990357876,-290.125,-318.7282608695652,5.75,-6076.771739130435,5891.391304347826,847.8641304347826,2
2024-06-15 12:12:30,-0.07086037099,0.07941248268,0.06841690838,-7.884106159,-4.939238071,2.990357876,-202.625,-317.64130434782606,-219.25,-6127.858695652174,5760.95652173913,847.320652173913,2
2024-06-15 12:12:30,-0.09896016866,0.1282816976,-0.1649336219,-7.374141216,-4.809951305,2.106897593,19.614379084967325,-98.63398692810458,-140.03267973856208,-6186.653594771242,5529.320261437909,460.60130718954247,2
2024-06-15 12:12:30,0.2455678284,-0.04031710699,-0.03420845419,-8.621520042,-4.436455727,3.60566783,273.8627450980392,-45.03921568627452,273.0392156862745,-6125.21568627451,5901.21568627451,420.078431372549,2
2024-06-15 12:12:30,0.2455678284,-0.04031710699,-0.03420845419,-8.621520042,-4.436455727,3.60566783,129.53932584269663,-122.25842696629216,-170.19101123595505,-6058.921348314607,5636.573033707865,580.2359550561798,2
2024-06-15 12:12:30,-0.02809980139,0.1820378453,-0.444709897,-7.754819393,-4.606443882,2.664746523,-45.318681318681314,230.34065934065933,-26.57142857142857,-6047.923076923077,5796.923076923077,425.5934065934066,2
2024-06-15 12:12:30,-0.02809980139,0.1820378453,-0.444709897,-7.754819393,-4.606443882,2.664746523,-154.7,25.7,-301.8,-5864.2,5734.2,471.6,2
2024-06-15 12:12:30,-0.235793978,0.2272418737,0.4251621962,-8.461109161,-5.535394192,3.078943491,338.96590909090907,245.4318181818182,300.1818181818182,-6137.465909090909,5833.579545454545,575.4431818181819,2
2024-06-15 12:12:30,-0.6609562039,0.03054326214,-0.01343903504,-5.386953831,-7.146692276,1.534683347,-6.827586206896555,-234.41379310344828,-328.17241379310343,-6235.172413793103,5782.6551724137935,550.5172413793103,2
2024-06-15 12:12:30,-0.6609562039,0.03054326214,-0.01343903504,-5.386953831,-7.146692276,1.534683347,-341.17241379310343,-180.896551724138,-195.6206896551724,-5817.758620689655,5367.517241379311,454.5862068965517,2
2024-06-15 12:12:31,-0.3090978265,-0.01221730467,-0.2663372457,-11.25274754,-6.253654957,3.184288263,-161.438202247191,-23.53932584269663,-261.40449438202245,-6297.393258426966,5152.5842696629215,581.2022471910112,2
2024-06-15 12:12:31,0.3677408695,0.05009094998,0.3824016452,-7.534552574,-4.898536682,2.391807556,11.488372093023258,-318.0,279.4418604651163,-6440.488372093023,6027.209302325581,405.2093023255814,2
2024-06-15 12:12:31,0.3677408695,0.05009094998,0.3824016452,-7.534552574,-4.898536682,2.391807556,-103.93333333333334,-213.7111111111111,-121.5222222222222,-6153.444444444444,6067.933333333333,738.1,2
2024-06-15 12:12:31,0.1783726513,0.1747074574,-0.1710422635,-6.928819656,-4.977545261,1.556231141,-34.111111111111114,-68.77777777777777,-424.962962962963,-6197.0,5405.074074074074,825.925925925926,2
2024-06-15 12:12:31,0.1783726513,0.1747074574,-0.1710422635,-6.928819656,-4.977545261,1.556231141,291.0,345.09090909090907,-305.0,-6131.772727272727,5445.022727272727,448.54545454545456,2
2024-06-15 12:12:31,-0.145385921,-0.02687807009,-0.4630358517,-9.081207275,-5.743690014,2.284068346,-76.71264367816093,-101.2528735632184,-266.9425287356322,-6142.494252873563,5095.666666666667,569.9195402298851,2
2024-06-15 12:12:31,0.1527163088,-0.1075122803,0.444709897,-7.884106159,-5.667075634,2.173935175,-13.534883720930232,-94.93023255813954,145.4418604651163,-6430.697674418605,5623.697674418605,564.6279069767442,2
2024-06-15 12:12:31,0.1527163088,-0.1075122803,0.444709897,-7.884106159,-5.667075634,2.173935175,37.06593406593407,-205.7142857142857,-31.967032967032964,-6224.9670329670325,5494.197802197802,585.4505494505495,2
2024-06-15 12:12:31,0.1844813079,0.3103195429,-0.1038470939,-7.750030994,-5.157110691,2.60010314,188.3563218390805,359.67816091954023,313.98850574712645,-6051.189655172414,5419.436781609195,205.5804597701149,2
2024-06-15 12:12:31,0.04276056588,0.2602286041,0.1172861308,-8.159439087,-4.857835293,1.807622313,176.86206896551724,353.9310344827586,353.0689655172414,-6056.362068965517,5634.379310344828,182.01724137931035,2
2024-06-15 12:12:32,0.04276056588,0.2602286041,0.1172861308,-8.159439087,-4.857835293,1.807622313,-98.92222222222222,-129.64444444444445,-93.22222222222224,-5988.477777777778,5409.877777777778,212.0222222222222,2
2024-06-15 12:12:32,0.2675589919,-0.1441642046,-0.1881465018,-5.971138954,-4.821922302,1.929726601,392.0232558139535,204.5116279069768,-65.51162790697674,-6092.813953488372,5681.2558139534885,294.0,2
2024-06-15 12:12:32,0.2675589919,-0.1441642046,-0.1881465018,-5.971138954,-4.821922302,1.929726601,-206.35955056179773,-217.23595505617976,-269.0449438202247,-6288.876404494382,5653.404494382023,373.3820224719101,2
2024-06-15 12:12:32,-0.299323976,-0.007330383174,-0.1075122803,-10.40041256,-6.308721542,2.327163935,75.65116279069767,-5.232558139534884,-258.9767441860465,-6111.6511627906975,5736.860465116279,324.8372093023256,2
2024-06-15 12:12:32,0.1637118906,0.2724458873,0.2541199327,-7.144298077,-5.209783077,1.565807939,-151.57954545454547,75.625,-291.35227272727275,-6396.636363636364,5526.227272727273,364.6363636363636,2
2024-06-15 12:12:32,0.1637118906,0.2724458873,0.2541199327,-7.144298077,-5.209783077,1.565807939,-347.3707865168539,279.7303370786517,-214.7865168539326,-6063.5842696629215,5746.426966292135,513.3595505617977,2
2024-06-15 12:12:32,-0.09651670605,-0.1185078546,-0.05497787148,-7.795520782,-5.437232018,1.110909581,-487.7931034482759,200.49425287356323,-290.57471264367814,-6094.540229885058,5421.241379310345,168.8505747126437,2
2024-06-15 12:12:32,-0.05742133409,0.1527163088,-0.1148426682,-7.12993288,-5.432443619,2.006340981,-313.27777777777777,334.55555555555554,-217.44444444444449,-6460.5,5080.055555555556,312.27777777777777,2
2024-06-15 12:12:32,-0.05742133409,0.1527163088,-0.1148426682,-7.12993288,-5.432443619,2.006340981,-4.213483146067418,-59.30337078651685,186.08988764044943,-6509.460674157303,5350.23595505618,291.9887640449438,2
2024-06-15 12:12:32,-0.07819075137,0.2186897546,-0.441044718,-8.985439301,-6.244078159,1.134851575,248.7912087912088,-304.6263736263736,31.362637362637365,-6279.054945054945,5706.395604395604,295.8131868131868,2
2024-06-15 12:12:33,-0.07819075137,0.2186897546,-0.441044718,-8.985439301,-6.244078159,1.134851575,485.4047619047619,-277.5238095238095,-360.16666666666663,-6421.142857142857,5523.9047619047615,162.35714285714286,2
2024-06-15 12:12:33,0.1881465018,0.2064724565,0.5338962078,-7.888894558,-5.64552784,1.364694953,508.4044943820225,-85.02247191011236,-210.0224719101124,-6379.573033707865,5152.0224719101125,101.0,2
2024-06-15 12:12:33,-0.3848451078,0.009773843922,-0.2455678284,-5.724536419,-6.418854713,1.034295082,-18.0,-245.0,-297.1666666666667,-6361.166666666667,5060.833333333333,-65.33333333333334,2
2024-06-15 12:12:33,-0.3848451078,0.009773843922,-0.2455678284,-5.724536419,-6.418854713,1.034295082,-90.69662921348316,-292.5056179775281,244.247191011236,-6448.5842696629215,5017.573033707865,186.6292134831461,2
2024-06-15 12:12:33,-0.4214970171,-0.007330383174,-0.07086037099,-10.85531044,-7.4363904,1.333570361,-74.25,-122.0625,164.21875,-6425.1875,5526.625,369.5625,2
2024-06-15 12:12:33,0.2883284092,-0.2223549485,0.2773328125,-6.672640324,-4.623203278,0.7541735172,-19.25,-123.3125,48.59375,-6188.9375,5599.125,320.8125,2
2024-06-15 12:12:33,0.2883284092,-0.2223549485,0.2773328125,-6.672640324,-4.623203278,0.7541735172,33.63333333333333,-56.16666666666666,519.8333333333334,-6412.8,5491.9,-105.6,2
2024-06-15 12:12:33,-0.0293215327,0.4105014503,-0.09285151958,-7.050923824,-4.991910458,1.343147159,-377.8125,-314.1875,-27.1875,-6105.5625,5904.0,310.1875,2
2024-06-15 12:12:33,-0.0293215327,0.4105014503,-0.09285151958,-7.050923824,-4.991910458,1.343147159,-6.0,-7.0,-178.5,-6248.5,5571.5,248.5,2
2024-06-15 12:12:33,-0.04398229718,-0.2431243658,-0.08063421398,-8.125920296,-5.963956356,1.185129881,-126.63636363636364,-52.81818181818182,-421.4772727272728,-6228.068181818182,5475.772727272727,87.36363636363637,2
2024-06-15 12:12:34,-0.1221730486,0.1979203373,-0.141720742,-6.83784008,-6.172252178,0.8714894056,-82.77777777777777,133.72222222222223,-285.22222222222223,-6261.5,5040.666666666667,24.22222222222223,2
2024-06-15 12:12:34,-0.1221730486,0.1979203373,-0.141720742,-6.83784008,-6.172252178,0.8714894056,61.01136363636363,-162.8181818181818,357.60227272727275,-6365.534090909091,5500.204545454545,0.556818181818187,2
2024-06-15 12:12:34,0.0354301855,0.08429940045,-0.09896016866,-9.677363396,-7.046135426,0.624886632,-259.53932584269666,-168.8876404494382,-341.19101123595505,-6214.3707865168535,5349.516853932584,149.75280898876406,2
2024-06-15 12:12:34,0.1942551434,0.1954768747,0.4239404798,-6.921637058,-5.602431774,0.3208230138,-123.94505494505496,347.57142857142856,17.065934065934066,-6108.648351648351,5138.208791208791,-37.65934065934066,2
2024-06-15 12:12:34,0.1942551434,0.1954768747,0.4239404798,-6.921637058,-5.602431774,0.3208230138,-298.1818181818182,11.386363636363631,-87.86363636363636,-6303.75,5589.159090909091,301.84090909090907,2
2024-06-15 12:12:34,0.5155702829,0.00244346098,-0.3090978265,-5.928043365,-4.932055473,0.09816227108,-50.70588235294117,371.7058823529412,-461.05882352941177,-6196.176470588235,5418.176470588235,-97.58823529411764,2
2024-06-15 12:12:34,0.5155702829,0.00244346098,-0.3090978265,-5.928043365,-4.932055473,0.09816227108,85.93333333333334,78.44444444444444,-16.400000000000006,-6318.533333333334,5678.044444444445,25.08888888888889,2
2024-06-15 12:12:34,-0.1160643995,0.0171042271,-0.06597344577,-10.22324085,-6.866570473,0.9864110947,-130.54022988505747,-68.48275862068965,-319.3908045977012,-6705.057471264367,5510.172413793103,-16.0,2
2024-06-15 12:12:34,0.2199114859,0.3762930036,0.08307767659,-6.921637058,-5.209783077,0.09816227108,18.813186813186817,-461.72527472527474,-181.63736263736263,-6571.428571428572,5122.912087912088,177.4065934065934,2
2024-06-15 12:12:34,0.2199114859,0.3762930036,0.08307767659,-6.921637058,-5.209783077,0.09816227108,208.66292134831463,-20.898876404494388,8.404494382022449,-6173.494382022472,4518.887640449439,308.23595505617976,2
2024-06-15 12:12:35,0.1270599663,-0.05497787148,-0.1759291887,-5.525817394,-5.817910194,-0.04548983276,325.0449438202247,269.87640449438203,515.8764044943821,-6475.101123595506,5374.460674157303,113.0561797752809,2
2024-06-15 12:12:35,-0.1392772794,0.007330383174,-0.09529497474,-9.883264542,-7.797914982,-0.5770025849,-275.2068965517241,2.632183908045974,595.9080459770115,-6148.149425287356,5458.908045977011,-85.06896551724138,2
2024-06-15 12:12:35,-0.1392772794,0.007330383174,-0.09529497474,-9.883264542,-7.797914982,-0.5770025849,-233.04545454545453,104.36363636363636,325.0,-6005.477272727273,5607.795454545455,-14.25,2
2024-06-15 12:12:35,0.2309070677,-0.2638937831,0.3164281845,-7.010222435,-5.157110691,-0.174776718,86.24137931034483,161.89655172413794,207.20689655172413,-5842.068965517241,5769.517241379311,-67.51724137931035,2
2024-06-15 12:12:35,0.2309070677,-0.2638937831,0.3164281845,-7.010222435,-5.157110691,-0.174776718,-107.93258426966293,71.79775280898876,382.3820224719101,-6129.528089887641,6190.606741573034,79.08988764044943,2
2024-06-15 12:12:35,0.1233947799,0.2785545588,-0.0109955743,-7.759607792,-6.112396717,0.3040636182,-219.0,-55.48387096774192,-180.11827956989248,-5718.881720430108,5935.354838709677,-53.83870967741936,2
2024-06-15 12:12:35,0.06963863969,-0.1478293836,-0.09773843735,-6.928819656,-6.591237068,-0.3256114423,-243.04651162790697,437.72093023255815,-242.093023255814,-5815.023255813953,5950.279069767442,-204.3953488372093,2
2024-06-15 12:12:35,0.06963863969,-0.1478293836,-0.09773843735,-6.928819656,-6.591237068,-0.3256114423,-499.8101265822785,116.36708860759492,-248.53164556962025,-6213.354430379747,5899.417721518988,-84.9620253164557,2
2024-06-15 12:12:35,-1.273043156,-0.009773843922,0.4605923891,-5.975927353,-6.155492783,-2.030282974,-118.68965517241378,240.1034482758621,-180.44827586206893,-5992.827586206897,5431.0,74.17241379310344,2
2024-06-15 12:12:35,-0.3701843321,-0.8063421249,-0.5595525503,-7.931990147,-6.337451935,-0.9074024558,338.1208791208791,-14.14285714285714,-361.4065934065934,-6187.912087912088,5641.406593406593,-324.6373626373626,2
2024-06-15 12:12:36,-0.3701843321,-0.8063421249,-0.5595525503,-7.931990147,-6.337451935,-0.9074024558,-315.29213483146066,42.02247191011236,-1.8539325842696712,-6258.168539325843,5894.943820224719,-10.707865168539342,2
2024-06-15 12:12:36,-0.2883284092,-1.742187738,-0.9260717034,-6.732495308,-6.581660271,1.249773264,-271.875,294.1931818181818,320.54545454545456,-6152.102272727273,5491.659090909091,64.82954545454545,2
2024-06-15 12:12:36,-0.2883284092,-1.742187738,-0.9260717034,-6.732495308,-6.581660271,1.249773264,-287.735632183908,106.44827586206895,736.8620689655172,-6240.264367816092,6195.413793103448,48.367816091954026,2
2024-06-15 12:12:36,-0.3726277947,-0.7586946487,-0.6206390858,-6.785167694,-8.259995461,2.183511972,-211.61797752808988,-163.97752808988764,264.82022471910113,-5863.393258426966,6080.966292134832,274.29213483146066,2
2024-06-15 12:12:36,0.5045747161,-0.006108652335,0.1637118906,-6.818686485,-8.920795441,4.319139957,108.21176470588236,-70.30588235294118,-274.4470588235294,-5654.117647058823,5737.094117647059,30.11764705882353,2
2024-06-15 12:12:36,0.5045747161,-0.006108652335,0.1637118906,-6.818686485,-8.920795441,4.319139957,279.97752808988764,418.7640449438202,-80.58426966292134,-5688.112359550561,5456.101123595506,-132.58426966292134,2
2024-06-15 12:12:36,0.6218608022,1.419650793,0.7330383062,-5.935225964,-7.481880188,1.675941229,-263.3095238095238,-227.7619047619048,155.61904761904762,-5922.928571428572,6207.119047619048,47.90476190476191,2
2024-06-15 12:12:36,1.03969264,1.847256541,1.103222609,-9.751583099,-7.13232708,2.8993783,-263.9047619047619,-150.38095238095238,-43.19047619047621,-5999.714285714285,6170.809523809524,91.95238095238096,2
2024-06-15 12:12:36,1.03969264,1.847256541,1.103222609,-9.751583099,-7.13232708,2.8993783,-50.820224719101134,330.0561797752809,-29.438202247190983,-5797.70786516854,6113.29213483146,-289.82022471910113,2
2024-06-15 12:12:36,1.051909924,0.9272934198,0.0293215327,-7.043741226,-6.162675381,-3.045424461,-279.90697674418607,88.69767441860465,-340.6279069767442,-5910.116279069767,5741.46511627907,-356.37209302325584,2
2024-06-15 12:12:37,1.051909924,0.9272934198,0.0293215327,-7.043741226,-6.162675381,-3.045424461,262.65,-98.95,113.53333333333332,-5856.066666666667,5930.2,-144.9,2
2024-06-15 12:12:37,-0.7110471725,0.3164281845,-0.3371976018,-5.358223438,-5.784391403,-3.665522814,-49.01666666666665,-30.61666666666666,-2.0222222222222257,-5824.955555555555,6103.533333333334,-208.2333333333333,2
2024-06-15 12:12:37,-0.04886921868,-0.3396410644,-0.3469714522,-7.077260017,-6.825869083,-3.332728863,115.7529411764706,-59.52941176470589,-405.1058823529412,-5884.129411764706,5551.658823529412,-321.56470588235294,2
2024-06-15 12:12:37,-0.04886921868,-0.3396410644,-0.3469714522,-7.077260017,-6.825869083,-3.332728863,39.896551724137936,5.724137931034484,-30.34482758620689,-5832.413793103448,5685.287356321839,-149.6551724137931,2
2024-06-15 12:12:37,0.4459316432,-0.2345722616,0.05131268129,-6.368576527,-5.516240597,-3.294421434,303.0574712643678,-368.0689655172414,118.85057471264368,-5809.0,6145.402298850575,-123.57471264367815,2
2024-06-15 12:12:37,0.04031710699,-0.4642575979,0.1661553532,-6.87854147,-6.35660553,-1.493981838,101.38888888888889,-112.38888888888889,-483.1666666666666,-5810.5,6096.666666666667,-159.5,2
2024-06-15 12:12:37,0.04031710699,-0.4642575979,0.1661553532,-6.87854147,-6.35660553,-1.493981838,-238.88172043010752,96.48387096774194,-417.1935483870968,-5873.311827956989,5374.043010752688,-462.35483870967744,2
2024-06-15 12:12:37,-0.08796459436,0.770911932,0.08674286306,-6.864176273,-5.102043629,-0.605733037,75.11627906976744,39.58139534883719,868.7325581395348,-6192.790697674419,5860.360465116279,-219.88372093023256,2
2024-06-15 12:12:37,-0.08796459436,0.770911932,0.08674286306,-6.864176273,-5.102043629,-0.605733037,-67.33333333333334,-179.93333333333334,374.4,-5954.8,6275.333333333333,-294.33333333333337,2
2024-06-15 12:12:37,0.393397212,-0.5338962078,0.08185594529,-8.492233276,-7.448361397,-2.023100376,-71.02197802197801,-104.21978021978023,-303.3076923076923,-5629.851648351649,6102.851648351649,-328.14835164835165,2
2024-06-15 12:12:38,0.2296853364,-0.2443460971,0.0171042271,-6.569689274,-6.212953568,0.8427590132,-73.51724137931035,91.4367816091954,-265.9310344827586,-5524.517241379311,6118.620689655172,-337.6551724137931,2
2024-06-15 12:12:38,0.2296853364,-0.2443460971,0.0171042271,-6.569689274,-6.212953568,0.8427590132,63.88235294117647,-308.5882352941176,60.05882352941177,-5837.176470588235,5999.0,-202.8235294117647,2
2024-06-15 12:12:38,0.3152064681,0.4227187634,0.2528982162,-8.420407295,-5.585672379,-1.142034173,46.11111111111112,-152.16666666666666,-134.22222222222223,-5963.5,5909.166666666667,-260.3333333333333,2
2024-06-15 12:12:38,0.9456194043,-0.2956587672,-0.4080579877,-5.724536419,-5.875370979,-3.303998232,-338.5,35.5,-363.0,-5995.5,5732.5,-302.5,2
2024-06-15 12:12:38,0.9456194043,-0.2956587672,-0.4080579877,-5.724536419,-5.875370979,-3.303998232,33.39325842696629,-17.449438202247194,39.853932584269664,-5896.820224719101,5513.865168539326,-376.8876404494382,2
2024-06-15 12:12:38,-0.01954768784,0.06597344577,-0.2651155293,-5.049371243,-7.184999466,-2.956839085,-12.510067114093957,-34.852348993288594,-47.24832214765101,-5950.2885906040265,5678.0,-182.0738255033557,2
2024-06-15 12:12:38,-0.01954768784,0.06597344577,-0.2651155293,-5.049371243,-7.184999466,-2.956839085,-119.55704697986576,-31.49664429530201,28.926174496644293,-5902.302013422819,5828.0,-183.751677852349,2
2024-06-15 12:12:38,-1.485624313,-0.07086037099,-0.2577851415,-7.630321026,-10.29506683,0.7924807668,-226.6040268456376,-28.14093959731544,105.1006711409396,-5854.315436241611,5978.0,-185.4295302013423,2
2024-06-15 12:12:38,-0.7513642311,0.3029891551,-0.1001819,-5.044582844,-5.528211594,-3.112462282,88.0,-14.666666666666664,-596.6666666666667,-5639.0,6627.666666666667,-175.0,2
2024-06-15 12:12:38,-0.7513642311,0.3029891551,-0.1001819,-5.044582844,-5.528211594,-3.112462282,-542.2307692307693,-578.7692307692307,-2298.923076923077,-6512.307692307692,6957.2307692307695,-397.0,2
2024-06-15 12:12:39,0.6792821288,-0.7476990819,-0.4080579877,-10.14183807,-7.95832634,-4.647145271,53.0,-1429.5,-3230.0,-6679.5,6637.5,-546.25,2
2024-06-15 12:12:39,1.089783549,-0.3628539443,0.08429940045,-6.416460514,-7.084442616,1.034295082,284.1294117647059,-1750.1411764705883,-4406.117647058823,-6741.858823529412,5463.7411764705885,-462.6470588235294,2
2024-06-15 12:12:39,1.089783549,-0.3628539443,0.08429940045,-6.416460514,-7.084442616,1.034295082,832.2417582417582,-1782.5274725274726,-4830.846153846154,-6893.153846153846,4062.285714285714,726.4615384615385,2
2024-06-15 12:12:39,-0.3176499307,0.2724458873,-0.2626720667,-6.936002254,-8.796297073,-1.685518026,2017.0734463276835,-1153.372881355932,-4013.649717514125,-7307.706214689266,1909.7570621468928,938.3389830508474,2
2024-06-15 12:12:39,-0.3176499307,0.2724458873,-0.2626720667,-6.936002254,-8.796297073,-1.685518026,1919.554347826087,-311.8369565217391,-3588.978260869565,-7391.315217391304,1116.195652173913,815.1086956521739,2
2024-06-15 12:12:39,0.06475171447,1.100779176,-0.0354301855,-6.83784008,-6.744466305,-2.312798738,1460.8837209302326,-518.3255813953489,-2725.279069767442,-7824.5,-96.2906976744186,811.8604651162791,2
2024-06-15 12:12:39,0.5839871764,-0.6902777553,-0.0232128799,-6.208165169,-6.248866558,-1.285686255,310.7333333333333,-1183.1333333333332,-2482.5333333333333,-8183.533333333334,8.0,641.4666666666667,2
2024-06-15 12:12:39,0.5839871764,-0.6902777553,-0.0232128799,-6.208165169,-6.248866558,-1.285686255,232.2696629213483,-1345.752808988764,-2019.584269662921,-7676.157303370786,-604.876404494382,931.6741573033707,2
2024-06-15 12:12:39,-0.1368338168,0.2797762752,-0.2919935882,-5.054159641,-7.122750282,-2.614468336,-907.7078651685392,-688.561797752809,-2409.494382022472,-8026.651685393258,-767.9662921348315,1010.865168539326,2
2024-06-15 12:12:39,-0.196698606,0.5094616413,-0.1551597714,-5.901707172,-6.239289761,-2.197877169,-700.0795454545455,-4.272727272727266,-1866.5454545454545,-9062.920454545454,-1725.0227272727273,1492.6136363636365,2
2024-06-15 12:12:40,-0.196698606,0.5094616413,-0.1551597714,-5.901707172,-6.239289761,-2.197877169,-458.8913043478261,384.7934782608696,-812.9782608695652,-8605.847826086956,-1445.4130434782608,1480.2717391304348,2
2024-06-15 12:12:40,-0.7110471725,-0.03298672289,0.02565634064,-6.517016888,-7.757213593,-1.845929503,929.9186046511628,164.9418604651163,563.2674418604652,-7837.162790697675,-1633.4186046511627,1592.406976744186,2
2024-06-15 12:12:40,-0.7110471725,-0.03298672289,0.02565634064,-6.517016888,-7.757213593,-1.845929503,2033.5494505494505,717.8571428571429,1055.7252747252746,-7973.692307692308,-1011.9120879120878,1693.7032967032967,2
2024-06-15 12:12:40,-0.1221730486,0.01954768784,0.5400048494,-8.853757858,-7.611167431,-3.110068083,2374.827160493828,1485.9876543209878,1316.8271604938273,-8266.382716049382,-188.641975308642,1528.6666666666667,2
2024-06-15 12:12:40,-0.1588249654,-0.1893682331,0.3139847219,-5.64552784,-5.149928093,-3.885789394,2025.869565217392,1759.3695652173913,1008.717391304348,-8468.782608695652,-314.5652173913044,1151.5,2
2024-06-15 12:12:40,-0.1588249654,-0.1893682331,0.3139847219,-5.64552784,-5.149928093,-3.885789394,2070.4347826086955,1666.4347826086955,1038.608695652174,-8776.391304347826,-254.7826086956522,939.0,2
2024-06-15 12:12:40,-3.478266716,-0.338419348,0.3872885704,-5.145139217,-3.557783842,-6.569689274,1572.1371428571429,-403.2057142857143,-382.7771428571429,-8406.371428571429,-503.13142857142856,754.2914285714286,2
2024-06-15 12:12:40,-0.1038470939,-0.7476990819,0.06475171447,-4.012681961,-2.020706177,-3.706224203,997.5,-760.0,-453.5,-8351.5,-659.5,706.5,2
2024-06-15 12:12:40,-0.1038470939,-0.7476990819,0.06475171447,-4.012681961,-2.020706177,-3.706224203,524.2222222222222,-22.944444444444443,355.77777777777777,-8475.833333333334,-339.05555555555554,1080.7222222222222,2
2024-06-15 12:12:40,0.5057964325,0.8026769161,-1.005484223,-8.377311707,-3.385401249,-4.276044369,-594.6404494382023,-70.51685393258427,-9.68539325842697,-8483.1797752809,-467.6067415730337,1095.494382022472,2
2024-06-15 12:12:41,0.5057964325,0.8026769161,-1.005484223,-8.377311707,-3.385401249,-4.276044369,-2056.712643678161,264.7931034482759,203.86206896551724,-8485.022988505747,-135.5287356321839,703.6781609195402,2
2024-06-15 12:12:41,0.03054326214,0.6670648456,-0.9346238375,-7.61595583,-8.197746277,-5.64313364,-2364.609756097561,-170.02439024390242,517.2926829268292,-8547.707317073171,-340.3170731707317,749.170731707317,2
2024-06-15 12:12:41,0.5974262357,0.2553416789,0.02809980139,-6.363788128,-5.664681435,-6.375759125,-2001.6,-466.2,272.7,-8479.0,-302.1,1055.7,2
2024-06-15 12:12:41,0.5974262357,0.2553416789,0.02809980139,-6.363788128,-5.664681435,-6.375759125,-1937.7272727272727,-369.6363636363636,315.72727272727275,-8149.727272727273,-349.0,941.7272727272727,2
2024-06-15 12:12:41,0.4508185387,-0.2260201424,0.09529497474,-4.738125324,-6.531382084,-5.700594425,-725.2758620689656,180.7816091954023,-315.18390804597703,-8388.218390804597,-358.8735632183908,1102.8390804597702,2
2024-06-15 12:12:41,0.3066543639,0.3616322279,0.2626720667,-6.172252178,-6.323086739,-4.874594688,-538.4090909090909,-97.54545454545456,318.22727272727275,-8332.318181818182,64.72727272727273,768.3636363636364,2
2024-06-15 12:12:41,0.3066543639,0.3616322279,0.2626720667,-6.172252178,-6.323086739,-4.874594688,19.0,214.7159090909091,348.89772727272725,-8411.886363636364,-82.63636363636364,1047.3295454545455,2
2024-06-15 12:12:41,0.3127630055,0.1050688252,0.3787364662,-5.736507416,-4.714183331,-5.741295815,-72.13333333333333,564.1333333333333,-325.0,-8086.2,-298.53333333333336,744.6,2
2024-06-15 12:12:41,0.5033529401,0.3750712574,-0.08796459436,-5.094861031,-5.480327606,-5.932831764,-206.8314606741573,716.370786516854,-655.0786516853933,-8495.651685393259,-313.51685393258424,341.60674157303373,2
2024-06-15 12:12:41,0.5033529401,0.3750712574,-0.08796459436,-5.094861031,-5.480327606,-5.932831764,-469.5576208178439,47.01858736059479,-528.8104089219331,-8316.230483271376,-254.6914498141264,640.1524163568773,2
2024-06-15 12:12:42,0.196698606,0.4948008358,0.5070181489,-7.275979042,-4.673481941,-6.435614109,-402.64312267658,44.78810408921933,-371.5613382899628,-8248.57249070632,-351.7174721189591,701.8624535315985,2
2024-06-15 12:12:42,0.196698606,0.4948008358,0.5070181489,-7.275979042,-4.673481941,-6.435614109,-7.622222222222234,62.333333333333336,-208.3333333333333,-8238.111111111111,-458.53333333333336,708.3111111111111,2
2024-06-15 12:12:42,0.4190535545,-1.102000952,0.4153883755,-10.48181534,-5.944802761,-5.657498837,5314.585365853659,-659.109756097561,804.2926829268292,-8483.048780487805,-1146.060975609756,930.7560975609756,2
2024-06-15 12:12:42,0.58276546,-2.350609541,1.984090328,-7.771578789,-4.367023945,-2.432508945,11269.076923076922,-802.6153846153846,1690.923076923077,-8238.76923076923,-48.30769230769226,529.8461538461538,2
2024-06-15 12:12:42,0.58276546,-2.350609541,1.984090328,-7.771578789,-4.367023945,-2.432508945,9787.15909090909,276.1818181818182,1249.3863636363635,-8204.625,1949.4772727272727,102.8409090909091,2
2024-06-15 12:12:42,0.1918116808,-2.201558352,1.71530962,-6.777985096,-2.161964178,1.728613615,2689.8275862068967,539.1379310344828,267.1034482758621,-8176.206896551724,2289.0689655172414,853.5862068965517,2
2024-06-15 12:12:42,-1.684766293,-1.071457624,1.401324868,-12.60307789,0.2537853718,-1.721431017,-754.7078651685393,500.4494382022472,-173.57303370786516,-8532.348314606741,2253.955056179775,774.8651685393259,2
2024-06-15 12:12:42,-1.684766293,-1.071457624,1.401324868,-12.60307789,0.2537853718,-1.721431017,-5699.589189189189,1795.9513513513514,184.62702702702703,-7956.691891891892,3132.751351351352,0.9459459459459508,2
2024-06-15 12:12:42,-0.2858849466,-0.8368853927,0.9566149712,-3.703830004,3.770867586,6.643909931,-6335.8054054054055,2148.9243243243245,324.0864864864865,-7958.854054054054,3025.724324324324,-217.97297297297297,2
2024-06-15 12:12:42,-0.2858849466,-0.8368853927,0.9566149712,-3.703830004,3.770867586,6.643909931,-12555.093333333334,2741.733333333333,822.68,-8497.76,1403.2266666666667,11.200000000000005,2
2024-06-15 12:12:43,-0.5216789246,0.125838235,0.09896016866,-7.706935406,2.30801034,5.171475887,-6819.53488372093,1767.3488372093022,-389.3255813953489,-7342.372093023256,638.5813953488372,-52.5,2
2024-06-15 12:12:43,-0.141720742,-0.2089159191,-0.05497787148,-7.196970463,2.336740971,6.011840343,-3840.112359550562,3163.202247191012,479.4269662921348,-8257.606741573034,1734.696629213483,-1483.8539325842696,2
2024-06-15 12:12:43,-0.141720742,-0.2089159191,-0.05497787148,-7.196970463,2.336740971,6.011840343,-2262.8255813953488,709.1279069767443,37.88372093023256,-9142.058139534884,1485.5232558139537,-548.5813953488372,2
2024-06-15 12:12:43,-0.02565634064,-0.4263839424,-0.2467895597,-6.926425457,2.123656988,6.10281992,-2370.213483146068,837.9101123595506,-861.3595505617977,-7124.921348314607,2098.988764044944,-1019.7191011235956,2
2024-06-15 12:12:43,-0.9395107627,-0.4520402849,-0.08429940045,-6.129156113,2.020706177,6.600813866,-2763.6853932584268,1048.865168539326,-888.3932584269663,-8252.41573033708,1662.258426966292,-1177.6741573033707,2
2024-06-15 12:12:43,-0.9395107627,-0.4520402849,-0.08429940045,-6.129156113,2.020706177,6.600813866,-2686.8988764044943,98.58426966292134,-303.6966292134831,-7519.898876404494,1594.191011235955,-233.438202247191,2
2024-06-15 12:12:43,-1.295034289,0.04886921868,0.05742133409,-7.333439827,0.3591302633,5.614402771,-2059.551724137931,823.2931034482758,1045.5344827586207,-7554.379310344828,2374.655172413793,275.86206896551727,2
2024-06-15 12:12:43,-1.295034289,0.04886921868,0.05742133409,-7.333439827,0.3591302633,5.614402771,-2106.6781609195405,718.1206896551724,1004.7298850574712,-7422.19540229885,2316.0344827586205,239.0804597701149,2
2024-06-15 12:12:43,2.002416372,0.01832595654,0.3738495409,-5.207388878,1.738190413,8.125920296,-1459.7333333333331,1496.4888888888888,1589.0444444444445,-8066.977777777778,3806.266666666667,-110.2,2
2024-06-15 12:12:43,-0.25167647,0.2981022298,0.2968805134,-5.193023682,3.622427225,7.062894821,-833.8695652173913,523.6739130434783,1270.391304347826,-7817.597826086957,3632.75,-158.94565217391306,2
2024-06-15 12:12:44,-0.25167647,0.2981022298,0.2968805134,-5.193023682,3.622427225,7.062894821,-575.4883720930233,-319.48837209302326,945.093023255814,-5952.627906976744,2950.6744186046512,32.51162790697674,2
2024-06-15 12:12:44,1.040914416,0.2186897546,0.7574729323,-7.80509758,4.407725334,5.710171223,-1767.370786516854,1152.9775280898875,2110.438202247191,-6917.91011235955,4121.179775280899,-250.39325842696627,2
2024-06-15 12:12:44,0.2700024247,-0.008552113548,0.2492330223,-5.913678169,4.060565948,4.721365929,-842.3888888888889,627.6666666666666,1295.5555555555557,-7008.888888888889,4593.166666666667,-927.8888888888888,2
2024-06-15 12:12:44,0.2700024247,-0.008552113548,0.2492330223,-5.913678169,4.060565948,4.721365929,-443.0697674418605,117.90697674418604,753.5581395348837,-7288.162790697675,4397.348837209303,-1127.0232558139537,2
2024-06-15 12:12:44,0.6902777553,0.01343903504,0.2846632004,-5.760449409,5.590460777,5.123591423,-108.5531914893617,-266.6595744680851,451.6808510638298,-7274.702127659574,4472.978723404255,-1121.957446808511,2
2024-06-15 12:12:44,0.6902777553,0.01343903504,0.2846632004,-5.760449409,5.590460777,5.123591423,-131.390243902439,226.4390243902439,840.170731707317,-7648.487804878048,5077.707317073171,-1241.8292682926829,2
2024-06-15 12:12:44,0.4031710625,0.1869247705,-0.03909537569,-4.266467571,6.306327343,5.916072369,-326.8787878787879,133.78787878787878,441.1111111111111,-7408.49494949495,4833.212121212121,-944.7373737373738,2
2024-06-15 12:12:44,-0.4752531648,1.051909924,-2.124589205,-3.622427225,4.19464159,4.158728123,-210.90123456790124,252.07407407407408,473.6296296296296,-7009.975308641975,5129.679012345679,-1358.641975308642,2
2024-06-15 12:12:44,-0.4752531648,1.051909924,-2.124589205,-3.622427225,4.19464159,4.158728123,-333.710843373494,221.0120481927711,50.95180722891564,-6707.108433734939,4916.204819277108,-1004.7710843373494,2
2024-06-15 12:12:44,-0.1441642046,1.538158655,-3.362202406,-11.31978607,1.333570361,1.276109457,-165.375,163.02083333333334,82.64583333333334,-6631.770833333333,4832.375,-986.6666666666666,2
2024-06-15 12:12:45,-0.1441642046,1.538158655,-3.362202406,-8.975862503,-6.246472359,-1.441309452,56.5,135.41666666666666,276.9166666666667,-6560.416666666667,4760.5,-953.3333333333334,2
2024-06-15 12:12:45,-1.298699498,1.315803766,-1.894904017,-8.975862503,-6.246472359,-1.441309452,109.95505617977528,-91.76404494382022,284.5168539325843,-6706.775280898876,5042.651685393258,-1302.3820224719102,2
2024-06-15 12:12:45,-0.471587956,0.1979203373,-0.7403686643,-6.84023428,-6.248866558,-2.870647907,-158.1590909090909,-328.97727272727275,-25.90909090909091,-6333.068181818182,5208.795454545455,-1130.4545454545455,2
2024-06-15 12:12:45,-0.471587956,0.1979203373,-0.7403686643,-6.84023428,-6.248866558,-2.870647907,28.674157303370784,-251.48314606741573,-60.41573033707865,-6451.056179775281,4928.056179775281,-1039.7078651685392,2
2024-06-15 12:12:45,1.169196129,-0.2944370508,0.01343903504,-8.099584579,-5.841852188,-1.046266198,-10.561403508771932,-118.10526315789474,109.10526315789474,-6482.1578947368425,5040.245614035088,-1048.122807017544,2
2024-06-15 12:12:45,0.9566149712,0.3946189582,0.4312708676,-7.623138428,-5.650316238,-0.1388636976,-197.11111111111111,-109.33333333333331,100.33333333333331,-6352.333333333333,5053.111111111111,-1054.5555555555557,2
2024-06-15 12:12:45,0.9566149712,0.3946189582,0.4312708676,-7.623138428,-5.650316238,-0.1388636976,-92.27551020408164,53.755102040816325,89.21428571428572,-6287.34693877551,5220.591836734694,-1079.2755102040817,2
2024-06-15 12:12:45,-0.09285151958,-0.228463605,0.03909537569,-7.76679039,-6.052541733,-1.656787634,-158.86486486486487,26.405405405405407,-271.2432432432432,-6364.513513513513,5166.027027027027,-1095.027027027027,2
2024-06-15 12:12:45,0.08552113175,-0.03909537569,0.09896016866,-8.075642586,-5.09725523,-0.3734954596,172.52808988764048,-277.34831460674155,-322.8876404494382,-6361.831460674157,5172.146067415731,-792.8314606741574,2
2024-06-15 12:12:45,0.08552113175,-0.03909537569,0.09896016866,-8.075642586,-5.09725523,-0.3734954596,192.7865168539326,-339.9550561797753,-338.4494382022472,-6327.6292134831465,4846.853932584269,-1041.6404494382025,2
2024-06-15 12:12:46,0.1808161139,-0.1343903542,0.08063421398,-8.530540466,-4.582501888,-0.4596867263,275.70786516853934,-148.46067415730337,110.58426966292134,-6330.08988764045,4819.269662921349,-1049.8314606741574,2
2024-06-15 12:12:46,0.1808161139,-0.1343903542,0.08063421398,-8.530540466,-4.582501888,-0.4596867263,-10.717391304347824,-247.3260869565217,91.8586956521739,-6336.239130434783,4878.967391304348,-1030.7065217391305,2
2024-06-15 12:12:46,0.03298672289,-0.0354301855,0.05742133409,-8.358158112,-4.357447147,-0.7350199223,-278.51162790697674,53.093023255813954,-44.604651162790695,-6592.558139534884,5213.441860465116,-1055.3488372093022,2
2024-06-15 12:12:46,-0.02687807009,-0.04276056588,0.03176499158,-8.044517517,-4.817133904,-0.05267243832,0.6222222222222222,-291.22222222222223,58.48888888888889,-6283.955555555555,5015.333333333333,-1075.7555555555557,2
2024-06-15 12:12:46,-0.02687807009,-0.04276056588,0.03176499158,-8.044517517,-4.817133904,-0.05267243832,140.39772727272728,98.72727272727272,306.8863636363636,-6372.590909090909,5041.795454545455,-1074.4886363636365,2
2024-06-15 12:12:46,-0.2003637999,0.01832595654,-0.1624901593,-6.665457726,-4.527435303,-0.1651999205,85.62068965517244,32.03448275862069,180.20689655172413,-6506.586206896552,5279.689655172414,-1077.551724137931,2
2024-06-15 12:12:46,-0.1991420686,-0.01588249579,0.08552113175,-10.54406452,-5.638344765,-0.174776718,-190.8426966292135,-372.7415730337079,23.876404494382022,-6329.775280898876,4907.797752808989,-754.2022471910112,2
2024-06-15 12:12:46,-0.1991420686,-0.01588249579,0.08552113175,-10.54406452,-5.638344765,-0.174776718,7.275862068965523,-326.3103448275862,-25.793103448275858,-6283.724137931034,5068.896551724138,-718.4827586206897,2
2024-06-15 12:12:46,0.09040805697,-0.0293215327,-0.03054326214,-6.713341713,-4.216189384,-0.4788403511,-340.44444444444446,-312.1333333333333,-109.64444444444445,-6295.777777777777,5076.822222222222,-659.1777777777778,2
2024-06-15 12:12:46,0.09040805697,-0.0293215327,-0.03054326214,-6.713341713,-4.216189384,-0.4788403511,-168.80898876404495,79.4494382022472,-44.752808988764045,-6298.955056179775,4803.359550561798,-645.2584269662922,2
2024-06-15 12:12:47,-0.03054326214,0.0,-0.00122173049,-8.281543732,-5.137956619,-0.06464344263,288.85714285714283,-95.61904761904762,-3.80952380952381,-6403.333333333333,5436.285714285715,-674.4761904761905,2
2024-06-15 12:12:47,0.06352998316,0.09407325089,-0.08796459436,-7.524975777,-3.632004023,0.02154781483,9.265306122448976,-7.183673469387756,54.69387755102041,-6598.571428571428,5309.755102040816,-663.5918367346939,2
2024-06-15 12:12:47,0.06352998316,0.09407325089,-0.08796459436,-7.524975777,-3.632004023,0.02154781483,48.0,44.48809523809524,87.20238095238095,-6417.333333333333,4790.714285714285,-710.8809523809524,2
2024-06-15 12:12:47,-0.04031710699,-0.00122173049,0.0109955743,-10.01015759,-5.334281445,-0.4620809257,54.14285714285714,-167.62637362637363,178.5054945054945,-6342.758241758242,5360.021978021978,-783.9230769230769,2
2024-06-15 12:12:47,-0.04031710699,-0.00122173049,0.0109955743,-6.730101109,-4.668693542,-0.4932055473,10.611111111111114,-373.6666666666667,27.11111111111111,-6317.722222222223,5454.222222222223,-648.8333333333334,2
2024-06-15 12:12:47,0.02199114859,-0.008552113548,0.02443460934,-6.730101109,-4.668693542,-0.4932055473,-292.60869565217394,-50.782608695652186,-292.0434782608696,-6497.0,5171.04347826087,-830.1739130434783,2
2024-06-15 12:12:47,-0.08674286306,0.1551597714,-0.1026253626,-11.58075333,-5.154716492,-0.8355764151,236.88372093023256,13.627906976744184,-58.94186046511628,-6307.813953488372,5205.732558139535,-825.1279069767442,2
2024-06-15 12:12:47,-0.08674286306,0.1551597714,-0.1026253626,-11.58075333,-5.154716492,-0.8355764151,75.6,37.0,101.2,-6306.933333333333,5461.866666666667,-822.4666666666667,2
2024-06-15 12:12:47,0.3078760803,0.3726277947,0.07330382615,-7.912836552,-4.153939724,-0.9313444495,-332.48387096774195,15.193548387096774,-270.06451612903226,-6301.258064516129,5104.580645161291,-423.8064516129032,2
2024-06-15 12:12:47,-0.08185594529,-0.01588249579,0.0293215327,-8.226476669,-4.355052948,-1.106121182,-230.95348837209303,95.32558139534883,-228.6744186046512,-6486.011627906977,4846.616279069767,-525.5813953488372,2
2024-06-15 12:12:48,-0.08185594529,-0.01588249579,0.0293215327,-8.226476669,-4.355052948,-1.106121182,-75.0,-111.5,187.25,-6310.0,5039.5,-796.5,2
2024-06-15 12:12:48,-0.03909537569,0.03176499158,-0.02687807009,-8.360552788,-4.589684486,-0.7972691655,56.625,54.625,-93.0,-6493.125,5077.0,-794.0,2
2024-06-15 12:12:48,0.01343903504,-0.006108652335,0.03420845419,-7.975085735,-4.977545261,-1.082179189,4.640449438202253,-41.561797752808985,54.95505617977528,-6449.528089887641,5143.494382022472,-651.7415730337078,2
2024-06-15 12:12:48,0.01343903504,-0.006108652335,0.03420845419,-7.975085735,-4.977545261,-1.082179189,209.2826086956522,-40.72826086956522,185.6413043478261,-6311.217391304348,5125.119565217391,-657.7173913043479,2
2024-06-15 12:12:48,0.01832595654,0.01832595654,-0.0232128799,-8.884882927,-3.991134167,-1.022324085,329.85714285714283,33.28571428571429,287.0,-6302.428571428572,5243.714285714285,-666.4285714285714,2
2024-06-15 12:12:48,0.01832595654,0.01832595654,-0.0232128799,-8.884882927,-3.991134167,-1.022324085,-95.46835443037976,-146.46835443037975,-263.2025316455696,-6097.443037974684,5224.303797468355,-671.0126582278481,2
2024-06-15 12:12:48,0.1136209369,0.1001819,0.1551597714,-8.844181061,-5.16189909,-1.532289028,-41.57553956834533,28.992805755395693,191.02877697841728,-6336.410071942446,5068.302158273381,-737.9712230215828,2
2024-06-15 12:12:48,-0.07819075137,-0.07696902007,0.006108652335,-6.924031258,-4.556165695,-1.185129881,-84.82978723404256,-239.3617021276596,55.191489361702125,-6417.63829787234,5637.787234042553,-770.2765957446809,2
2024-06-15 12:12:48,-0.07819075137,-0.07696902007,0.006108652335,-6.924031258,-4.556165695,-1.185129881,165.41379310344828,76.84482758620689,26.86206896551724,-6091.224137931034,5004.310344827586,-853.3275862068965,2
2024-06-15 12:12:48,-0.0171042271,0.2956587672,-0.1649336219,-10.3357687,-5.16189909,-1.594538331,403.3448275862069,-24.879310344827587,-52.44827586206897,-6282.603448275862,5041.091954022989,-745.8563218390805,2
2024-06-15 12:12:49,0.0720821023,0.0109955743,0.07330382615,-7.35977602,-4.888959885,-1.912967205,428.05319148936167,-24.72340425531916,-33.62765957446808,-6442.0,5151.382978723404,-706.531914893617,2
2024-06-15 12:12:49,0.0720821023,0.0109955743,0.07330382615,-7.35977602,-4.888959885,-1.912967205,-54.287671232876704,-7.342465753424662,-84.13698630136986,-6092.246575342466,5086.041095890411,-817.6438356164383,2
2024-06-15 12:12:49,0.003665191587,0.1233947799,-0.106290549,-8.726864815,-4.252102375,-1.261744261,-233.5,54.4,-208.3,-6421.2,5219.5,-1063.4,2
2024-06-15 12:12:49,0.003665191587,0.1233947799,-0.106290549,-8.726864815,-4.252102375,-1.261744261,-21.66315789473685,19.64210526315789,225.1368421052632,-6452.978947368421,5063.526315789473,-1050.3263157894737,2
2024-06-15 12:12:49,0.1954768747,-0.3885102868,0.004886921961,-4.970362663,-3.691859007,-2.705447912,13.783783783783784,-297.2972972972973,-257.43243243243245,-6424.8378378378375,5424.027027027027,-801.918918918919,2
2024-06-15 12:12:49,-0.3408628106,-0.616973877,-0.3164281845,-11.14022064,-5.72214222,-0.787692368,-102.03370786516854,16.898876404494388,-211.61797752808988,-6031.438202247191,5120.573033707865,-846.4719101123595,2
2024-06-15 12:12:49,0.4960225821,0.09529497474,0.05009094998,-8.599972725,-5.116408825,0.2609679997,119.08695652173913,70.34782608695652,334.6521739130435,-6465.521739130435,5394.739130434783,-739.7391304347826,2
2024-06-15 12:12:49,-0.1869247705,0.06108652428,0.06108652428,-6.983886242,-5.755661011,-0.08379705995,-318.3636363636364,-5.090909090909091,39.27272727272727,-6056.181818181818,5402.636363636364,-677.8181818181819,2
2024-06-15 12:12:49,-0.1869247705,0.06108652428,0.06108652428,-6.983886242,-5.755661011,-0.08379705995,-50.71363636363637,-54.54090909090909,-20.113636363636363,-6409.1,5351.377272727273,-691.790909090909,2
2024-06-15 12:12:50,-0.2419026345,0.05253441259,-0.3677408695,-9.390059471,-6.019022942,-0.1867477298,-46.69565217391305,-67.45652173913044,-82.58695652173913,-6452.847826086957,5450.630434782609,-683.4130434782609,2
2024-06-15 12:12:50,-0.2419026345,0.05253441259,-0.3677408695,-9.390059471,-6.019022942,-0.1867477298,9.222222222222229,-63.51111111111111,-97.35555555555555,-6414.733333333334,5587.733333333334,-706.3333333333334,2
2024-06-15 12:12:50,0.05375614017,-0.08552113175,0.3982841372,-8.209717751,-6.014234543,-0.1532289088,-6.024096385542165,-183.5060240963856,-75.04819277108433,-6169.493975903614,5194.493975903614,-694.4939759036145,2
2024-06-15 12:12:50,0.1282816976,-0.17715092,-0.01832595654,-7.556100368,-5.341464043,0.08619125932,-89.83333333333334,-66.86111111111111,26.02777777777777,-6120.555555555556,5428.166666666667,-694.5555555555555,2
2024-06-15 12:12:50,0.1282816976,-0.17715092,-0.01832595654,-7.556100368,-5.341464043,0.08619125932,-85.92631578947369,-120.89473684210526,-111.5578947368421,-6093.526315789473,5317.926315789474,-1036.0842105263157,2
2024-06-15 12:12:50,-0.2968805134,0.2113593817,-0.1392772794,-7.493851185,-5.676652431,-0.3639186621,-278.55555555555554,102.61111111111111,94.38888888888889,-6059.222222222223,5438.222222222223,-709.3888888888889,2
2024-06-15 12:12:50,0.1356120855,-0.1319468915,-0.04031710699,-7.776367188,-4.766855717,-0.2370259613,93.15384615384616,95.53846153846152,272.7692307692308,-6099.692307692308,5428.153846153846,-1124.6923076923076,2
2024-06-15 12:12:50,0.1356120855,-0.1319468915,-0.04031710699,-7.776367188,-4.766855717,-0.2370259613,-68.12359550561797,-47.79775280898876,225.3820224719101,-6165.157303370786,5554.033707865168,-1003.5730337078652,2
2024-06-15 12:12:50,-0.09529497474,0.1881465018,-0.01832595654,-8.281543732,-4.230554581,0.3112462163,67.81818181818181,-169.0,-179.8181818181818,-6150.181818181818,5569.363636363636,-740.0909090909091,2
2024-06-15 12:12:50,-0.09529497474,0.1881465018,-0.01832595654,-8.281543732,-4.230554581,0.3112462163,-81.55555555555554,64.17777777777778,-239.9333333333333,-6214.177777777778,5426.155555555555,-1001.1111111111112,2
2024-06-15 12:12:51,-0.004886921961,-0.0720821023,0.00244346098,-7.642292023,-5.844246387,0.2059013397,2.681818181818187,-123.0,357.6818181818182,-6068.454545454545,5279.545454545455,-1059.7727272727273,2
2024-06-15 12:12:51,-0.06597344577,-0.01343903504,-0.03054326214,-8.037335396,-6.212953568,-1.37666595,-220.7159090909091,-317.4090909090909,-27.931818181818187,-6052.863636363636,5704.5,-710.5227272727273,2
2024-06-15 12:12:51,-0.06597344577,-0.01343903504,-0.03054326214,-8.037335396,-6.212953568,-1.37666595,-130.01639344262296,-236.1311475409836,65.96721311475409,-6031.049180327869,5572.737704918033,-695.8524590163935,2
2024-06-15 12:12:51,-0.05864306539,0.2076941878,0.07696902007,-8.305485725,-6.215347767,-0.9457096457,-42.03825136612022,-98.97267759562844,275.2568306010929,-6033.781420765027,5347.054644808743,-687.655737704918,2
2024-06-15 12:12:51,0.2113593817,-0.09040805697,-0.07819075137,-7.156269073,-5.147533417,-0.2920926213,-49.674418604651166,-92.17441860465117,284.54651162790697,-6208.46511627907,5124.627906976744,-753.953488372093,2
2024-06-15 12:12:51,0.2113593817,-0.09040805697,-0.07819075137,-7.156269073,-5.147533417,-0.2920926213,-400.625,92.25,-281.25,-6177.75,5813.375,-767.875,2
2024-06-15 12:12:51,0.01954768784,0.2406809032,-0.0232128799,-9.105149269,-6.591237068,-0.921767652,-634.875,602.125,-154.5625,-5894.3125,5510.3125,-1109.0,2
2024-06-15 12:12:51,0.01954768784,0.2406809032,-0.0232128799,-9.105149269,-6.591237068,-0.921767652,-2414.689655172414,979.3103448275862,438.1724137931035,-6163.344827586207,6210.275862068966,-697.4827586206897,2
2024-06-15 12:12:51,0.1038470939,0.01221730467,-0.1649336219,-6.562506676,-5.078101635,-0.3639186621,-2537.0,94.0,191.5,-5837.0,5398.5,-378.5,2
2024-06-15 12:12:51,0.08918632567,0.0,0.2272418737,-8.137891769,-5.932831764,-0.6200982332,-1487.1666666666667,-66.27777777777777,162.61111111111111,-5443.611111111111,5466.388888888889,-236.38888888888889,2
2024-06-15 12:12:52,0.08918632567,0.0,0.2272418737,-8.137891769,-5.932831764,-0.6200982332,-641.735632183908,267.91954022988506,219.24137931034485,-5869.425287356322,5506.758620689655,-132.22988505747125,2
2024-06-15 12:12:52,0.0109955743,0.145385921,-0.109955743,-8.611943245,-5.856217384,-1.130063176,408.7977528089888,271.5842696629214,399.08988764044943,-5711.3258426966295,6132.224719101124,33.21348314606742,2
2024-06-15 12:12:52,-0.1270599663,-0.004886921961,0.04764748737,-6.071695328,-5.767632008,-0.457292527,527.2808988764045,574.4831460674158,7.325842696629216,-5922.438202247191,6030.359550561798,-232.2584269662921,2
2024-06-15 12:12:52,-0.1270599663,-0.004886921961,0.04764748737,-6.071695328,-5.767632008,-0.457292527,4.868131868131869,148.74725274725276,-250.24175824175825,-5989.615384615385,5770.131868131868,-593.6703296703297,2
2024-06-15 12:12:52,-0.03787364438,0.1160643995,-0.1881465018,-8.956708908,-5.614402771,-2.056619167,-90.11627906976744,-41.372093023255815,6.116279069767444,-5971.197674418605,5978.383720930233,-601.8372093023256,2
2024-06-15 12:12:52,-0.03787364438,0.1160643995,-0.1881465018,-8.956708908,-5.614402771,-2.056619167,-67.6046511627907,-359.3255813953488,71.3953488372093,-5844.325581395349,5824.418604651163,-240.27906976744185,2
2024-06-15 12:12:52,-0.02687807009,-0.02687807009,0.01588249579,-6.380547523,-6.962338448,-0.8188169599,37.88636363636363,23.568181818181817,89.63636363636364,-5917.840909090909,5975.181818181818,-240.20454545454547,2
2024-06-15 12:12:52,-0.03665191308,0.1038470939,-0.07452555746,-9.58638382,-5.882553577,-1.594538331,107.55172413793105,64.10344827586206,17.011494252873565,-5964.172413793103,5800.126436781609,-373.632183908046,2
2024-06-15 12:12:52,-0.03665191308,0.1038470939,-0.07452555746,-9.58638382,-5.882553577,-1.594538331,-42.146067415730336,-191.5842696629213,75.38202247191012,-6003.471910112359,5804.202247191011,-174.40449438202248,2
2024-06-15 12:12:52,0.1661553532,-0.02809980139,-0.05131268129,-6.610390663,-4.936843872,-1.161187768,31.449438202247165,-301.685393258427,-311.9887640449438,-5624.6292134831465,5792.516853932584,-231.2921348314607,2
2024-06-15 12:12:53,0.06963863969,0.3371976018,0.2272418737,-9.81143856,-6.536170483,-1.927332401,61.0,-25.0,3.6666666666666856,-5891.333333333333,5900.166666666667,-191.66666666666663,2
2024-06-15 12:12:53,0.06963863969,0.3371976018,0.2272418737,-9.81143856,-6.536170483,-1.927332401,-94.4,20.64,57.32,-5908.76,5795.16,-216.08,2
2024-06-15 12:12:53,0.2492330223,-0.1747074574,0.04276056588,-4.180276394,-4.314351559,-0.5841852427,-50.10344827586207,-264.91954022988506,-89.58620689655173,-5895.229885057472,6012.264367816092,-172.24137931034485,2
2024-06-15 12:12:53,0.2492330223,-0.1747074574,0.04276056588,-4.180276394,-4.314351559,-0.5841852427,308.264367816092,-50.03448275862069,30.551724137931032,-5648.022988505747,5885.471264367816,-535.551724137931,2
2024-06-15 12:12:53,-0.2223549485,0.4667010605,-0.2797762752,-10.51054573,-6.928819656,-1.575384736,202.80219780219767,2.857142857142854,20.637362637362635,-5835.087912087912,5956.219780219781,-617.7472527472528,2
2024-06-15 12:12:53,0.141720742,-0.1014036313,0.0415388383,-5.480327606,-5.463568211,-0.9648633003,-93.3953488372093,-285.1860465116279,-296.5581395348837,-5954.53488372093,6030.46511627907,-228.6046511627907,2
2024-06-15 12:12:53,0.141720742,-0.1014036313,0.0415388383,-5.480327606,-5.463568211,-0.9648633003,5.5,-39.5,-334.5,-5562.5,5739.0,-567.5,2
2024-06-15 12:12:53,-0.283441484,-0.141720742,-0.05009094998,-7.929595947,-7.953537941,-3.347094059,318.65909090909093,94.1818181818182,-59.34090909090909,-5950.318181818182,5845.340909090909,-640.0,2
2024-06-15 12:12:53,-0.4227187634,-0.4031710625,0.4166100919,-5.793968201,-4.149151325,-2.011129379,26.836956521739125,-96.41304347826087,95.71739130434784,-5958.815217391304,5883.29347826087,-422.7065217391304,2
2024-06-15 12:12:53,-0.4227187634,-0.4031710625,0.4166100919,-5.793968201,-4.149151325,-2.011129379,-43.294117647058826,-61.70588235294119,49.17647058823529,-5573.117647058823,5947.529411764706,-482.8235294117647,2
2024-06-15 12:12:54,-0.5424483418,-0.7501425147,-1.176526427,-7.900865555,-5.410895824,-2.245761156,378.84615384615387,339.15384615384613,-242.7692307692308,-5893.307692307692,5971.769230769231,-662.6153846153846,2
2024-06-15 12:12:54,-0.5424483418,-0.7501425147,-1.176526427,-7.900865555,-5.410895824,-2.245761156,96.0,-156.0,42.57954545454545,-5977.625,5785.090909090909,-801.5,2
2024-06-15 12:12:54,-0.2565633953,0.1734857261,-0.2846632004,-8.152256966,-6.320692539,-1.015141487,92.66666666666669,-198.8333333333333,0.8333333333333357,-5614.833333333333,5978.5,-424.8333333333333,2
2024-06-15 12:12:54,-0.4227187634,0.008552113548,-0.7880161405,-5.810727596,-7.51300478,-3.8642416,23.09090909090909,-60.27272727272727,-306.54545454545456,-5915.454545454545,5810.272727272727,-787.7272727272727,2
2024-06-15 12:12:54,-0.4227187634,0.008552113548,-0.7880161405,-5.810727596,-7.51300478,-3.8642416,-115.07692307692308,-37.69230769230769,25.692307692307693,-5901.846153846154,5739.076923076923,-842.9230769230769,2
2024-06-15 12:12:54,-0.08307767659,-1.376890302,-1.004262447,-6.287173748,-6.691793919,-2.738966703,6.157303370786522,12.876404494382022,79.03370786516854,-5885.797752808989,5935.820224719101,-861.4157303370787,2
2024-06-15 12:12:54,-7.336491585,0.06108652428,0.4923573732,-7.175422668,-6.627150536,-3.857059002,96.78021978021978,44.82417582417583,108.3076923076923,-5972.846153846154,5945.351648351649,-849.054945054945,2
2024-06-15 12:12:54,-7.336491585,0.06108652428,0.4923573732,-7.175422668,-6.627150536,-3.857059002,48.809782608695656,37.34239130434783,92.17934782608695,-5961.548913043478,5931.836956521739,-704.625,2
2024-06-15 12:12:54,8.074417114,-2.050063848,2.037846565,-4.876988888,-9.414001465,-8.461109161,37.39673913043478,37.88586956521739,82.94021739130434,-5954.483695652174,5922.054347826087,-542.125,2
2024-06-15 12:12:54,8.074417114,-2.050063848,2.037846565,-4.876988888,-9.414001465,-8.461109161,-77.14634146341464,66.02439024390245,116.92682926829268,-5947.292682926829,5906.926829268293,-805.609756097561,2
2024-06-15 12:12:55,0.967610538,-1.500285029,-0.334754169,-4.90571928,-0.1556231081,-0.9816226959,71.83333333333333,-71.1,-92.9,-5943.5,5980.4,-821.2666666666667,2
2024-06-15 12:12:55,2.828306198,-0.5363397002,-2.207667112,-7.934384346,-8.030152321,7.948749542,50.826086956521735,-27.826086956521745,-46.17391304347826,-5956.695652173913,5761.826086956522,-831.8695652173913,2
2024-06-15 12:12:55,2.828306198,-0.5363397002,-2.207667112,-7.934384346,-8.030152321,7.948749542,-259.48192771084337,111.5421686746988,35.506024096385545,-5778.78313253012,5984.301204819277,-835.8192771084338,2
2024-06-15 12:12:55,-0.05986479297,0.6829473376,-0.05497787148,-6.033388138,-4.898536682,5.966350555,108.84883720930232,102.0,-48.30232558139534,-5942.558139534884,5931.162790697675,-879.4651162790698,2
2024-06-15 12:12:55,-0.7318165898,-0.003665191587,-0.3005456924,-5.83466959,-6.208165169,3.629609823,-253.50549450549448,-296.43956043956047,93.5934065934066,-5928.076923076923,5787.626373626374,-823.6373626373627,2
2024-06-15 12:12:55,-0.7318165898,-0.003665191587,-0.3005456924,-5.83466959,-6.208165169,3.629609823,48.56989247311828,-66.3978494623656,20.29032258064516,-5904.1505376344085,5905.537634408603,-840.494623655914,2
2024-06-15 12:12:55,-0.6805039048,0.2003637999,-0.05131268129,-8.29830265,-5.94719696,4.479551315,155.2906976744186,-50.51162790697674,197.04651162790697,-5931.569767441861,5827.744186046512,-835.6279069767442,2
2024-06-15 12:12:55,-0.6805039048,0.2003637999,-0.05131268129,-8.29830265,-5.94719696,4.479551315,-112.52631578947368,-57.19999999999999,43.72631578947369,-5575.978947368421,5657.273684210526,-601.1263157894737,2
2024-06-15 12:12:55,-1.631010175,-0.1820378453,0.813672483,-7.668628216,-7.625532627,0.7110779285,-22.84883720930233,-123.74418604651164,-37.48837209302326,-5922.6511627906975,5959.1511627906975,-795.8953488372093,2
2024-06-15 12:12:56,-0.5876523852,-0.5754350424,0.5791002512,-5.042188644,-6.021417141,0.9552865028,25.571428571428573,-215.8571428571429,75.85714285714286,-5586.571428571428,5830.571428571428,-773.4285714285714,2
2024-06-15 12:12:56,-0.5876523852,-0.5754350424,0.5791002512,-5.042188644,-6.021417141,0.9552865028,285.0119047619048,-36.845238095238095,-7.833333333333333,-5899.4047619047615,5971.976190476191,-845.4047619047619,2
2024-06-15 12:12:56,-0.5448917747,0.1111774743,0.3543018401,-5.930437565,-7.189787865,2.049436569,-95.33333333333334,36.25555555555556,-102.87777777777778,-5893.177777777778,6228.177777777778,-877.2111111111111,2
2024-06-15 12:12:56,-0.2345722616,0.1490511149,0.4239404798,-7.034164429,-8.250418663,-0.8188169599,-277.25,30.431818181818183,-287.20454545454544,-5732.795454545455,5603.215909090909,-834.75,2
2024-06-15 12:12:56,-0.2345722616,0.1490511149,0.4239404798,-7.034164429,-8.250418663,-0.8188169599,132.22222222222223,-141.41975308641975,-18.493827160493822,-5661.074074074074,5961.0123456790125,-869.5802469135803,2
2024-06-15 12:12:56,0.4471533597,-0.1527163088,0.6780604124,-7.10359621,-8.712499619,0.8020575643,-128.69662921348316,-345.9550561797753,12.134831460674157,-5609.471910112359,5861.640449438202,-692.1685393258427,2
2024-06-15 12:12:56,0.4471533597,-0.1527163088,0.6780604124,-7.10359621,-8.712499619,0.8020575643,-224.6551724137931,66.13793103448276,84.82758620689656,-5604.517241379311,5769.068965517241,-850.1379310344828,2
2024-06-15 12:12:56,0.7037167549,-0.1368338168,0.326202035,-7.419631004,-5.485116005,0.7829039693,-74.16853932584269,-280.2022471910112,-281.9438202247191,-5828.528089887641,5855.651685393258,-851.1011235955057,2
2024-06-15 12:12:56,0.3518583775,0.06597344577,-0.00122173049,-8.257601738,-5.212177277,1.369483352,60.056179775280896,-303.97752808988764,-306.08988764044943,-5695.3707865168535,5594.516853932584,-481.9887640449438,2
2024-06-15 12:12:56,0.3518583775,0.06597344577,-0.00122173049,-8.257601738,-5.212177277,1.369483352,261.5777777777778,-277.64444444444445,68.55555555555556,-5938.444444444444,5682.733333333334,-824.9777777777778,2
2024-06-15 12:12:56,-0.01588249579,-0.04398229718,0.08918632567,-8.269572258,-5.631162167,0.9050082564,286.52272727272725,-343.9886363636364,-7.193181818181813,-6014.522727272727,5883.011363636364,-842.9204545454545,2
2024-06-15 12:12:57,0.1001819,-0.06108652428,0.06841690838,-8.054094315,-4.989516258,1.130063176,565.3595505617977,-562.7865168539325,-338.40449438202245,-5891.550561797752,5590.5842696629215,-867.876404494382,2
2024-06-15 12:12:57,0.1001819,-0.06108652428,0.06841690838,-8.054094315,-4.989516258,1.130063176,550.4444444444445,-452.8666666666667,-232.44444444444449,-5919.422222222222,5668.8,-831.4,2
2024-06-15 12:12:57,0.06230825558,0.02443460934,0.0354301855,-8.128314972,-4.788403511,1.240196466,160.53571428571428,-154.92857142857142,8.107142857142861,-5975.964285714285,5977.107142857143,-905.0714285714286,2
2024-06-15 12:12:57,0.06230825558,0.02443460934,0.0354301855,-8.128314972,-4.788403511,1.240196466,-377.1724137931034,-276.58620689655174,-63.75862068965517,-5950.206896551724,5926.0,-710.3448275862069,2
2024-06-15 12:12:57,0.07330382615,-0.02443460934,0.106290549,-8.360552788,-4.611232281,1.436521053,-17.6,-357.4666666666667,-63.977777777777774,-5705.777777777777,5550.111111111111,-720.3777777777777,2
2024-06-15 12:12:57,0.0171042271,-0.01832595654,0.08429940045,-8.207323074,-4.570530891,1.424550056,-7.797752808988765,-309.7865168539326,272.3820224719101,-5947.955056179775,5896.247191011236,-756.561797752809,2
2024-06-15 12:12:57,0.0171042271,-0.01832595654,0.08429940045,-8.207323074,-4.570530891,1.424550056,78.96470588235294,-160.08235294117648,316.6,-5912.011764705882,6163.294117647059,-847.4117647058823,2
2024-06-15 12:12:57,0.0415388383,-0.00122173049,-0.004886921961,-8.616731644,-4.508281708,1.424550056,30.66666666666667,-123.33333333333334,-19.0,-5536.0,5926.333333333333,-835.6666666666666,2
2024-06-15 12:12:57,0.03298672289,-0.006108652335,0.05497787148,-8.36294651,-4.592078686,1.280897856,-89.04444444444445,57.24444444444445,-72.77777777777777,-5654.6,5951.133333333333,-699.2222222222222,2
2024-06-15 12:12:57,0.03298672289,-0.006108652335,0.05497787148,-8.36294651,-4.592078686,1.280897856,-83.37735849056604,25.52830188679245,-84.73584905660377,-5564.811320754717,6091.0,-645.9622641509434,2
2024-06-15 12:12:58,0.06352998316,-0.05375614017,0.04276056588,-8.197746277,-4.022258759,1.56101954,-283.2857142857143,63.0,-65.07142857142857,-5559.357142857143,5815.0,-652.5714285714286,2
2024-06-15 12:12:58,0.06352998316,-0.05375614017,0.04276056588,-8.197746277,-4.022258759,1.56101954,-183.0,148.5,-325.5,-5822.0,5609.0,-716.5,2
2024-06-15 12:12:58,-0.1918116808,-0.2492330223,-0.5510004759,-8.528146744,-4.333505154,1.276109457,17.279069767441854,33.15116279069767,123.40697674418604,-5957.767441860465,6041.709302325581,-738.3255813953489,2
2024-06-15 12:12:58,-0.2186897546,0.05619960278,0.4178318381,-9.641449928,-6.019022942,1.704671621,-60.09090909090909,73.63636363636364,38.63636363636364,-5511.909090909091,5693.818181818182,-750.6363636363636,2
2024-06-15 12:12:58,-0.2186897546,0.05619960278,0.4178318381,-9.641449928,-6.019022942,1.704671621,229.0909090909091,-114.11363636363636,-41.43181818181819,-5851.25,5924.522727272727,-1009.0681818181818,2
2024-06-15 12:12:58,0.1087340117,-0.2333505303,0.1979203373,-7.331045628,-4.266467571,1.695094824,-328.23595505617976,7.112359550561799,50.46067415730337,-5766.449438202248,5982.741573033708,-758.2134831460673,2
2024-06-15 12:12:58,0.1087340117,-0.2333505303,0.1979203373,-8.487444878,-4.213795185,2.128445387,53.28409090909091,54.02272727272727,-103.39772727272728,-5917.693181818182,6199.579545454545,-1052.2272727272727,2
2024-06-15 12:12:58,-0.03909537569,0.1136209369,0.02565634064,-8.487444878,-4.213795185,2.128445387,-188.6551724137931,-265.82758620689657,-38.86206896551724,-5570.551724137931,5871.793103448276,-716.2413793103449,2
2024-06-15 12:12:58,-0.1624901593,0.3909537494,-0.2186897546,-7.479485989,-4.582501888,1.156399369,-15.853932584269664,-66.43820224719101,31.382022471910112,-5564.224719101124,5916.359550561798,-855.8202247191011,2
2024-06-15 12:12:58,-0.1624901593,0.3909537494,-0.2186897546,-7.479485989,-4.582501888,1.156399369,-66.07865168539325,-23.573033707865164,92.0,-5623.3258426966295,5877.258426966292,-744.6404494382023,2
2024-06-15 12:12:59,0.1527163088,-0.09773843735,0.01221730467,-9.042900085,-4.173093796,2.425326347,56.0,110.5,5.0,-5914.0,5851.0,-707.5,2
2024-06-15 12:12:59,-0.1123992056,0.1942551434,-0.1844813079,-7.374141216,-4.520252705,1.769315004,-52.866666666666674,-43.866666666666674,-317.93333333333334,-5685.2,5913.933333333333,-658.8,2
2024-06-15 12:12:59,-0.1123992056,0.1942551434,-0.1844813079,-7.374141216,-4.520252705,1.769315004,56.17777777777778,-23.155555555555555,-366.02222222222224,-5549.955555555555,5619.333333333333,-1065.3777777777775,2
2024-06-15 12:12:59,-0.3078760803,-0.1368338168,-0.2040289938,-9.627084732,-5.269638062,0.5793967843,-100.9186046511628,-77.20930232558139,268.1744186046512,-5996.918604651163,6037.476744186047,-951.6395348837208,2
2024-06-15 12:12:59,-0.00244346098,0.02199114859,0.1673770845,-7.931990147,-4.493916512,2.260126352,-257.3775510204082,-329.9795918367347,-47.64285714285714,-5767.367346938776,6037.224489795918,-944.9183673469388,2
2024-06-15 12:12:59,-0.00244346098,0.02199114859,0.1673770845,-7.931990147,-4.493916512,2.260126352,-130.5,-126.5,-346.0,-5567.625,5918.25,-934.5,2
2024-06-15 12:12:59,0.2223549485,0.232128799,-0.25167647,-8.602366447,-4.247313976,0.390254885,-301.95652173913044,-5.478260869565219,-341.5652173913044,-5616.826086956522,5927.086956521739,-740.7391304347826,2
2024-06-15 12:12:59,0.2223549485,0.232128799,-0.25167647,-8.602366447,-4.247313976,0.390254885,-609.2777777777778,252.7555555555556,-31.58888888888889,-5881.477777777778,6150.7444444444445,-719.2,2
2024-06-15 12:12:59,0.1539380401,-0.1307251602,0.004886921961,-7.024587631,-5.082890034,1.37427175,-822.2727272727273,492.27272727272725,-496.6363636363636,-5672.0,5919.272727272727,-736.8181818181819,2
2024-06-15 12:13:00,0.1270599663,0.1026253626,0.1893682331,-10.09156036,-5.195417881,1.15161097,-158.45810055865925,236.4301675977653,-820.0837988826815,-5857.843575418994,6160.558659217877,-1059.9832402234638,2
2024-06-15 12:13:00,0.1270599663,0.1026253626,0.1893682331,-10.09156036,-5.195417881,1.15161097,-145.88826815642457,65.48044692737432,-755.2234636871508,-5870.916201117318,6178.156424581006,-964.9553072625698,2
2024-06-15 12:13:00,0.1514945775,-0.1490511149,-0.09285151958,-5.87297678,-4.395754337,1.213860273,-311.8,-50.15294117647059,-1566.9176470588236,-6309.588235294118,6109.35294117647,-1377.3176470588237,2
2024-06-15 12:13:00,-0.04886921868,0.2345722616,-0.196698606,-10.90798283,-5.260061264,1.460463047,-581.125,39.375,-2601.75,-6612.375,5992.5,-1250.625,2
2024-06-15 12:13:00,-0.04886921868,0.2345722616,-0.196698606,-10.90798283,-5.260061264,1.460463047,-807.6206896551724,-235.86206896551724,-3355.9310344827586,-7008.793103448276,5663.206896551724,-1319.0344827586207,2
2024-06-15 12:13:00,0.3970624208,-0.2565633953,0.1075122803,-6.186617374,-3.971980572,2.020706177,-731.4,-350.8,-2961.8,-6729.4,4307.2,-522.0,2
2024-06-15 12:13:00,0.3970624208,-0.2565633953,0.1075122803,-6.186617374,-3.971980572,2.020706177,-407.3820224719101,-177.06741573033707,-1794.5393258426966,-6525.157303370786,2594.696629213483,254.8314606741573,2
2024-06-15 12:13:00,-0.1808161139,0.09529497474,-0.1185078546,-7.175422668,-5.164293289,1.122880578,-23.38043478260869,56.14130434782607,-789.5108695652174,-6331.260869565217,886.6304347826087,467.57608695652175,2
2024-06-15 12:13:00,0.2467895597,0.2675589919,0.0109955743,-10.7044754,-5.614402771,2.202665567,-187.54022988505747,731.9655172413793,643.0344827586207,-7060.16091954023,1476.7931034482758,-228.06896551724137,2
2024-06-15 12:13:00,0.2467895597,0.2675589919,0.0109955743,-10.7044754,-5.614402771,2.202665567,-305.68131868131866,1102.9120879120878,2413.197802197802,-6610.340659340659,2387.032967032967,-467.7362637362637,2
2024-06-15 12:13:00,0.2528982162,-0.01466076635,0.4752531648,-6.423643112,-4.750096321,0.6703764796,-216.896551724138,1636.896551724138,2322.310344827586,-6239.103448275862,4291.344827586207,-996.2068965517242,2
2024-06-15 12:13:01,-0.05009094998,-0.1808161139,-0.6475171447,-7.010222435,-3.696647406,1.163581967,-536.5595238095239,1565.7142857142858,2883.190476190476,-7204.0,5741.452380952381,-1288.404761904762,2
2024-06-15 12:13:01,-0.05009094998,-0.1808161139,-0.6475171447,-7.010222435,-3.696647406,1.163581967,-937.1666666666666,1358.5,1796.1666666666667,-7085.333333333333,6206.333333333333,-1713.8333333333333,2
2024-06-15 12:13:01,0.1441642046,0.3237585723,0.216246292,-11.43470764,-6.299144745,1.400607944,-537.4193548387096,-458.0322580645161,1590.5806451612902,-6560.129032258064,6189.548387096775,-1624.2903225806451,2
2024-06-15 12:13:01,0.1441642046,0.3237585723,0.216246292,-11.43470764,-6.299144745,1.400607944,63.252747252747255,-568.2417582417582,390.74725274725273,-5947.604395604396,5848.043956043956,-1305.2857142857142,2
2024-06-15 12:13:01,0.1539380401,-0.1527163088,0.3176499307,-5.027823448,-5.023035049,0.2968810201,-252.27906976744185,85.61627906976744,61.3953488372093,-5890.302325581395,5552.813953488372,-927.546511627907,2
2024-06-15 12:13:01,-0.3286454976,-0.1368338168,-0.6023131609,-10.52012253,-5.609614372,0.8595184088,-204.88888888888889,80.5,-96.38888888888889,-5612.111111111111,5630.333333333333,-1010.9444444444443,2
2024-06-15 12:13:01,-0.3286454976,-0.1368338168,-0.6023131609,-10.52012253,-5.609614372,0.8595184088,33.20879120879121,333.84615384615387,-55.175824175824175,-5966.285714285715,5993.087912087912,-1176.5824175824175,2
2024-06-15 12:13:01,0.1820378453,0.1685988009,0.3127630055,-6.675034523,-5.324704647,2.109291792,-287.06976744186045,0.2325581395348877,55.69767441860465,-5768.46511627907,5747.767441860465,-1264.9302325581396,2
2024-06-15 12:13:01,-0.05009094998,0.2455678284,-0.3164281845,-11.00135708,-6.856993675,-0.5841852427,-49.47727272727273,-63.70454545454545,95.36363636363636,-5555.363636363636,5595.409090909091,-1360.4545454545455,2
2024-06-15 12:13:01,-0.05009094998,0.2455678284,-0.3164281845,-11.00135708,-6.856993675,-0.5841852427,-271.05555555555554,-41.833333333333336,20.72222222222223,-5610.444444444444,5901.166666666667,-1387.388888888889,2
2024-06-15 12:13:02,-0.3323107064,-0.7391469479,0.8051204085,-6.689399719,-3.56496644,1.601720929,-331.70786516853934,114.3370786516854,-66.91011235955057,-5571.865168539326,5580.0224719101125,-1368.494382022472,2
2024-06-15 12:13:02,-0.3323107064,-0.7391469479,0.8051204085,-6.689399719,-3.56496644,1.601720929,-117.75862068965516,-84.93103448275862,-42.48275862068965,-5628.0,5967.172413793103,-1364.0,2
2024-06-15 12:13:02,0.1673770845,-0.04398229718,-0.3139847219,-8.805873871,-4.189853191,0.4860229492,-221.5,22.444444444444443,113.72222222222224,-5933.944444444444,5773.333333333333,-935.4444444444443,2
2024-06-15 12:13:02,-0.2638937831,-0.004886921961,0.3103195429,-8.65743351,-7.4363904,-0.3327940404,-80.2159090909091,18.93181818181818,-322.15909090909093,-5696.397727272727,5727.647727272727,-918.6477272727273,2
2024-06-15 12:13:02,-0.2638937831,-0.004886921961,0.3103195429,-8.65743351,-7.4363904,-0.3327940404,321.0561797752809,-59.17977528089888,-97.76404494382022,-5542.887640449439,5643.573033707865,-1372.2808988764043,2
2024-06-15 12:13:02,0.8124507666,-0.4080579877,0.3836233616,-8.793902397,-2.094926596,3.591302633,212.5056179775281,-116.4494382022472,259.1123595505618,-5564.438202247191,5559.426966292135,-1358.3932584269662,2
2024-06-15 12:13:02,-0.3995058835,0.6365215778,0.08185594529,-7.084442616,-3.071760893,3.945644379,589.0222222222222,-359.9111111111111,455.53333333333336,-5715.022222222222,5808.0888888888885,-1372.2,2
2024-06-15 12:13:02,-0.3995058835,0.6365215778,0.08185594529,-7.084442616,-3.071760893,3.945644379,298.680412371134,7.288659793814432,206.1340206185567,-5719.082474226804,5836.144329896907,-1259.298969072165,2
2024-06-15 12:13:02,-0.1918116808,1.115439892,-0.8588765264,-9.366117477,-6.009446144,-2.212242365,98.0121951219512,52.69512195121951,496.0975609756098,-5703.743902439024,5890.987804878048,-1560.4146341463415,2
2024-06-15 12:13:02,-0.1918116808,1.115439892,-0.8588765264,-9.366117477,-6.009446144,-2.212242365,-78.22093023255815,-478.54651162790697,1367.4767441860463,-5459.418604651163,5808.023255813953,-1610.093023255814,2
2024-06-15 12:13:03,0.004886921961,-0.2089159191,0.2382374406,-7.445967197,-5.492298603,-1.285686255,166.19540229885058,-627.2298850574713,717.7126436781609,-5044.6551724137935,6433.19540229885,-1285.8850574712644,2
2024-06-15 12:13:03,0.1209513173,-0.1001819,0.09651670605,-8.283937454,-5.324704647,-1.149216771,-42.06741573033708,33.19101123595506,271.34831460674155,-5223.269662921349,6506.224719101124,-1567.2359550561798,2
2024-06-15 12:13:03,0.1209513173,-0.1001819,0.09651670605,-8.283937454,-5.324704647,-1.149216771,52.82022471910112,-41.30337078651685,-46.235955056179776,-5225.123595505618,6371.056179775281,-1548.808988764045,2
2024-06-15 12:13:03,0.2052507252,-0.2174680233,0.02809980139,-6.950367451,-4.714183331,-0.04309562966,-19.39772727272728,-363.5568181818182,-84.95454545454545,-5175.431818181818,6190.193181818182,-1468.5227272727273,2
2024-06-15 12:13:03,-0.2272418737,0.2174680233,-0.4618141353,-11.0085392,-4.876988888,0.3782838583,9.0,-302.16483516483515,-27.010989010989007,-5182.483516483517,6444.175824175824,-1256.7252747252746,2
2024-06-15 12:13:03,-0.2272418737,0.2174680233,-0.4618141353,-11.0085392,-4.876988888,0.3782838583,89.39080459770115,-116.94252873563218,73.2183908045977,-5179.620689655172,6303.528735632184,-1251.6896551724135,2
2024-06-15 12:13:03,0.2345722616,-0.326202035,0.3054326177,-6.588842869,-4.90571928,0.2920926213,-98.63636363636364,-108.70454545454544,28.15909090909091,-5229.204545454545,6117.613636363636,-1262.2272727272727,2
2024-06-15 12:13:03,0.2345722616,-0.326202035,0.3054326177,-6.588842869,-4.90571928,0.2920926213,106.45652173913044,122.3586956521739,26.05434782608696,-5010.836956521739,6133.130434782609,-1578.2391304347825,2
2024-06-15 12:13:03,0.2333505303,0.1209513173,-0.5534439087,-6.208165169,-5.166687489,-0.4932055473,37.70588235294117,13.823529411764705,53.11764705882353,-5206.058823529412,6177.823529411765,-1559.2941176470588,2
2024-06-15 12:13:03,-0.2590068579,-0.006108652335,0.2528982162,-11.00614548,-5.633556366,-0.5267243981,-58.146067415730336,60.0,14.235955056179776,-5242.494382022472,6108.044943820225,-1276.056179775281,2
2024-06-15 12:13:04,-0.2590068579,-0.006108652335,0.2528982162,-11.00614548,-5.633556366,-0.5267243981,53.674418604651166,41.55813953488372,74.23255813953489,-5230.302325581395,6080.813953488372,-1571.953488372093,2
2024-06-15 12:13:04,0.4190535545,-0.1698205322,0.1905899495,-6.10281992,-5.147533417,-0.7541735172,284.7191011235955,35.96629213483146,47.651685393258425,-5034.91011235955,6096.539325842697,-1567.1573033707866,2
2024-06-15 12:13:04,-0.3017674387,0.1209513173,-0.004886921961,-9.935936928,-5.755661011,-0.5602431893,-28.909090909090907,-299.54545454545456,-289.0,-5018.363636363636,6106.454545454545,-1599.4545454545455,2
2024-06-15 12:13:04,-0.3017674387,0.1209513173,-0.004886921961,-9.935936928,-5.755661011,-0.5602431893,7.426966292134831,-320.2808988764045,-29.40449438202248,-5045.146067415731,6135.528089887641,-1607.9550561797753,2
2024-06-15 12:13:04,0.1869247705,0.006108652335,-0.1185078546,-6.263231754,-4.996698856,0.04548983276,-93.38636363636364,-316.34090909090907,-269.6590909090909,-5061.227272727273,6156.0,-1260.2045454545455,2
2024-06-15 12:13:04,0.1869247705,0.006108652335,-0.1185078546,-6.263231754,-4.996698856,0.04548983276,24.88636363636364,-97.86363636363636,-270.6590909090909,-5038.818181818182,6019.409090909091,-1209.6363636363635,2
2024-06-15 12:13:04,0.1637118906,0.248011291,0.1380555481,-9.797073364,-5.971138954,-0.6129156351,101.9090909090909,-44.09090909090909,-15.909090909090937,-5074.181818181818,5826.0,-1219.6363636363635,2
2024-06-15 12:13:04,0.01466076635,-0.02809980139,-0.3054326177,-7.153874874,-5.262455463,0.2729389966,546.3333333333334,29.166666666666657,-51.333333333333336,-5462.333333333333,6076.0,-1623.8333333333333,2
2024-06-15 12:13:04,0.01466076635,-0.02809980139,-0.3054326177,-7.153874874,-5.262455463,0.2729389966,535.4651162790698,-312.8139534883721,-281.6046511627907,-5262.418604651163,6309.46511627907,-1841.116279069768,2
2024-06-15 12:13:04,0.004886921961,-0.04398229718,0.235793978,-7.508216381,-6.066906929,-0.8930372596,148.14606741573033,-159.79775280898878,-411.6067415730337,-5076.820224719101,6230.876404494382,-1434.247191011236,2
2024-06-15 12:13:05,0.08796459436,0.1722639948,-0.2541199327,-9.469067574,-5.226542473,-0.3064578176,-350.2558139534884,-322.95348837209303,-354.69767441860466,-5447.232558139535,5892.2558139534885,-1642.3255813953488,2
2024-06-15 12:13:05,0.08796459436,0.1722639948,-0.2541199327,-9.469067574,-5.226542473,-0.3064578176,38.44565217391305,-323.8369565217391,21.55434782608696,-5468.836956521739,5950.880434782609,-1604.391304347826,2
