Timestamp,Gyro_x_x,Gyro_y_x,Gyro_z_x,Acc_x_x,Acc_y_x,Acc_z_x,Gyro_x_y,Gyro_y_y,Gyro_z_y,Acc_x_y,Acc_y_y,Acc_z_y,combined_action_num
2024-06-15 12:50:54,-0.02687807009,0.01954768784,0.0415388383,-8.55448246,0.8379706144,4.079719543,66.38461538461539,-50.5,228.23076923076923,-7819.846153846154,2623.038461538461,370.61538461538464,10
2024-06-15 12:50:54,-0.02687807009,0.01954768784,0.0415388383,-8.55448246,0.8379706144,4.079719543,-57.10891089108911,-314.8514851485148,-230.5445544554456,-8239.950495049505,2773.633663366337,307.83168316831683,10
2024-06-15 12:50:54,0.02565634064,0.01343903504,-0.006108652335,-8.590395927,0.8403648138,4.144362926,-488.1363636363636,-1075.3636363636365,-1864.4015151515152,-7848.424242424242,2219.5151515151515,483.6439393939394,10
2024-06-15 12:50:54,0.02565634064,0.01343903504,-0.006108652335,-8.590395927,0.8403648138,4.144362926,-465.4090909090909,-1048.090909090909,-1719.7045454545455,-8033.272727272727,2222.5454545454545,487.4318181818182,10
2024-06-15 12:50:54,0.09651670605,0.01832595654,-0.008552113548,-8.607154846,1.060631394,3.94085598,-1589.5094339622642,212.50943396226413,-1819.1132075471696,-8071.207547169812,2031.5471698113208,316.22641509433964,10
2024-06-15 12:50:54,-0.1307251602,0.0171042271,-0.03176499158,-8.755595207,0.8930372596,3.768473387,-2821.096153846154,-91.3076923076923,-1818.4615384615383,-8442.548076923076,1347.2115384615386,595.6923076923077,10
2024-06-15 12:50:54,-0.1307251602,0.0171042271,-0.03176499158,-8.755595207,0.8930372596,3.768473387,-2557.6346153846152,-68.23076923076923,-1633.8461538461538,-8160.817307692308,987.5961538461538,618.7692307692307,10
2024-06-15 12:50:54,-0.05864306539,0.05009094998,0.03176499158,-8.741230011,0.8212111592,3.876212597,-2085.30612244898,-101.55102040816328,-701.5510204081633,-8514.183673469388,715.9387755102041,504.8571428571428,10
2024-06-15 12:50:54,-0.232128799,0.03054326214,-0.08063421398,-8.623914719,0.7781155705,3.627215624,-2228.6315789473683,-229.43859649122803,-448.0350877192983,-8354.333333333334,478.1578947368421,714.9824561403509,10
2024-06-15 12:50:55,-0.232128799,0.03054326214,-0.08063421398,-8.623914719,0.7781155705,3.627215624,-3360.42718446602,512.1941747572815,38.57281553398059,-7908.747572815534,186.6504854368932,1077.631067961165,10
2024-06-15 12:50:55,-0.08674286306,-0.004886921961,-0.1160643995,-8.84896946,0.2322375625,3.828328609,-2494.0,1675.17,1831.51,-8532.7,1089.39,1329.74,10
2024-06-15 12:50:55,-0.08674286306,-0.004886921961,-0.1160643995,-8.84896946,0.2322375625,3.828328609,-3199.4901960784314,3585.5,4368.401960784314,-7912.274509803921,2793.254901960784,215.52941176470583,10
2024-06-15 12:50:55,-0.2089159191,-0.1759291887,-0.1026253626,-8.588001251,0.2657563984,4.062960148,-4322.678899082569,2781.862385321101,2261.4954128440368,-7902.495412844037,3220.4495412844035,-40.79816513761468,10
2024-06-15 12:50:55,-0.1747074574,-0.1221730486,-0.07819075137,-8.738836288,0.1460463107,4.062960148,-1814.8461538461536,839.1538461538462,260.38461538461536,-8175.461538461538,3011.4615384615386,-1.3846153846153846,10
2024-06-15 12:50:55,-0.1747074574,-0.1221730486,-0.07819075137,-8.738836288,0.1460463107,4.062960148,-1480.625,1042.25,-1170.375,-7734.375,3141.625,-494.625,10
2024-06-15 12:50:55,-0.3750712574,-0.01588249579,-0.08063421398,-8.480262756,-0.383072257,4.429273129,-2659.4803921568628,942.686274509804,-1267.137254901961,-7984.676470588235,2787.803921568628,-436.3137254901961,10
2024-06-15 12:50:55,-0.4227187634,0.004886921961,-0.09529497474,-8.604761124,-0.9002198577,4.153939724,-2589.4326923076924,170.93269230769232,-893.7884615384615,-7883.3557692307695,2372.480769230769,-603.0288461538462,10
2024-06-15 12:50:55,-0.4227187634,0.004886921961,-0.09529497474,-8.604761124,-0.9002198577,4.153939724,-2094.237623762376,-88.49504950495049,-499.0594059405941,-7733.118811881188,2541.29702970297,-421.38613861386136,10
2024-06-15 12:50:56,-0.3017674387,0.02687807009,-0.08185594529,-8.367734909,-0.9840168953,4.151545525,-1986.106796116505,-183.6019417475728,-978.1359223300972,-8023.349514563107,2295.766990291262,-378.50485436893206,10
2024-06-15 12:50:56,-0.3017674387,0.02687807009,-0.08185594529,-8.367734909,-0.9840168953,4.151545525,-687.8787878787879,46.505050505050505,-121.84848484848484,-7993.272727272727,2263.40404040404,-222.83838383838383,10
2024-06-15 12:50:56,-0.06719517708,-0.05986479297,-0.07330382615,-8.856152534,-1.417367458,4.185064793,-548.7054794520548,-799.917808219178,230.8219178082192,-7870.815068493151,2644.0342465753424,31.78082191780822,10
2024-06-15 12:50:56,-0.2797762752,-0.05253441259,0.01832595654,-8.231265068,-1.972822189,4.108449936,-331.17808219178085,-923.3287671232875,634.7123287671233,-7943.739726027397,2660.8630136986303,-3.123287671232873,10
2024-06-15 12:50:56,-0.2797762752,-0.05253441259,0.01832595654,-8.231265068,-1.972822189,4.108449936,11.274193548387103,-550.1451612903226,632.9032258064516,-7549.177419354839,3020.741935483871,208.9354838709677,10
2024-06-15 12:50:56,-0.08307767659,-0.00122173049,-0.1368338168,-8.50420475,-1.553836942,4.307168961,-367.5660377358491,110.67924528301889,-137.66037735849056,-7719.584905660377,3149.490566037736,-5.509433962264154,10
2024-06-15 12:50:56,-0.03054326214,-0.009773843922,-0.03787364438,-8.664615631,-1.841141105,4.331110954,-107.4368932038835,-205.23300970873785,-1097.621359223301,-8444.980582524271,2592.78640776699,314.22330097087377,10
2024-06-15 12:50:56,-0.03054326214,-0.009773843922,-0.03787364438,-8.664615631,-1.841141105,4.331110954,938.7816901408452,-829.1760563380282,-990.6056338028168,-8222.007042253521,2055.218309859155,517.9084507042254,10
2024-06-15 12:50:56,-0.02687807009,-0.05375614017,0.1123992056,-8.535328865,-1.793257117,4.041412354,1298.2957746478874,-1082.3098591549297,-732.9859154929577,-8286.732394366198,2150.7042253521126,404.4788732394366,10
2024-06-15 12:50:56,-0.02687807009,-0.05375614017,0.1123992056,-8.535328865,-1.793257117,4.041412354,3748.4859813084113,-442.4859813084112,787.5981308411215,-7855.130841121495,1758.92523364486,573.5420560747664,10
2024-06-15 12:50:56,-0.03665191308,-0.06230825558,0.0232128799,-8.28633213,-1.326387763,4.532223701,4815.2,-404.2,945.2,-7942.8,2107.2,225.8,10
2024-06-15 12:50:57,-0.0109955743,-0.03787364438,0.00122173049,-8.473079681,-1.647210717,4.568136692,5398.33,-1473.02,57.370000000000005,-8107.69,2983.11,-460.9,10
2024-06-15 12:50:57,-0.0109955743,-0.03787364438,0.00122173049,-8.473079681,-1.647210717,4.568136692,2681.705882352941,-2853.294117647059,-1447.7450980392157,-8151.490196078432,2554.0,222.921568627451,10
2024-06-15 12:50:57,0.06597344577,-0.04642575979,0.09285151958,-8.343792915,-1.436521053,4.472368717,2425.778846153846,-2310.8653846153848,-1416.6153846153843,-8114.442307692308,1852.2788461538464,1031.5865384615386,10
2024-06-15 12:50:57,0.01221730467,-0.0171042271,0.04520402849,-8.293514252,-1.386242747,4.534617901,3266.631067961165,-2283.990291262136,-1453.0776699029127,-8136.689320388349,1578.6893203883494,983.271844660194,10
2024-06-15 12:50:57,0.01221730467,-0.0171042271,0.04520402849,-8.293514252,-1.386242747,4.534617901,2940.803921568628,-1387.578431372549,-1196.1470588235295,-8074.705882352941,1583.764705882353,986.0098039215686,10
2024-06-15 12:50:57,0.06475171447,-0.08674286306,-0.2614503205,-8.470685959,-1.288080573,4.812345505,2327.910891089109,-441.7524752475247,-557.7524752475247,-8398.039603960397,1356.1089108910892,1441.3762376237623,10
2024-06-15 12:50:57,0.06475171447,-0.08674286306,-0.2614503205,-8.470685959,-1.288080573,4.812345505,2662.962264150943,-262.11320754716985,109.81132075471696,-7993.943396226415,1147.245283018868,1367.660377358491,10
2024-06-15 12:50:57,0.04276056588,-0.09040805697,-0.08796459436,-8.202534676,-1.731007814,4.86741209,2631.3529411764707,-1.882352941176464,438.8235294117647,-7947.470588235294,1504.7450980392157,1253.2156862745098,10
2024-06-15 12:50:57,0.01588249579,-0.007330383174,0.007330383174,-8.166622162,-1.745373011,4.79079771,1353.5,508.0,-273.0,-7549.0,1918.5,1348.5,10
2024-06-15 12:50:57,0.01588249579,-0.007330383174,0.007330383174,-8.166622162,-1.745373011,4.79079771,468.3921568627451,611.686274509804,-519.3921568627451,-8502.156862745098,1889.7843137254904,1483.078431372549,10
2024-06-15 12:50:58,-0.01466076635,0.05131268129,0.2089159191,-8.010998726,-1.651999116,4.977545261,400.93,-147.68,984.57,-8445.3,2237.58,1419.03,10
2024-06-15 12:50:58,-0.09407325089,0.1429424733,0.04642575979,-8.341399193,-1.477222443,5.054159641,223.7692307692308,-864.3846153846154,297.0,-8160.692307692308,1724.4615384615386,1910.576923076923,10
2024-06-15 12:50:58,-0.09407325089,0.1429424733,0.04642575979,-8.341399193,-1.477222443,5.054159641,375.6923076923077,-990.3461538461538,59.5,-7967.423076923077,1820.6153846153843,1899.5192307692307,10
2024-06-15 12:50:58,-0.0232128799,0.06841690838,0.007330383174,-8.346187592,-1.125274777,4.525041103,56.06,871.9,-442.36,-8475.02,1243.62,1612.06,10
2024-06-15 12:50:58,-0.0232128799,0.06841690838,0.007330383174,-8.346187592,-1.125274777,4.525041103,285.9423076923077,810.7980769230769,153.04807692307693,-8281.865384615385,1291.1826923076924,936.1442307692308,10
2024-06-15 12:50:58,-0.1502728462,-0.02199114859,-0.04398229718,-8.501810074,-1.56101954,4.49870491,-443.1333333333333,1553.0666666666666,1233.2,-7942.666666666667,2127.4,756.1333333333333,10
2024-06-15 12:50:58,0.00122173049,-0.03909537569,0.009773843922,-8.315062523,-1.458068848,4.414907932,-766.0962962962963,1725.6592592592592,1528.7555555555557,-7668.592592592593,1985.1777777777777,467.9851851851852,10
2024-06-15 12:50:58,0.00122173049,-0.03909537569,0.009773843922,-8.315062523,-1.458068848,4.414907932,-1267.7142857142858,1630.4761904761904,2033.095238095238,-8094.9047619047615,2711.285714285714,40.61904761904762,10
2024-06-15 12:50:58,-0.04276056588,-0.01343903504,-0.004886921961,-8.310274124,-1.379060149,4.661510944,-757.7326732673267,292.9207920792079,372.3960396039604,-7833.960396039604,3190.831683168317,-250.5148514851485,10
2024-06-15 12:50:59,0.0354301855,0.09651670605,0.02076941915,-8.422801971,-1.37666595,4.687847137,-599.4375,-269.2980769230769,454.57211538461536,-7619.350961538462,3115.5096153846152,-121.26442307692308,10
2024-06-15 12:50:59,-0.03787364438,0.0232128799,0.01832595654,-8.420407295,-1.453280449,4.249708176,-445.38317757009344,-275.2242990654205,373.1121495327103,-7780.813084112149,3134.2242990654204,62.700934579439256,10
2024-06-15 12:50:59,-0.03787364438,0.0232128799,0.01832595654,-8.420407295,-1.453280449,4.249708176,-30.50561797752809,1008.6516853932584,795.4606741573034,-7636.955056179775,3169.168539325842,-318.82022471910113,10
2024-06-15 12:50:59,-0.0232128799,-0.007330383174,0.03665191308,-8.492233276,-1.572990537,4.673481941,604.38,537.78,236.02,-7598.66,3238.52,-611.88,10
2024-06-15 12:50:59,0.006108652335,0.07574728876,0.07452555746,-8.528146744,-1.26653266,4.290409565,-235.88571428571427,1.9714285714285715,327.2,-7789.342857142857,3236.342857142857,-408.25714285714287,10
2024-06-15 12:50:59,0.006108652335,0.07574728876,0.07452555746,-8.528146744,-1.26653266,4.290409565,257.45714285714286,-468.3619047619048,632.6476190476191,-7530.8,3289.638095238095,-158.01904761904763,10
2024-06-15 12:50:59,0.1014036313,0.01343903504,0.0232128799,-8.382100105,-1.096544385,4.426878929,922.0392156862744,-606.5588235294117,821.6176470588235,-7400.460784313725,3818.6666666666665,-418.156862745098,10
2024-06-15 12:50:59,0.1624901593,0.04398229718,0.03054326214,-8.693346024,-0.9959878922,4.359841347,776.8269230769231,-217.10576923076923,272.125,-7116.903846153846,3823.5096153846152,-611.7403846153846,10
2024-06-15 12:50:59,0.1624901593,0.04398229718,0.03054326214,-8.693346024,-0.9959878922,4.359841347,451.5742574257426,-369.2277227722772,94.74257425742572,-7497.316831683168,3748.930693069307,-469.8019801980198,10
2024-06-15 12:50:59,0.04764748737,0.02565634064,0.0293215327,-8.561665535,-0.9385270476,4.149151325,440.8181818181818,-319.27272727272725,-39.81818181818182,-7512.363636363636,3759.727272727273,-482.1818181818182,10
2024-06-15 12:51:00,0.04764748737,0.02565634064,0.0293215327,-8.561665535,-0.9385270476,4.149151325,425.8571428571428,-147.04761904761904,-62.285714285714285,-7522.666666666667,3763.3333333333335,-490.5238095238095,10
2024-06-15 12:51:00,0.05742133409,0.01466076635,0.01954768784,-8.628703117,-0.7709329724,4.285621166,417.66990291262135,-426.2330097087379,-238.4368932038835,-7470.640776699029,3592.650485436893,-459.6990291262136,10
2024-06-15 12:51:00,0.02443460934,0.03176499158,-0.006108652335,-8.556877136,-0.8762778044,4.170699596,656.375,-295.75,49.75,-7438.5,3703.5,-366.375,10
2024-06-15 12:51:00,0.02443460934,0.03176499158,-0.006108652335,-8.556877136,-0.8762778044,4.170699596,487.1428571428572,-211.78571428571428,198.78571428571428,-7323.071428571428,3777.714285714286,-490.7857142857143,10
2024-06-15 12:51:00,-0.03176499158,-0.04886921868,-0.04276056588,-8.520963669,-0.7015010715,4.089296341,439.0909090909091,-11.136363636363626,152.6818181818182,-7335.409090909091,3801.090909090909,-508.3181818181818,10
2024-06-15 12:51:00,-0.1698205322,-0.1368338168,-0.1881465018,-8.322244644,-0.9600749016,4.120420933,235.7766990291262,38.601941747572816,66.16504854368932,-7288.116504854369,3953.106796116505,-581.2912621359224,10
2024-06-15 12:51:00,-0.1698205322,-0.1368338168,-0.1881465018,-8.322244644,-0.9600749016,4.120420933,476.6666666666667,-265.3333333333333,82.16666666666667,-7128.166666666667,3924.3333333333335,-821.6666666666666,10
2024-06-15 12:51:00,-0.07819075137,-0.1576032341,-0.216246292,-7.946355343,-1.81959331,4.951209068,254.53398058252424,107.747572815534,-248.53398058252424,-7466.825242718447,3879.330097087379,-646.7281553398059,10
2024-06-15 12:51:00,-0.07819075137,-0.1576032341,-0.216246292,-7.946355343,-1.81959331,4.951209068,187.90291262135923,-7.631067961165048,102.2233009708738,-7511.679611650486,3954.6893203883496,-711.6019417475728,10
2024-06-15 12:51:00,-1.161865711,-0.03298672289,-0.9346238375,-7.307103634,-3.174711466,4.156333923,339.11764705882354,-247.1176470588236,75.32352941176471,-7498.35294117647,3883.676470588235,-866.9411764705883,10
2024-06-15 12:51:01,-1.188743711,0.287106663,-1.429424644,-8.003816605,-4.855441093,2.758120298,341.88235294117646,-144.09803921568627,-52.13725490196079,-7310.960784313725,3858.686274509804,-809.4313725490196,10
2024-06-15 12:51:01,-1.376890302,0.1698205322,-0.5864306092,-7.788338184,-6.888118267,2.700659513,280.5809523809524,-134.0,177.83809523809524,-7512.295238095238,3909.942857142857,-428.9333333333333,10
2024-06-15 12:51:01,-1.376890302,0.1698205322,-0.5864306092,-6.426037312,-7.357381821,1.975216389,147.9795918367347,-330.57142857142856,159.22448979591837,-7115.102040816327,3768.795918367347,-637.8775510204082,10
2024-06-15 12:51:01,-0.3567453027,-0.2504547536,-0.4166100919,-6.426037312,-7.357381821,1.975216389,-70.62264150943396,35.924528301886795,-45.15094339622642,-7108.33962264151,4120.433962264151,-391.7358490566038,10
2024-06-15 12:51:01,-0.5949827433,-0.1502728462,-0.2333505303,-6.021417141,-7.39808321,1.323993564,62.15151515151516,-66.46464646464648,86.33333333333333,-7097.727272727273,4160.464646464647,-424.2020202020202,10
2024-06-15 12:51:01,-0.5949827433,-0.1502728462,-0.2333505303,-6.021417141,-7.39808321,1.323993564,-159.1121495327103,36.29906542056074,-398.03738317757006,-7121.130841121495,4157.803738317757,-487.2897196261682,10
2024-06-15 12:51:01,-0.2150245607,-0.09407325089,-0.02809980139,-5.880159378,-8.360552788,1.877054095,-279.1485148514852,114.65346534653466,-618.009900990099,-7370.465346534654,3797.168316831683,-472.63366336633663,10
2024-06-15 12:51:01,-0.2467895597,-0.03420845419,0.1014036313,-5.633556366,-7.546523571,0.758961916,-260.6645569620253,-59.265822784810126,-884.8164556962025,-7503.411392405063,3570.23417721519,-449.4367088607595,10
2024-06-15 12:51:01,-0.2467895597,-0.03420845419,0.1014036313,-5.633556366,-7.546523571,0.758961916,86.54545454545455,-632.2727272727273,-1331.5,-7733.590909090909,3614.681818181818,-768.7272727272727,10
2024-06-15 12:51:02,0.3628539443,0.290771842,0.1588249654,-5.712565422,-7.345410824,0.1197100878,623.0,-808.5092592592592,-1388.5277777777778,-7394.314814814815,3091.361111111112,-338.2037037037037,10
2024-06-15 12:51:02,0.228463605,0.5167919993,0.07696902007,-5.944802761,-8.188169479,-0.1867477298,0.2222222222222285,-253.22222222222223,-968.7777777777778,-7865.111111111111,2747.111111111112,-519.2222222222222,10
2024-06-15 12:51:02,0.228463605,0.5167919993,0.07696902007,-5.944802761,-8.188169479,-0.1867477298,9.619631901840478,-608.6257668711656,-985.3006134969326,-8295.552147239263,2577.2147239263804,-227.9447852760736,10
2024-06-15 12:51:02,0.03909537569,-0.08063421398,-0.05375614017,-6.138733387,-7.117961884,0.9169792533,313.3006134969325,-950.957055214724,-879.1656441717791,-8274.079754601227,2629.9754601227,-280.0920245398773,10
2024-06-15 12:51:02,0.03909537569,-0.08063421398,-0.05375614017,-6.138733387,-7.117961884,0.9169792533,208.7809523809524,-1092.0666666666666,-68.65714285714284,-7949.476190476191,2253.409523809524,299.64761904761906,10
2024-06-15 12:51:02,0.07574728876,-0.2748893499,-0.1722639948,-6.071695328,-7.558494568,0.383072257,306.0,-640.2571428571429,180.24761904761905,-7993.4,2293.866666666667,476.9904761904762,10
2024-06-15 12:51:02,-1.102000952,0.04398229718,-0.1649336219,-5.518634796,-8.008605003,-0.2106897533,12.821782178217823,-180.13861386138615,-355.5247524752475,-8211.841584158416,2202.732673267327,-66.25742574257426,10
2024-06-15 12:51:02,-1.102000952,0.04398229718,-0.1649336219,-5.518634796,-8.008605003,-0.2106897533,-31.625,-255.18269230769232,-263.96153846153845,-8191.096153846154,2220.4326923076924,285.8269230769231,10
2024-06-15 12:51:02,0.2455678284,-0.1136209369,0.05131268129,-6.160281181,-7.972691536,-0.6871358752,-118.25714285714284,-821.6857142857143,-340.8857142857143,-8143.085714285714,2184.457142857143,479.1714285714286,10
2024-06-15 12:51:02,0.1197295859,0.2577851415,-0.05375614017,-5.303156853,-10.05804157,0.7302315235,48.55,-1074.07,-338.6,-8015.29,2246.36,857.86,10
2024-06-15 12:51:03,0.1197295859,0.2577851415,-0.05375614017,-5.303156853,-10.05804157,0.7302315235,-292.65384615384613,-91.15384615384616,-219.34615384615384,-8023.2692307692305,2600.923076923077,1051.9615384615386,10
2024-06-15 12:51:03,0.4557054639,0.4007275999,0.6927211881,-6.933608055,-8.497021675,0.5602431893,-683.0384615384615,516.5384615384615,-382.8076923076923,-7830.961538461538,2250.923076923077,729.8461538461538,10
2024-06-15 12:51:03,0.7904596329,-0.7574729323,1.082453251,-8.54251194,-6.854599476,0.7038952708,-714.0891089108911,606.1485148514852,-124.8019801980198,-7863.0,2580.0,665.2376237623762,10
2024-06-15 12:51:03,-0.3249803185,-0.9395107627,1.082453251,-7.043741226,-3.90254879,1.508347034,-1430.8557692307693,553.625,-109.96153846153844,-7897.586538461538,2616.0865384615386,691.5480769230769,10
2024-06-15 12:51:03,-0.3249803185,-0.9395107627,1.082453251,-7.043741226,-3.90254879,1.508347034,-1699.0384615384614,563.0769230769231,-505.8076923076923,-7884.807692307692,2027.2692307692307,1044.3461538461538,10
2024-06-15 12:51:03,-1.279151797,-0.2712241709,0.6585127115,-6.7612257,-4.467580318,1.740584612,-1731.009708737864,658.6310679611651,-203.43689320388347,-8165.990291262135,1860.378640776699,1081.8543689320388,10
2024-06-15 12:51:03,0.3286454976,0.3652974069,0.2687807083,-8.686163902,-4.156333923,2.482787132,-1355.1020408163265,549.8163265306123,613.1632653061224,-8174.510204081633,2368.4489795918366,743.469387755102,10
2024-06-15 12:51:03,0.3286454976,0.3652974069,0.2687807083,-8.686163902,-4.156333923,2.482787132,-1104.1194029850749,220.16417910447765,502.55223880597015,-8180.731343283582,2748.2089552238804,812.1492537313433,10
2024-06-15 12:51:03,0.1649336219,-0.1343903542,-0.07819075137,-9.418789864,-2.681505919,3.08133769,-707.8775510204082,155.9795918367347,307.3061224489796,-7987.530612244898,2494.0,776.4081632653061,10
2024-06-15 12:51:04,0.1649336219,-0.1343903542,-0.07819075137,-9.418789864,-2.681505919,3.08133769,-165.41904761904763,138.95238095238096,-38.371428571428574,-8012.238095238095,2736.04761904762,840.4761904761905,10
2024-06-15 12:51:04,0.05619960278,-0.2174680233,0.2223549485,-8.422801971,-3.636792421,2.758120298,92.33986928104576,294.73202614379085,76.48366013071896,-8021.679738562091,2750.7581699346406,403.843137254902,10
2024-06-15 12:51:04,0.2309070677,-0.1148426682,0.232128799,-8.61912632,-2.966415882,2.901772499,92.99346405228758,134.6013071895425,258.1830065359477,-8022.986928104575,2759.908496732026,388.156862745098,10
2024-06-15 12:51:04,0.2309070677,-0.1148426682,0.232128799,-8.61912632,-2.966415882,2.901772499,-717.1238095238095,20.504761904761907,-347.4095238095238,-7919.72380952381,2759.095238095238,411.8285714285714,10
2024-06-15 12:51:04,0.09529497474,0.04031710699,0.2028072625,-8.523358345,-2.111685991,3.239354849,-1584.3009708737864,294.75728155339806,-206.16504854368927,-8004.223300970873,2880.9514563106795,807.5631067961165,10
2024-06-15 12:51:04,0.1050688252,0.08307767659,-0.06719517708,-8.892065048,-2.102109194,2.925714493,-1400.4117647058824,404.7941176470589,-207.3823529411765,-8211.235294117647,2226.205882352941,1137.1470588235295,10
2024-06-15 12:51:04,0.1050688252,0.08307767659,-0.06719517708,-8.892065048,-2.102109194,2.925714493,-688.4455445544554,296.7920792079208,-282.6039603960396,-8138.148514851485,2388.930693069307,1015.6633663366335,10
2024-06-15 12:51:04,0.2932153046,-0.09896016866,0.01221730467,-8.856152534,-2.533065319,2.93768549,-880.2385321100917,609.8715596330276,58.43119266055047,-7803.94495412844,2495.7522935779816,739.0733944954128,10
2024-06-15 12:51:04,0.2932153046,-0.09896016866,0.01221730467,-8.856152534,-2.533065319,2.93768549,-1096.909090909091,998.7474747474748,386.82828282828285,-7993.040404040404,2567.919191919192,821.4242424242424,10
2024-06-15 12:51:04,0.1685988009,-0.141720742,0.1087340117,-8.46589756,-2.250549555,3.651157618,-764.5094339622642,162.54716981132074,146.69811320754718,-7871.415094339623,2697.849056603773,659.7358490566038,10
2024-06-15 12:51:05,0.09407325089,-0.1014036313,0.106290549,-8.664615631,-1.994369984,3.823540211,149.8,28.2,90.85,-7830.75,2705.35,650.5,10
2024-06-15 12:51:05,0.09407325089,-0.1014036313,0.106290549,-8.664615631,-1.994369984,3.823540211,237.3846153846154,289.4230769230769,-515.9615384615385,-7971.192307692308,2698.192307692308,553.5384615384615,10
2024-06-15 12:51:05,0.03054326214,-0.009773843922,0.004886921961,-8.355764389,-1.606509328,3.888183594,152.5728155339806,359.6116504854369,302.252427184466,-7976.21359223301,2879.0291262135925,348.5631067961165,10
2024-06-15 12:51:05,0.03054326214,-0.009773843922,0.004886921961,-8.355764389,-1.606509328,3.888183594,-1.603773584905639,389.8207547169811,303.8018867924528,-7669.688679245283,2938.462264150944,-106.50943396226415,10
2024-06-15 12:51:05,-0.02809980139,-0.05986479297,0.03298672289,-9.081207275,-1.788468719,3.481169224,276.07142857142856,803.0510204081633,-83.55102040816327,-7842.214285714285,2834.520408163265,-170.05102040816325,10
2024-06-15 12:51:05,-0.02809980139,-0.05986479297,0.03298672289,-9.081207275,-1.788468719,3.481169224,361.4,316.5379310344828,189.86206896551724,-7880.0344827586205,2509.634482758621,-196.37241379310345,10
2024-06-15 12:51:05,-0.5644394755,-0.1075122803,0.1710422635,-8.803479195,-1.55862534,3.327940464,172.82539682539684,-451.8888888888889,1119.126984126984,-7751.873015873016,2904.15873015873,-329.8253968253968,10
2024-06-15 12:51:05,-0.4703662395,-0.07452555746,0.2651155293,-8.887276649,-2.128445387,3.8642416,251.2190476190476,-819.5904761904762,502.4476190476191,-7690.428571428572,3038.5238095238096,102.16190476190476,10
2024-06-15 12:51:05,-0.4703662395,-0.07452555746,0.2651155293,-8.887276649,-2.128445387,3.8642416,186.0,-291.33333333333337,130.0,-7738.666666666667,3419.6666666666665,64.0,10
2024-06-15 12:51:06,-0.02076941915,-0.03787364438,0.3029891551,-8.786720276,-1.721431017,3.612850428,-64.04761904761904,-150.38095238095238,-296.5374149659864,-7690.39455782313,3202.020408163265,18.17687074829932,10
2024-06-15 12:51:06,0.02809980139,-0.1185078546,0.1514945775,-8.702922821,-1.644816518,4.173093796,-213.28571428571428,51.14285714285714,-227.57142857142856,-7595.714285714285,3012.714285714286,-90.57142857142856,10
2024-06-15 12:51:06,0.02809980139,-0.1185078546,0.1514945775,-8.702922821,-1.644816518,4.173093796,268.85714285714283,126.45714285714286,-266.42857142857144,-7661.628571428571,3099.8,87.02857142857142,10
2024-06-15 12:51:06,0.1734857261,-0.09162978828,0.06719517708,-8.899248123,-1.106121182,4.189853191,257.0,313.5471698113208,-160.88679245283018,-7799.679245283019,2800.3396226415093,19.13207547169812,10
2024-06-15 12:51:06,0.1734857261,-0.09162978828,0.06719517708,-8.899248123,-1.106121182,4.189853191,287.3333333333333,188.1764705882353,46.31372549019608,-8017.578431372549,2790.5882352941176,-266.421568627451,10
2024-06-15 12:51:06,0.2968805134,-0.125838235,0.09896016866,-8.585607529,-0.895431459,3.897760391,309.9038461538462,-412.4038461538462,-159.75,-7991.192307692308,2770.4615384615386,-162.69230769230768,10
2024-06-15 12:51:06,0.2748893499,-0.2235766798,0.1111774743,-8.652645111,-0.1340752989,4.587290287,474.6732673267327,-184.009900990099,-107.3069306930693,-7624.0,3138.247524752476,-296.03960396039605,10
2024-06-15 12:51:06,0.2748893499,-0.2235766798,0.1111774743,-8.652645111,-0.1340752989,4.587290287,298.6274509803921,-210.8235294117647,-87.23529411764706,-7646.176470588235,3127.3529411764707,22.94117647058824,10
2024-06-15 12:51:06,0.009773843922,-0.2260201424,-0.1722639948,-8.188169479,0.1197100878,4.714183331,-81.76190476190476,45.25714285714286,-72.79047619047618,-7622.838095238095,3132.9333333333334,32.714285714285715,10
2024-06-15 12:51:06,0.1392772794,-0.05009094998,-0.09162978828,-8.312667847,-0.3375824392,4.8291049,-90.1509433962264,-68.52830188679245,-106.69811320754717,-7630.650943396226,3130.1603773584907,-31.943396226415096,10
2024-06-15 12:51:07,0.1392772794,-0.05009094998,-0.09162978828,-8.312667847,-0.3375824392,4.8291049,37.03846153846154,113.1923076923077,-29.134615384615387,-7659.2692307692305,2955.0,-284.13461538461536,10
2024-06-15 12:51:07,-0.1661553532,0.1185078546,-0.05742133409,-7.855375767,-0.4620809257,5.231330872,-324.81632653061223,95.54081632653062,-73.58163265306122,-7653.693877551021,3195.6326530612246,28.367346938775512,10
2024-06-15 12:51:07,-0.1661553532,0.1185078546,-0.05742133409,-7.855375767,-0.4620809257,5.231330872,-327.2135922330097,104.6504854368932,-123.80582524271844,-7655.893203883495,2973.9611650485435,13.50485436893204,10
2024-06-15 12:51:07,-0.3188716471,0.5216789246,-0.2138028294,-8.250418663,-1.101332784,4.419696331,-300.3333333333333,83.0,-43.0,-7671.333333333333,3039.333333333333,36.0,10
2024-06-15 12:51:07,0.5338962078,0.4495968223,-0.2602286041,-8.681375504,-1.742978811,3.313575268,-332.0576923076923,55.11538461538461,-106.78846153846156,-7675.903846153846,3166.346153846154,100.28846153846156,10
2024-06-15 12:51:07,0.5338962078,0.4495968223,-0.2602286041,-8.681375504,-1.742978811,3.313575268,-100.78571428571428,-163.45454545454547,-83.01948051948052,-7649.714285714285,3179.3636363636365,-4.9090909090909065,10
2024-06-15 12:51:07,0.4899139404,0.2443460971,-0.2333505303,-9.088389397,-1.431732655,3.141192675,37.576923076923066,-303.8461538461538,-23.0,-7586.615384615385,3249.923076923077,-101.34615384615384,10
2024-06-15 12:51:07,0.6499606371,-0.1820378453,-0.3567453027,-8.813055992,-1.884236693,3.675099611,15.766990291262136,-62.82524271844659,280.18446601941747,-7468.04854368932,3414.495145631068,-114.07766990291262,10
2024-06-15 12:51:07,0.6499606371,-0.1820378453,-0.3567453027,-8.813055992,-1.884236693,3.675099611,-189.72277227722773,585.3960396039604,79.75247524752476,-7768.40594059406,3221.237623762376,79.0,10
2024-06-15 12:51:07,0.6866125464,-0.1441642046,-0.283441484,-8.604761124,-1.589749932,3.912125587,-223.37908496732027,212.88888888888889,-342.921568627451,-7627.35294117647,3344.9411764705883,30.065359477124183,10
2024-06-15 12:51:08,0.6866125464,-0.1441642046,-0.283441484,-8.604761124,-1.589749932,3.912125587,-43.283018867924525,-23.433962264150946,-173.71698113207546,-7664.283018867924,2998.0,-273.8679245283019,10
2024-06-15 12:51:08,0.7147123218,0.06963863969,-0.2761110961,-8.334216118,-1.551442742,4.110844135,-104.09433962264151,18.245283018867923,-284.5660377358491,-7592.773584905661,3010.735849056604,-282.9811320754717,10
2024-06-15 12:51:08,0.5522221923,-0.01221730467,-0.1722639948,-8.571242332,-1.304839969,5.121197224,21.145631067961176,33.69902912621359,-278.747572815534,-7586.058252427184,2997.8058252427186,-272.5533980582524,10
2024-06-15 12:51:08,0.5522221923,-0.01221730467,-0.1722639948,-8.571242332,-1.304839969,5.121197224,275.6666666666667,-72.55555555555556,-344.8888888888889,-7580.555555555556,3009.111111111112,-308.1111111111111,10
2024-06-15 12:51:08,0.2504547536,0.05497787148,-0.125838235,-8.659827232,-1.532289028,4.42209053,-108.9126213592233,-270.8252427184466,-171.24271844660194,-7663.21359223301,3131.398058252428,-306.13592233009706,10
2024-06-15 12:51:08,0.2883284092,-0.009773843922,0.0171042271,-8.564059258,-0.7685387731,4.560954094,-104.73529411764706,35.27450980392157,-340.46078431372547,-7667.745098039216,2799.313725490196,-149.70588235294116,10
2024-06-15 12:51:08,0.2883284092,-0.009773843922,0.0171042271,-8.564059258,-0.7685387731,4.560954094,-31.307692307692307,32.42307692307692,96.98076923076924,-7665.134615384615,2899.8653846153848,-276.40384615384613,10
2024-06-15 12:51:08,0.4056145251,-0.03665191308,0.07086037099,-8.441955566,-0.7134721279,4.592078686,47.27272727272727,-39.57575757575758,-52.18181818181819,-7635.484848484848,3146.818181818182,-323.24242424242425,10
2024-06-15 12:51:08,0.4056145251,-0.03665191308,0.07086037099,-8.441955566,-0.7134721279,4.592078686,-289.6320754716981,-77.73584905660377,55.54716981132076,-7647.443396226415,3133.72641509434,-357.91509433962267,10
2024-06-15 12:51:08,0.2394591719,-0.00244346098,0.1172861308,-8.4012537,-0.4213795066,4.627991676,-293.58,-85.66,58.86,-7646.82,3125.5,-379.56,10
2024-06-15 12:51:09,0.3017674387,-0.003665191587,0.08429940045,-8.470685959,-0.6272808313,4.496310711,-202.0480769230769,-73.28846153846155,59.47115384615385,-7950.8942307692305,3109.278846153846,-140.65384615384616,10
2024-06-15 12:51:09,0.3017674387,-0.003665191587,0.08429940045,-8.470685959,-0.6272808313,4.496310711,78.83168316831683,-233.1188118811881,-310.34653465346537,-7947.762376237623,2809.2178217821784,-336.5643564356436,10
2024-06-15 12:51:09,0.1820378453,-0.003665191587,0.007330383174,-8.147468567,-0.2298433632,4.472368717,-4.57516339869281,-588.7777777777778,-322.1764705882353,-7676.915032679739,2793.986928104576,-250.05882352941177,10
2024-06-15 12:51:09,0.05742133409,0.02443460934,-0.1637118906,-8.556877136,-0.14844051,4.587290287,-9.803921568627452,-577.6666666666666,-69.23529411764707,-7657.960784313725,2775.686274509804,-32.41176470588235,10
2024-06-15 12:51:09,0.05742133409,0.02443460934,-0.1637118906,-8.556877136,-0.14844051,4.587290287,88.10526315789474,50.140350877192986,329.89473684210526,-7611.368421052632,3174.719298245614,84.49122807017544,10
2024-06-15 12:51:09,0.2028072625,0.09162978828,-0.06352998316,-8.307879448,-0.06703764945,4.429273129,-23.99009900990099,-102.34653465346534,-103.9009900990099,-7656.108910891089,3168.108910891089,86.0,10
2024-06-15 12:51:09,-0.3530801237,0.07330382615,-0.1136209369,-8.42759037,-0.2849099934,4.30956316,-109.3076923076923,-91.21153846153844,231.03846153846155,-7622.826923076923,2953.942307692308,69.36538461538461,10
2024-06-15 12:51:09,-0.3530801237,0.07330382615,-0.1136209369,-8.42759037,-0.2849099934,4.30956316,-96.27450980392156,-73.3529411764706,-53.372549019607845,-7619.431372549019,2966.764705882353,30.431372549019606,10
2024-06-15 12:51:09,-0.6426302195,0.05131268129,-0.1209513173,-8.870517731,-0.8020575643,4.49870491,-11.92307692307692,-98.3076923076923,-54.57692307692308,-7619.423076923077,3019.576923076923,-175.30769230769232,10
2024-06-15 12:51:09,-0.6426302195,0.05131268129,-0.1209513173,-8.870517731,-0.8020575643,4.49870491,-276.5047619047619,-103.75238095238096,-114.53333333333332,-7576.238095238095,3041.9904761904763,-283.48571428571427,10
2024-06-15 12:51:10,-0.7293730974,0.03909537569,-0.1429424733,-8.082824707,-1.836352706,4.137180328,-306.50485436893206,83.31067961165049,92.33980582524272,-7614.0,3055.504854368932,-286.747572815534,10
2024-06-15 12:51:10,-0.5241223574,0.2125810981,-0.1233947799,-9.346963882,-2.468421936,4.623203278,84.74038461538461,-269.96153846153845,43.22115384615384,-7596.259615384615,3251.6826923076924,12.653846153846152,10
2024-06-15 12:51:10,-0.5241223574,0.2125810981,-0.1233947799,-9.346963882,-2.468421936,4.623203278,-101.5,-287.5769230769231,-72.15384615384616,-7570.403846153846,3349.0,45.57692307692308,10
2024-06-15 12:51:10,-0.05497787148,0.3164281845,0.2186897546,-8.372523308,-2.449268341,3.098097086,88.44444444444446,-153.11111111111111,-127.22222222222224,-7567.111111111111,3388.0,38.333333333333336,10
2024-06-15 12:51:10,-0.05497787148,0.3164281845,0.2186897546,-8.372523308,-2.449268341,3.098097086,-128.92079207920793,-245.5148514851485,-145.94059405940595,-7597.792079207921,3206.3168316831684,-28.821782178217816,10
2024-06-15 12:51:10,-0.1563815027,0.3689626157,-0.1123992056,-8.245630264,-2.319981337,3.514688015,-154.13333333333333,-305.3047619047619,-244.0857142857143,-7629.190476190476,2980.6,-59.01904761904762,10
2024-06-15 12:51:10,-0.3762930036,0.2492330223,-0.6475171447,-9.866505623,-2.813186884,1.498770237,45.8235294117647,19.23529411764705,-287.1666666666667,-7638.196078431372,3040.843137254902,101.52941176470588,10
2024-06-15 12:51:10,-0.3762930036,0.2492330223,-0.6475171447,-9.866505623,-2.813186884,1.498770237,51.30769230769231,95.1153846153846,23.32692307692308,-7650.711538461538,2960.0,-24.192307692307693,10
2024-06-15 12:51:10,-0.1075122803,0.2932153046,-0.3090978265,-9.868899345,-2.341529369,-0.03830722719,-300.4,-68.7,33.5,-7658.5,3022.4,-33.5,10
2024-06-15 12:51:10,-0.2260201424,0.1441642046,-0.05742133409,-9.03571701,-3.799597979,0.2346317619,58.50980392156863,88.0,27.23529411764705,-7624.549019607844,3123.745098039216,-35.745098039215684,10
2024-06-15 12:51:11,-0.2260201424,0.1441642046,-0.05742133409,-9.03571701,-3.799597979,0.2346317619,-89.23300970873787,77.06796116504854,-302.80582524271847,-7634.038834951456,2970.8349514563106,-65.49514563106796,10
2024-06-15 12:51:11,-0.2553416789,-0.06108652428,-0.3225368559,-9.344569206,-4.09169054,0.6081272364,-119.67549668874172,21.364238410596027,-405.0264900662252,-7637.761589403974,2972.655629139073,-102.64900662251657,10
2024-06-15 12:51:11,0.08307767659,-0.07086037099,-0.09529497474,-8.240841866,-4.074931145,0.2011129409,-123.64900662251657,35.271523178807946,-416.94701986754967,-7630.476821192053,3117.6887417218545,-94.70198675496688,10
2024-06-15 12:51:11,0.08307767659,-0.07086037099,-0.09529497474,-8.240841866,-4.074931145,0.2011129409,-367.18367346938777,271.9591836734694,-253.6734693877551,-8002.163265306122,2740.285714285714,100.0204081632653,10
2024-06-15 12:51:11,-0.1637118906,0.07452555746,-0.1001819,-8.983044624,-4.378994942,0.4644751251,-554.2830188679245,-14.169811320754718,-184.7924528301887,-8052.377358490566,2755.0943396226417,66.9245283018868,10
2024-06-15 12:51:11,-0.09773843735,-0.04031710699,0.1123992056,-8.655038834,-4.635174274,-0.03112462163,-312.3916083916084,-335.2657342657343,35.0,-8048.272727272727,2908.811188811189,-51.21678321678321,10
2024-06-15 12:51:11,-0.2040289938,-0.08307767659,0.2797762752,-8.942343712,-4.390965939,0.6584054828,-2.761904761904759,-351.4761904761905,-213.1746031746032,-7966.603174603175,2884.5079365079364,249.7619047619048,10
2024-06-15 12:51:11,-0.2040289938,-0.08307767659,0.2797762752,-8.942343712,-4.390965939,0.6584054828,33.49019607843138,-24.725490196078425,97.84313725490196,-7948.686274509804,2763.156862745098,27.19607843137254,10
2024-06-15 12:51:11,-0.1282816976,-0.2174680233,0.3555235863,-8.901641846,-3.94085598,0.7278373241,-175.02884615384616,13.615384615384611,67.13461538461539,-8022.778846153846,2704.4903846153848,200.85576923076923,10
2024-06-15 12:51:12,-0.1282816976,-0.2174680233,0.3555235863,-8.901641846,-3.94085598,0.7278373241,-23.213592233009702,103.35922330097088,21.37864077669903,-8000.728155339806,2934.514563106796,45.718446601941736,10
2024-06-15 12:51:12,0.3078760803,-0.6352998614,0.5351179838,-9.533711433,-3.912125587,1.436521053,118.91428571428573,-9.199999999999989,4.066666666666666,-7988.971428571429,2924.361904761905,-14.36190476190476,10
2024-06-15 12:51:12,-0.0293215327,-0.668286562,0.6352998614,-8.872911453,-1.948880196,2.865859509,46.03846153846155,-49.57692307692308,17.076923076923077,-8011.5,2776.9615384615386,-53.88461538461539,10
2024-06-15 12:51:12,-0.0293215327,-0.668286562,0.6352998614,-8.872911453,-1.948880196,2.865859509,-283.8543689320388,-5.388349514563107,-289.5728155339806,-8028.300970873786,2907.5922330097087,-103.27184466019418,10
2024-06-15 12:51:12,-0.3494149148,-0.09529497474,0.6633996367,-8.573636055,-1.67115283,3.296815634,-336.2142857142857,-64.24489795918367,-286.7244897959184,-8058.948979591837,2832.0,-98.54081632653062,10
2024-06-15 12:51:12,-0.3176499307,0.3885102868,0.09162978828,-7.261613846,-1.577778935,2.887407303,-267.6057692307692,-106.4326923076923,70.86538461538461,-8050.096153846154,2818.980769230769,-101.45192307692308,10
2024-06-15 12:51:12,-0.3176499307,0.3885102868,0.09162978828,-7.261613846,-1.577778935,2.887407303,-17.773195876288653,88.12371134020619,-12.360824742268036,-8006.123711340206,2881.835051546392,-117.8762886597938,10
2024-06-15 12:51:12,0.2186897546,0.01588249579,-0.1991420686,-8.590395927,-1.470039845,2.906560898,-23.41509433962264,91.98113207547168,94.67924528301889,-8002.603773584906,2918.4150943396226,-122.26415094339625,10
2024-06-15 12:51:12,0.2186897546,0.01588249579,-0.1991420686,-8.590395927,-1.470039845,2.906560898,22.484848484848484,-95.51515151515152,-261.7676767676768,-8018.525252525253,2867.656565656566,-107.54545454545456,10
2024-06-15 12:51:12,0.5057964325,0.106290549,-0.1637118906,-9.404424667,-1.570596337,2.051830769,60.613861386138616,-99.24752475247524,21.65346534653465,-8043.693069306931,2863.2871287128714,-119.36633663366337,10
2024-06-15 12:51:13,0.6084218025,0.1514945775,-0.1588249654,-9.196128845,-0.8092401624,2.372653961,47.72435897435898,86.08974358974359,23.69871794871795,-8015.7692307692305,2868.698717948718,111.32692307692308,10
2024-06-15 12:51:13,0.6084218025,0.1514945775,-0.1588249654,-9.196128845,-0.8092401624,2.372653961,32.980769230769226,100.1923076923077,19.21153846153846,-8008.076923076923,2864.2115384615386,105.5576923076923,10
2024-06-15 12:51:13,0.1172861308,-0.07330382615,-0.08674286306,-9.349357605,-1.491587639,2.703053713,31.81553398058253,88.7378640776699,83.36893203883496,-8034.0,2848.339805825243,70.1747572815534,10
2024-06-15 12:51:13,0.0293215327,-0.1307251602,0.03787364438,-8.961497307,-1.668758631,3.004723072,69.0,79.91666666666667,38.11111111111112,-8025.305555555556,2860.6388888888887,-125.16666666666669,10
2024-06-15 12:51:13,0.0293215327,-0.1307251602,0.03787364438,-8.961497307,-1.668758631,3.004723072,-254.6164383561644,121.87671232876713,28.753424657534246,-8047.020547945205,2846.0205479452056,-98.14383561643837,10
2024-06-15 12:51:13,-0.2626720667,-0.05009094998,0.0109955743,-9.385271072,-1.211466074,2.557007313,-75.16438356164383,117.76712328767124,20.534246575342465,-8047.7054794520545,2846.705479452055,-102.93835616438356,10
2024-06-15 12:51:13,-0.003665191587,-0.2419026345,0.05375614017,-8.805873871,-1.340752959,2.894589901,28.300970873786408,98.873786407767,81.14563106796116,-8051.077669902913,2805.9417475728155,112.46601941747574,10
2024-06-15 12:51:13,-0.1075122803,-0.05742133409,0.2052507252,-8.932766914,-1.436521053,2.827552319,77.97058823529412,-100.3235294117647,-15.794117647058826,-7997.85294117647,2865.0,98.52941176470588,10
2024-06-15 12:51:13,-0.1075122803,-0.05742133409,0.2052507252,-8.932766914,-1.436521053,2.827552319,-90.94392523364483,-80.02803738317758,-3.448598130841121,-7977.289719626168,2888.411214953271,78.43925233644859,10
2024-06-15 12:51:14,-0.2040289938,0.04031710699,0.2186897546,-9.081207275,-1.15161097,2.918531895,-87.9795918367347,-94.22448979591836,104.81632653061224,-8001.367346938776,2723.8979591836733,34.816326530612244,10
2024-06-15 12:51:14,0.007330383174,-0.03420845419,0.1783726513,-9.126696587,-0.6655880809,3.031059265,-296.3978494623656,-65.38709677419354,279.258064516129,-7945.182795698925,2843.774193548388,74.33333333333333,10
2024-06-15 12:51:14,0.007330383174,-0.03420845419,0.1783726513,-9.126696587,-0.6655880809,3.031059265,37.14285714285714,334.57142857142856,59.14285714285714,-7951.714285714285,2750.285714285714,-186.57142857142856,10
2024-06-15 12:51:14,0.06719517708,-0.02076941915,0.1209513173,-9.165003777,-0.3543418646,2.8969841,-435.0,483.6666666666666,406.3333333333333,-7970.666666666667,2713.333333333333,-294.3333333333333,10
2024-06-15 12:51:14,0.06719517708,-0.02076941915,0.1209513173,-9.165003777,-0.3543418646,2.8969841,-133.36633663366337,394.3762376237624,291.9306930693069,-7785.029702970297,3043.40594059406,-340.1881188118812,10
2024-06-15 12:51:14,0.01221730467,0.06230825558,0.1160643995,-9.162610054,-0.1843535304,2.580949545,-368.1960784313725,293.47058823529414,282.72549019607845,-7607.039215686274,3021.6470588235293,-402.0980392156863,10
2024-06-15 12:51:14,-0.1209513173,0.09896016866,0.06841690838,-9.258378029,-0.2609679997,2.628833532,-183.55445544554456,-18.94059405940594,-96.4257425742574,-7635.990099009901,2979.3168316831684,-174.63366336633663,10
2024-06-15 12:51:14,-0.1209513173,0.09896016866,0.06841690838,-9.258378029,-0.2609679997,2.628833532,-33.17,-97.34,-288.02,-7627.11,2964.35,-141.88,10
2024-06-15 12:51:14,-0.07941248268,0.09040805697,0.1319468915,-9.289502144,-0.03112462163,2.597708941,61.18243243243244,78.38513513513513,-165.15540540540542,-7562.878378378378,2963.445945945946,-181.5810810810811,10
2024-06-15 12:51:14,-0.08185594529,0.05742133409,0.09407325089,-9.234436035,-0.2513911724,2.331952572,26.72297297297297,-27.695945945945937,53.08783783783781,-7585.851351351352,2945.8783783783783,-182.9324324324324,10
2024-06-15 12:51:15,-0.08185594529,0.05742133409,0.09407325089,-9.234436035,-0.2513911724,2.331952572,25.616161616161616,-7.939393939393938,-288.16161616161617,-7644.949494949495,3151.2020202020203,-207.5151515151515,10
2024-06-15 12:51:15,-0.1209513173,0.1014036313,0.04276056588,-9.220070839,0.007182605099,2.710236311,27.84313725490196,28.588235294117645,-310.88235294117646,-7622.450980392156,3119.5686274509803,-182.23529411764707,10
2024-06-15 12:51:15,-0.1209513173,0.1014036313,0.04276056588,-9.220070839,0.007182605099,2.710236311,-19.944785276073617,69.75460122699387,-352.0122699386503,-7660.858895705522,3164.9754601227,-195.9754601226994,10
2024-06-15 12:51:15,-0.02076941915,0.04520402849,0.03176499158,-9.442731857,-0.1651999205,2.499546528,-189.2699386503068,55.644171779141104,-347.7177914110429,-7660.245398773006,3173.564417177914,-204.56441717791407,10
2024-06-15 12:51:15,0.02565634064,-0.008552113548,0.0415388383,-9.251194954,0.1699883193,2.561795712,-308.06666666666666,-241.46666666666667,-320.67619047619047,-7650.609523809524,3052.2571428571428,-197.25714285714287,10
2024-06-15 12:51:15,0.02565634064,-0.008552113548,0.0415388383,-9.251194954,0.1699883193,2.561795712,54.588235294117645,-13.470588235294118,-250.76470588235293,-7959.64705882353,2785.6470588235293,-360.4117647058824,10
2024-06-15 12:51:15,-0.1014036313,-0.0293215327,-0.04398229718,-9.090784073,-0.08140286058,2.391807556,60.94230769230769,57.64423076923077,36.84615384615385,-7687.826923076923,2754.144230769231,-348.3076923076923,10
2024-06-15 12:51:15,-0.7513642311,0.05375614017,-0.01588249579,-9.119514465,0.1029506698,2.559401512,59.01923076923077,112.45192307692308,98.3846153846154,-7982.057692307692,2758.951923076923,-325.2307692307692,10
2024-06-15 12:51:15,-0.7513642311,0.05375614017,-0.01588249579,-9.119514465,0.1029506698,2.559401512,122.72727272727272,48.0,-77.22727272727273,-7978.863636363636,2736.590909090909,-297.5,10
2024-06-15 12:51:15,-0.3213151097,0.08063421398,-0.04642575979,-9.308655739,-0.2585737705,2.085349798,-39.2,-262.12,-17.76,-7969.0,2792.72,-277.96,10
2024-06-15 12:51:16,-0.3213151097,0.08063421398,-0.04642575979,-9.409213066,-1.580173135,1.82198751,321.9183673469388,-297.6734693877551,-13.73469387755102,-7635.408163265306,3127.3673469387754,-308.55102040816325,10
2024-06-15 12:51:16,-0.4276056588,0.2138028294,-0.2455678284,-9.409213066,-1.580173135,1.82198751,175.3831775700935,-320.5607476635514,-35.205607476635514,-7603.859813084112,3165.07476635514,-318.4018691588785,10
2024-06-15 12:51:16,0.2858849466,0.1600466967,-0.07330382615,-9.35654068,-1.082179189,1.891419291,301.46153846153845,-44.84615384615384,-188.1153846153846,-7603.826923076923,3098.980769230769,-316.34615384615387,10
2024-06-15 12:51:16,0.2858849466,0.1600466967,-0.07330382615,-9.35654068,-1.082179189,1.891419291,236.43956043956044,-7.197802197802204,-309.65934065934067,-7610.692307692308,2998.5494505494507,-325.85714285714283,10
2024-06-15 12:51:16,0.05375614017,0.1551597714,0.04276056588,-9.349357605,-0.873883605,1.704671621,109.49523809523812,-62.37142857142857,99.84761904761903,-7943.561904761905,3189.5238095238096,-205.01904761904763,10
2024-06-15 12:51:16,0.2015855312,0.02076941915,-0.1026253626,-9.373299599,-1.185129881,1.458068848,64.76687116564418,-57.80981595092024,-101.68711656441718,-7780.006134969325,3123.834355828221,-174.4478527607362,10
2024-06-15 12:51:16,0.2015855312,0.02076941915,-0.1026253626,-9.373299599,-1.185129881,1.458068848,80.9047619047619,27.142857142857142,-343.6666666666667,-7971.952380952381,3091.4761904761904,-161.85714285714286,10
2024-06-15 12:51:16,0.2981022298,-0.1282816976,-0.01343903504,-9.617507935,-1.142034173,1.673547029,33.9811320754717,-116.8679245283019,-230.8584905660377,-7953.688679245283,2725.075471698113,-343.9811320754717,10
2024-06-15 12:51:16,0.1795943826,-0.2260201424,0.09651670605,-9.583989143,-1.036689281,1.604115129,55.0377358490566,100.69811320754717,-124.16981132075472,-7956.66037735849,2733.943396226415,-346.0377358490566,10
2024-06-15 12:51:16,0.1795943826,-0.2260201424,0.09651670605,-9.583989143,-1.036689281,1.604115129,-337.2843137254902,107.37254901960785,-349.61764705882354,-7979.009803921569,2752.1960784313724,-135.38235294117646,10
2024-06-15 12:51:17,0.009773843922,-0.2040289938,0.07696902007,-9.342175484,-0.7613561153,2.243366957,-246.9047619047619,-120.95238095238096,-165.38095238095238,-7993.9047619047615,2857.0,-340.6190476190476,10
2024-06-15 12:51:17,0.009773843922,-0.2040289938,0.07696902007,-9.342175484,-0.7613561153,2.243366957,-238.0612244897959,-123.6734693877551,-215.0408163265306,-7999.34693877551,2857.0,-348.1020408163265,10
2024-06-15 12:51:17,0.2748893499,-0.1649336219,0.00122173049,-9.033323288,-0.7062895298,2.552218914,-583.7387387387388,-63.13513513513513,-239.85585585585585,-7881.531531531531,2743.7207207207207,-305.07207207207205,10
2024-06-15 12:51:17,0.4202753007,-0.02687807009,0.09529497474,-9.105149269,-0.2873041928,2.343923569,-590.5666666666667,-61.06666666666666,-71.26666666666668,-8029.8,2511.7,-53.56666666666666,10
2024-06-15 12:51:17,0.4202753007,-0.02687807009,0.09529497474,-9.105149269,-0.2873041928,2.343923569,-98.66666666666669,-499.3939393939394,53.87878787878788,-8003.212121212121,3114.212121212121,-105.3939393939394,10
2024-06-15 12:51:17,0.2345722616,-0.02565634064,0.04031710699,-9.234436035,0.06464344263,2.30801034,-4.423076923076923,-1078.1153846153843,-1382.4038461538462,-7811.0192307692305,2888.3076923076924,-1.3269230769230802,10
2024-06-15 12:51:17,0.2345722616,-0.02565634064,0.04031710699,-9.234436035,0.06464344263,2.30801034,-250.23076923076923,-987.3076923076924,-1595.4615384615386,-7860.076923076923,2407.923076923077,302.61538461538464,10
2024-06-15 12:51:17,-0.3543018401,0.0232128799,-0.05619960278,-9.011775017,-0.4740519226,2.671929121,-516.8834951456311,-1378.26213592233,-2421.42718446602,-8199.40776699029,2009.6407766990287,261.6504854368932,10
2024-06-15 12:51:17,0.5510004759,-0.09529497474,-0.01954768784,-9.296685219,-0.3280056417,2.741360903,-218.14150943396223,-1162.9056603773586,-2235.801886792453,-8259.27358490566,1975.5849056603768,550.433962264151,10
2024-06-15 12:51:17,0.5510004759,-0.09529497474,-0.01954768784,-9.296685219,-0.3280056417,2.741360903,-332.29245283018867,-1253.4716981132076,-2415.990566037736,-8286.632075471698,1934.0754716981128,593.8301886792453,10
2024-06-15 12:51:18,0.6450737119,-0.008552113548,-0.0171042271,-8.995016098,-0.2346317619,2.93529129,-325.3333333333333,-1262.5238095238096,-2329.095238095238,-8266.285714285714,1789.047619047619,451.2380952380952,10
2024-06-15 12:51:18,0.432492584,-0.007330383174,-0.1502728462,-9.581595421,-0.08858546615,2.856282711,264.16470588235296,-1253.235294117647,-1054.635294117647,-8479.811764705883,798.8588235294118,1811.2,10
2024-06-15 12:51:18,0.432492584,-0.007330383174,-0.1502728462,-9.581595421,-0.08858546615,2.856282711,148.4537037037037,-1237.101851851852,-1097.2314814814815,-8223.361111111111,875.5185185185185,1695.2407407407406,10
2024-06-15 12:51:18,0.338419348,-0.1490511149,-0.07330382615,-8.913613319,-0.1340752989,3.131615877,-56.11842105263159,-1271.4342105263158,-978.046052631579,-8161.539473684211,777.4934210526316,1800.032894736842,10
2024-06-15 12:51:18,0.338419348,-0.1490511149,-0.07330382615,-8.913613319,-0.1340752989,3.131615877,-501.8909090909091,-1161.5272727272727,-608.0727272727272,-8136.545454545455,673.2545454545455,1798.3818181818183,10
2024-06-15 12:51:18,0.2394591719,-0.1136209369,-0.09407325089,-8.966285706,0.0287304204,3.239354849,-877.1666666666666,-785.3333333333334,-115.4074074074074,-8133.018518518518,666.9444444444445,1723.611111111111,10
2024-06-15 12:51:18,0.3579670191,-0.08307767659,-0.141720742,-9.028534889,0.04788403213,3.236960649,-1102.2264150943397,-569.8867924528302,209.11320754716985,-8115.33962264151,664.7547169811321,1745.2075471698113,10
2024-06-15 12:51:18,0.3579670191,-0.08307767659,-0.141720742,-9.028534889,0.04788403213,3.236960649,-1292.5771812080536,-531.3557046979865,451.4026845637584,-8087.3087248322145,757.0201342281879,1875.221476510067,10
2024-06-15 12:51:18,-0.8503243923,-0.07574728876,-0.1685988009,-9.088389397,0.08858546615,3.002328873,-1384.2131147540983,-481.6065573770492,641.5409836065573,-8077.2786885245905,849.9180327868853,2040.1475409836064,10
2024-06-15 12:51:18,-2.05983758,0.09896016866,-0.0720821023,-8.678980827,-0.6200982332,3.82593441,-1137.754716981132,-42.33962264150944,662.3962264150944,-8127.773584905661,653.4905660377359,1989.188679245283,10
2024-06-15 12:51:19,-2.05983758,0.09896016866,-0.0720821023,-8.678980827,-0.6200982332,3.82593441,-773.5769230769231,-133.57692307692307,470.88461538461536,-8103.653846153846,755.2307692307693,2144.846153846154,10
2024-06-15 12:51:19,-0.581543684,0.08796459436,-0.05375614017,-8.980650902,-2.118868589,2.734178305,-255.4757281553398,-199.6990291262136,146.93203883495147,-8154.708737864078,865.8543689320388,2353.7184466019417,10
2024-06-15 12:51:19,-0.581543684,0.08796459436,-0.05375614017,-8.980650902,-2.118868589,2.734178305,266.0183486238532,115.27522935779815,66.70642201834862,-8219.62385321101,895.2935779816514,2403.6880733944954,10
2024-06-15 12:51:19,0.3750712574,-0.003665191587,-0.05619960278,-9.17697525,-2.657563925,2.647987127,828.3846153846154,379.46153846153845,325.3076923076923,-8130.2307692307695,1058.2307692307693,2281.692307692308,10
2024-06-15 12:51:19,0.5571091175,-0.09896016866,0.07452555746,-9.021351814,-2.118868589,2.894589901,740.7692307692307,545.6153846153846,337.3076923076923,-8248.538461538461,1270.923076923077,2054.230769230769,10
2024-06-15 12:51:19,0.5571091175,-0.09896016866,0.07452555746,-9.021351814,-2.118868589,2.894589901,459.0384615384616,191.96153846153845,-409.0384615384616,-8108.346153846154,1444.0,2025.0,10
2024-06-15 12:51:19,0.625526011,-0.1637118906,-0.0354301855,-8.935160637,-1.879448295,3.450044632,-176.0841121495327,-292.2056074766355,-932.5607476635514,-8143.308411214954,1395.1028037383178,1825.5046728971963,10
2024-06-15 12:51:19,0.3750712574,-0.03054326214,0.1930334121,-8.84896946,-1.254561663,3.414131641,-667.1826923076923,-900.6538461538462,-1211.701923076923,-8300.567307692309,1068.5384615384614,2390.519230769231,10
2024-06-15 12:51:19,0.3750712574,-0.03054326214,0.1930334121,-8.84896946,-1.254561663,3.414131641,-747.6601941747573,-703.5533980582525,-1470.7184466019417,-8186.728155339806,543.9902912621359,2673.2815533980583,10
2024-06-15 12:51:19,0.3848451078,-0.1307251602,0.01221730467,-8.923190117,-1.053448796,3.691859007,-837.6285714285714,-633.6952380952381,-1219.8666666666666,-7912.638095238095,280.54285714285714,2529.828571428572,10
2024-06-15 12:51:20,0.3848451078,-0.1307251602,0.01221730467,-8.923190117,-1.053448796,3.691859007,-769.0571428571428,-518.4571428571428,-713.2,-8194.542857142857,-142.3142857142857,2921.2571428571428,10
2024-06-15 12:51:20,0.1991420686,-0.1466076523,-0.04520402849,-8.983044624,-0.4884171486,3.97676897,-601.2181818181818,-60.86363636363637,-694.4727272727273,-7935.809090909091,-480.3909090909091,2737.2363636363634,10
2024-06-15 12:51:20,0.235793978,-0.07819075137,0.03787364438,-8.444349289,-0.4812345505,3.821146011,-573.3137254901961,208.68627450980392,-440.9607843137255,-8081.392156862745,-502.9607843137255,2836.6666666666665,10
2024-06-15 12:51:20,0.235793978,-0.07819075137,0.03787364438,-8.444349289,-0.4812345505,3.821146011,-157.7924528301887,252.81132075471697,-329.8301886792453,-8211.943396226416,-485.0754716981132,2690.1509433962265,10
2024-06-15 12:51:20,-0.00122173049,0.01466076635,0.07696902007,-8.552088737,-0.2801215947,3.79480958,-19.028571428571425,249.1714285714285,-278.57142857142856,-8293.628571428571,-720.8285714285714,2521.057142857143,10
2024-06-15 12:51:20,-0.04642575979,0.106290549,0.1576032341,-8.590395927,-0.1604115069,3.727771997,-74.95238095238095,-31.933333333333337,-619.8666666666667,-8459.419047619047,-620.1809523809524,2600.752380952381,10
2024-06-15 12:51:20,-0.04642575979,0.106290549,0.1576032341,-8.590395927,-0.1604115069,3.727771997,-294.3896103896104,-374.6753246753247,-607.9350649350649,-8310.142857142857,-673.9480519480519,2575.064935064935,10
2024-06-15 12:51:20,-0.1270599663,0.07941248268,0.09529497474,-8.997409821,0.004788403399,3.787626982,-376.35087719298247,-648.859649122807,-395.2982456140351,-8014.245614035088,-877.719298245614,2578.0701754385964,10
2024-06-15 12:51:20,-0.1270599663,0.07941248268,0.09529497474,-8.997409821,0.004788403399,3.787626982,145.34615384615384,-558.2692307692307,219.96153846153845,-7982.153846153846,-890.9615384615385,2942.692307692308,10
2024-06-15 12:51:20,-0.00244346098,0.0354301855,0.1160643995,-9.026140213,-0.009576806799,3.682282209,156.73333333333335,-454.4,559.1333333333333,-8046.133333333333,-733.0,3215.733333333333,10
2024-06-15 12:51:21,-0.1026253626,0.008552113548,0.05619960278,-8.805873871,0.1029506698,3.428496838,18.200000000000003,-297.45714285714286,-296.2285714285714,-8003.4,-735.0,3276.6,10
2024-06-15 12:51:21,-0.1026253626,0.008552113548,0.05619960278,-8.805873871,0.1029506698,3.428496838,88.49056603773585,-224.8679245283019,-756.2264150943397,-7911.981132075472,-808.0943396226415,3222.9056603773583,10
2024-06-15 12:51:21,-0.2797762752,0.009773843922,0.02443460934,-8.978256226,0.1388636976,3.399766445,266.15384615384613,-335.61538461538464,-102.69230769230768,-7886.538461538462,-856.4615384615385,3257.230769230769,10
2024-06-15 12:51:21,-0.5241223574,-0.01954768784,0.06108652428,-8.975862503,-0.09576806426,3.500322819,302.8301886792453,-124.50943396226415,168.2830188679245,-7917.7169811320755,-857.3207547169811,3279.8867924528304,10
2024-06-15 12:51:21,-0.5241223574,-0.01954768784,0.06108652428,-8.975862503,-0.09576806426,3.500322819,232.0873786407767,291.07766990291265,364.11650485436894,-7886.155339805825,-793.2815533980582,3226.5922330097087,10
2024-06-15 12:51:21,-0.3799581826,0.01466076635,0.0720821023,-8.868123055,-0.2202665508,3.64158082,-57.91818181818182,174.88181818181818,550.8727272727273,-7993.336363636364,-753.8090909090909,3251.5,10
2024-06-15 12:51:21,-0.3017674387,0.07941248268,-0.0171042271,-8.817844391,-0.1651999205,3.572149038,-69.5,235.66666666666663,403.1666666666667,-7822.666666666667,-519.1666666666666,3312.0,10
2024-06-15 12:51:21,-0.3017674387,0.07941248268,-0.0171042271,-8.817844391,-0.1651999205,3.572149038,-203.63106796116503,847.6019417475728,-3.776699029126213,-8054.310679611651,-570.3300970873786,2941.5728155339807,10
2024-06-15 12:51:21,-0.1918116808,0.106290549,-0.06108652428,-8.937555313,-0.5889736414,3.732560396,274.8796296296296,1135.861111111111,268.3703703703704,-8270.935185185184,-323.3703703703704,2707.351851851852,10
2024-06-15 12:51:21,-0.1918116808,0.106290549,-0.06108652428,-8.937555313,-0.5889736414,3.732560396,-112.58823529411764,697.1764705882352,1023.7647058823528,-8471.441176470587,76.3529411764706,2681.8823529411766,10
2024-06-15 12:51:22,0.08307767659,0.05497787148,0.00122173049,-8.951920509,-0.8188169599,3.347094059,234.44642857142856,-352.2202380952381,812.547619047619,-8123.648809523809,-9.625,2612.4464285714284,10
2024-06-15 12:51:22,0.1111774743,0.0109955743,0.008552113548,-8.978256226,-0.5458779931,3.440467834,579.0892857142858,-274.2440476190476,267.30952380952385,-8188.5297619047615,127.875,2657.089285714286,10
2024-06-15 12:51:22,0.1111774743,0.0109955743,0.008552113548,-8.978256226,-0.5458779931,3.440467834,463.1162790697674,-37.046511627906966,205.13953488372096,-8240.441860465116,213.093023255814,2515.860465116279,10
2024-06-15 12:51:22,0.1380555481,-0.01832595654,0.03787364438,-9.042900085,-0.3926490843,3.406949043,247.90291262135923,62.68932038834952,278.6504854368932,-8227.271844660194,525.5631067961165,2610.7961165048546,10
2024-06-15 12:51:22,0.1380555481,-0.01832595654,0.03787364438,-9.042900085,-0.3926490843,3.406949043,-155.39622641509436,136.30188679245282,710.1792452830189,-8120.764150943396,419.16037735849056,2644.311320754717,10
2024-06-15 12:51:22,0.04642575979,-0.02076941915,0.04398229718,-9.006986618,-0.1915361285,3.275267839,-282.525,243.64375,385.825,-8196.71875,406.25,2617.6375,10
2024-06-15 12:51:22,-0.06352998316,-0.0293215327,0.05986479297,-8.896853447,-0.08140286058,3.354276657,-330.72549019607845,275.2549019607843,-28.49019607843137,-8293.823529411764,426.0,2549.7450980392155,10
2024-06-15 12:51:22,-0.06352998316,-0.0293215327,0.05986479297,-8.896853447,-0.08140286058,3.354276657,-356.13978494623655,-84.36559139784947,-71.6021505376344,-8225.36559139785,443.2043010752688,2391.774193548388,10
2024-06-15 12:51:22,-0.01466076635,0.01466076635,-0.01466076635,-8.880094528,-0.1843535304,3.363853455,182.57142857142856,-358.0,335.33333333333337,-7923.0,1418.5714285714284,1971.3333333333333,10
2024-06-15 12:51:22,0.02199114859,0.01832595654,0.0293215327,-9.018958092,-0.181959331,3.464409828,3.264150943396224,226.8867924528301,111.1509433962264,-8049.433962264151,1369.9433962264152,2222.5471698113206,10
2024-06-15 12:51:23,0.02199114859,0.01832595654,0.0293215327,-9.018958092,-0.181959331,3.464409828,-201.9702970297029,260.6831683168317,173.69306930693068,-8001.227722772277,1365.2970297029703,2300.544554455445,10
2024-06-15 12:51:23,0.09040805697,0.01954768784,0.0171042271,-9.03571701,-0.2250549644,3.473986626,-125.0,-53.333333333333336,-237.04761904761904,-8282.380952380952,1172.857142857143,2157.095238095238,10
2024-06-15 12:51:23,0.09040805697,0.01954768784,0.0171042271,-9.03571701,-0.2250549644,3.473986626,-23.0,-11.714285714285714,-474.1428571428571,-8168.571428571428,1297.571428571429,2071.5714285714284,10
2024-06-15 12:51:23,0.1185078546,0.004886921961,0.0109955743,-8.954314232,-0.181959331,3.361459255,310.9238095238095,370.4761904761905,24.05714285714285,-8227.44761904762,1190.5333333333333,1893.209523809524,10
2024-06-15 12:51:23,0.04520402849,0.02199114859,0.03787364438,-9.121908188,0.02154781483,3.335123062,-298.3298969072165,349.9484536082474,-16.855670103092777,-8438.41237113402,968.2886597938144,1892.670103092784,10
2024-06-15 12:51:23,0.04520402849,0.02199114859,0.03787364438,-9.121908188,0.02154781483,3.335123062,-235.21052631578948,176.92105263157896,-375.7105263157895,-8336.973684210527,1106.7368421052631,2131.894736842105,10
2024-06-15 12:51:23,0.01343903504,-0.0109955743,0.03665191308,-9.0740242,0.1604115069,3.284844637,-223.9803921568628,43.5686274509804,-686.5,-8263.088235294117,1094.2254901960785,2084.627450980392,10
2024-06-15 12:51:23,0.02443460934,-0.04398229718,0.00244346098,-8.973467827,0.1149216816,3.579331636,-284.4947368421053,287.3578947368421,357.65263157894736,-8300.105263157895,1033.578947368421,1730.884210526316,10
2024-06-15 12:51:23,0.02443460934,-0.04398229718,0.00244346098,-8.973467827,0.1149216816,3.579331636,-602.7378640776699,1204.252427184466,850.8349514563107,-7930.223300970873,1412.116504854369,1272.1844660194174,10
2024-06-15 12:51:23,0.1185078546,-0.04764748737,-0.007330383174,-9.105149269,0.2801215947,3.56736064,-1246.7222222222222,1285.9444444444443,1067.3333333333333,-8551.444444444445,1633.8333333333333,1372.3333333333333,10
2024-06-15 12:51:24,0.1734857261,-0.0109955743,0.01343903504,-8.906430244,0.3112462163,3.550601006,-1343.6358024691358,1107.5493827160494,1059.925925925926,-8534.160493827161,1487.537037037037,1364.925925925926,10
2024-06-15 12:51:24,0.1734857261,-0.0109955743,0.01343903504,-8.906430244,0.3112462163,3.550601006,-163.8125,1085.875,1343.9375,-7997.4375,1714.9375,1077.6875,10
2024-06-15 12:51:24,0.1759291887,-0.0720821023,-0.02199114859,-9.038111687,0.390254885,3.49553442,-695.8235294117646,1227.470588235294,1243.470588235294,-8471.176470588236,2181.5882352941176,511.8235294117648,10
2024-06-15 12:51:24,0.1759291887,-0.0720821023,-0.02199114859,-9.038111687,0.390254885,3.49553442,-189.68269230769232,655.8461538461538,109.25961538461536,-8270.692307692309,1980.7211538461536,476.0480769230769,10
2024-06-15 12:51:24,0.1930334121,-0.03909537569,0.0354301855,-8.77235508,0.5913678408,3.464409828,1144.379746835443,2.955696202531641,-863.8924050632911,-8288.39240506329,2330.0696202531644,452.6392405063291,10
2024-06-15 12:51:24,0.09651670605,-0.00122173049,0.04886921868,-8.84896946,0.6847416759,3.622427225,389.5,-103.4375,-209.125,-8028.6875,2190.9375,498.875,10
2024-06-15 12:51:24,0.09651670605,-0.00122173049,0.04886921868,-8.84896946,0.6847416759,3.622427225,-47.57425742574259,213.8019801980198,448.1881188118812,-8135.425742574257,2104.079207920792,446.8118811881188,10
2024-06-15 12:51:24,0.0415388383,0.01466076635,0.01343903504,-8.808267593,0.8834604025,3.339911461,433.62745098039215,181.2941176470588,249.50980392156865,-8122.078431372549,2160.9803921568628,517.313725490196,10
2024-06-15 12:51:24,0.0415388383,0.01466076635,0.01343903504,-8.808267593,0.8834604025,3.339911461,247.7142857142857,302.2244897959184,473.18367346938777,-7931.061224489796,2617.5102040816328,268.65306122448976,10
2024-06-15 12:51:24,0.03054326214,0.04398229718,-0.003665191587,-8.846575737,0.787692368,3.483563423,178.08653846153845,-70.55769230769232,562.2019230769231,-8021.711538461538,2509.730769230769,323.86538461538464,10
2024-06-15 12:51:25,0.05742133409,0.06597344577,-0.02687807009,-8.904036522,0.7805097699,3.409343243,582.7961165048544,-551.4077669902913,628.7864077669904,-7948.533980582524,2889.6893203883496,137.28155339805826,10
2024-06-15 12:51:25,0.05742133409,0.06597344577,-0.02687807009,-8.904036522,0.7805097699,3.409343243,659.6190476190476,-189.6190476190476,595.4761904761905,-7622.333333333333,2767.3809523809523,360.1904761904762,10
2024-06-15 12:51:25,-0.04031710699,0.07696902007,-0.1673770845,-8.719682693,0.7015010715,3.306392431,454.92,-548.48,462.86,-7586.28,3014.4,325.68,10
2024-06-15 12:51:25,-0.2431243658,0.08063421398,-0.3555235863,-8.968679428,0.2274491638,3.191470861,533.4509803921569,-506.7450980392157,134.62745098039215,-7650.450980392156,3093.2549019607845,335.3529411764706,10
2024-06-15 12:51:25,-0.2431243658,0.08063421398,-0.3555235863,-8.968679428,0.2274491638,3.191470861,598.8490566037735,-448.3207547169811,-97.26415094339625,-7602.792452830188,3168.056603773585,333.9433962264151,10
2024-06-15 12:51:25,-0.3176499307,0.2199114859,-0.531452775,-9.114726067,-0.117315881,3.110068083,-146.63963963963965,159.5855855855856,-235.24324324324323,-8192.441441441442,3001.135135135135,-87.98198198198199,10
2024-06-15 12:51:25,-0.3176499307,0.2199114859,-0.531452775,-9.114726067,-0.117315881,3.110068083,-179.1086956521739,215.6304347826087,-240.3260869565217,-8010.130434782609,2707.043478260869,-100.7391304347826,10
2024-06-15 12:51:25,0.01221730467,0.4630358517,-0.9211847782,-8.633491516,-1.704671621,2.602497339,-97.27522935779815,-141.8440366972477,-313.2201834862385,-8030.155963302752,2922.422018348624,-104.03669724770644,10
2024-06-15 12:51:25,0.3286454976,0.5925393105,-0.6157521605,-8.583212852,-3.138798475,0.8930372596,40.573170731707314,34.31707317073171,-321.0365853658537,-7992.707317073171,2928.829268292683,-54.207317073170735,10
2024-06-15 12:51:25,0.3286454976,0.5925393105,-0.6157521605,-8.583212852,-3.138798475,0.8930372596,37.52439024390244,79.4390243902439,-307.0121951219512,-8004.90243902439,2927.609756097561,-41.40243902439025,10
2024-06-15 12:51:26,-0.06352998316,0.1918116808,-0.1160643995,-10.11789608,-2.911349297,1.534683347,-32.54081632653061,107.59183673469389,74.37755102040816,-7817.051020408163,2488.387755102041,345.05102040816325,10
2024-06-15 12:51:26,-0.003665191587,0.141720742,-0.1356120855,-8.128314972,-4.783615112,0.2585737705,328.38461538461536,41.84615384615385,-43.84615384615385,-7890.615384615385,2608.4615384615386,333.46153846153845,10
2024-06-15 12:51:26,-0.003665191587,0.141720742,-0.1356120855,-8.128314972,-4.783615112,0.2585737705,329.93793103448274,-185.39310344827587,171.2551724137931,-7912.379310344828,2840.041379310345,336.2758620689655,10
2024-06-15 12:51:26,0.006108652335,-0.07696902007,-0.08918632567,-9.718064308,-4.110844135,1.424550056,265.32,40.6,164.08,-7946.24,2771.76,22.40000000000001,10
2024-06-15 12:51:26,0.3200933933,-0.02565634064,0.08063421398,-8.832210541,-3.763684988,1.185129881,-18.0,-102.6095238095238,214.7809523809524,-7703.390476190476,3074.3238095238094,-44.91428571428571,10
2024-06-15 12:51:26,0.3200933933,-0.02565634064,0.08063421398,-8.832210541,-3.763684988,1.185129881,-317.29357798165137,-290.73394495412845,-316.9357798165138,-7954.688073394495,2823.532110091743,209.24770642201835,10
2024-06-15 12:51:26,0.2138028294,-0.1392772794,0.145385921,-8.990227699,-3.720589399,1.053448796,-648.2,56.39999999999998,-1079.6,-7730.6,2580.2,261.6,10
2024-06-15 12:51:26,0.2138028294,-0.1392772794,0.145385921,-8.990227699,-3.720589399,1.053448796,-74.66666666666669,385.4117647058823,-670.3333333333333,-8154.862745098039,2338.4901960784314,244.50980392156865,10
2024-06-15 12:51:26,-0.01221730467,-0.2138028294,0.1343903542,-8.573636055,-2.647987127,1.776497602,430.5050505050505,-640.7676767676768,661.1212121212121,-8241.30303030303,2354.151515151515,-102.15151515151516,10
2024-06-15 12:51:26,-0.1478293836,-0.109955743,0.1319468915,-8.803479195,-2.549824715,2.068590164,429.1456310679612,-705.0485436893204,472.7669902912621,-7977.640776699029,2476.135922330097,230.40776699029124,10
2024-06-15 12:51:27,-0.1478293836,-0.109955743,0.1319468915,-8.803479195,-2.549824715,2.068590164,384.2,-697.4285714285714,-33.457142857142856,-8012.228571428572,2740.657142857143,229.94285714285715,10
2024-06-15 12:51:27,-0.4019493461,-0.1991420686,-0.2724458873,-9.421183586,-1.982398987,2.351106167,317.8130841121495,-122.77570093457943,70.73831775700934,-7907.0,2618.96261682243,543.6355140186915,10
2024-06-15 12:51:27,-0.4019493461,-0.1991420686,-0.2724458873,-9.421183586,-1.982398987,2.351106167,127.5,-30.0,-175.5,-8262.5,2654.0,612.5,10
2024-06-15 12:51:27,-0.2345722616,-0.5241223574,-0.1918116808,-8.317456245,-4.134786129,1.831564307,609.52,-159.68,-25.84,-8041.8,2897.48,206.32,10
2024-06-15 12:51:27,0.2015855312,-0.4495968223,0.01221730467,-8.688557625,-3.881000996,3.294421434,321.3980582524272,106.2233009708738,-415.1456310679612,-7995.951456310679,2764.417475728156,185.70873786407768,10
2024-06-15 12:51:27,0.2015855312,-0.4495968223,0.01221730467,-8.688557625,-3.881000996,3.294421434,-118.17307692307692,290.3076923076923,-518.3076923076923,-7928.076923076923,2831.4615384615386,107.5,10
2024-06-15 12:51:27,0.02687807009,0.3054326177,0.381179899,-8.470685959,-3.653551817,2.710236311,-422.3532934131737,171.85029940119762,-444.0479041916168,-7847.682634730539,2898.4491017964074,280.50299401197606,10
2024-06-15 12:51:27,-0.2492330223,-0.0232128799,0.3909537494,-8.956708908,-3.488351822,3.153163671,-499.5988023952096,142.50898203592814,-449.437125748503,-7849.479041916167,2886.4730538922154,287.0898203592814,10
2024-06-15 12:51:27,-0.2492330223,-0.0232128799,0.3909537494,-8.956708908,-3.488351822,3.153163671,-594.2475247524752,359.6237623762376,-146.0,-7945.089108910891,2509.980198019802,472.7029702970297,10
2024-06-15 12:51:27,-0.1783726513,-0.1282816976,0.2663372457,-9.11233139,-3.01190567,3.038241863,-743.0,838.9417475728155,-216.5533980582524,-7890.73786407767,2232.116504854369,598.4271844660194,10
2024-06-15 12:51:28,-0.1783726513,-0.1282816976,0.2663372457,-9.11233139,-3.01190567,3.038241863,-834.3557046979865,890.993288590604,14.885906040268456,-7859.013422818792,2571.053691275168,194.6107382550336,10
2024-06-15 12:51:28,0.02687807009,-0.1747074574,-0.007330383174,-8.954314232,-2.913743496,2.97359848,-572.6107382550335,869.51677852349,149.78523489932886,-7901.96644295302,2642.8657718120803,148.9731543624161,10
2024-06-15 12:51:28,0.161268428,-0.2626720667,0.1722639948,-8.997409821,-1.838746905,2.731784105,-442.0990099009901,285.8514851485148,-531.1188118811881,-7864.267326732674,2651.2772277227723,259.1485148514852,10
2024-06-15 12:51:28,0.161268428,-0.2626720667,0.1722639948,-8.997409821,-1.838746905,2.731784105,-640.5,284.5,-346.5,-8033.5,2435.5,272.0,10
2024-06-15 12:51:28,0.1759291887,-0.1148426682,0.2394591719,-8.750806808,-1.496376038,2.86107111,-549.59,-46.98,36.46,-8231.52,2189.87,325.0,10
2024-06-15 12:51:28,-0.2089159191,-0.1197295859,0.1954768747,-8.678980827,-1.434126854,3.263296843,29.52380952380952,-66.57142857142857,165.95238095238096,-7917.761904761905,2239.333333333333,289.23809523809524,10
2024-06-15 12:51:28,-0.2089159191,-0.1197295859,0.1954768747,-8.678980827,-1.434126854,3.263296843,328.13592233009706,-56.52427184466019,615.2330097087379,-7977.194174757282,2499.669902912621,-71.76699029126213,10
2024-06-15 12:51:28,-0.06352998316,-0.01954768784,0.08918632567,-8.73404789,-1.568202138,3.390189648,131.6168224299065,-16.31775700934577,323.69158878504675,-8043.261682242991,2894.177570093458,-106.65420560747664,10
2024-06-15 12:51:28,-0.06352998316,-0.01954768784,0.08918632567,-8.73404789,-1.568202138,3.390189648,-292.9795918367347,100.71428571428572,178.28571428571428,-8009.0204081632655,2924.4897959183672,-96.57142857142856,10
2024-06-15 12:51:28,-0.04031710699,-0.02443460934,0.03420845419,-8.997409821,-1.589749932,3.406949043,-11.99019607843138,-179.0196078431373,302.07843137254906,-7991.666666666667,2757.1176470588234,-90.17647058823528,10
2024-06-15 12:51:29,-0.07086037099,0.0232128799,0.01954768784,-8.913613319,-1.314416766,3.23456645,-30.0,-217.66666666666669,175.33333333333334,-7953.666666666667,3099.333333333333,-72.66666666666666,10
2024-06-15 12:51:29,-0.07086037099,0.0232128799,0.01954768784,-8.913613319,-1.314416766,3.23456645,14.542857142857144,-177.1809523809524,-210.05714285714288,-7951.580952380952,2883.0761904761903,165.41904761904763,10
2024-06-15 12:51:29,0.07574728876,0.04398229718,0.1576032341,-8.84896946,-0.9983820915,3.469198227,11.519607843137257,-158.26470588235293,-153.84313725490196,-7955.529411764706,2746.901960784314,268.8529411764706,10
2024-06-15 12:51:29,0.1722639948,0.03054326214,-0.0109955743,-9.040505409,-0.6607996821,3.454833031,23.514285714285712,-262.8571428571429,-147.02857142857144,-7968.742857142857,2734.4857142857145,117.77142857142856,10
2024-06-15 12:51:29,0.1722639948,0.03054326214,-0.0109955743,-9.040505409,-0.6607996821,3.454833031,-315.6923076923077,-258.58653846153845,-274.21153846153845,-8029.288461538462,2877.2403846153848,270.66346153846155,10
2024-06-15 12:51:29,0.1588249654,0.03054326214,-0.03420845419,-8.973467827,-0.6631938815,3.392583847,-149.36708860759495,4.784810126582278,24.18987341772152,-8045.202531645569,2874.126582278481,236.9873417721519,10
2024-06-15 12:51:29,0.1588249654,0.03054326214,-0.03420845419,-8.973467827,-0.6631938815,3.392583847,-174.0506329113924,16.17721518987342,31.78481012658228,-8043.303797468355,2879.1898734177216,246.48101265822783,10
2024-06-15 12:51:29,0.2028072625,0.03909537569,0.00122173049,-9.351752281,-0.7445967197,3.268085241,-368.88235294117646,-111.51960784313724,14.862745098039216,-8039.960784313725,2869.225490196078,541.1666666666666,10
2024-06-15 12:51:29,0.1160643995,-0.02199114859,0.0232128799,-8.803479195,-0.4189853072,3.303998232,-273.2450980392157,-70.76470588235294,-305.2843137254902,-8036.382352941177,2880.2450980392155,253.00980392156865,10
2024-06-15 12:51:29,0.1160643995,-0.02199114859,0.0232128799,-8.803479195,-0.4189853072,3.303998232,-299.0254777070064,-105.77070063694268,-149.656050955414,-8054.452229299363,2776.2547770700635,237.52229299363057,10
2024-06-15 12:51:30,0.1001819,0.05253441259,0.01832595654,-9.095572472,-0.3711012602,3.409343243,-311.12738853503186,-96.85350318471338,-136.28025477707007,-8044.261146496815,2597.2738853503183,235.6114649681529,10
2024-06-15 12:51:30,0.1075122803,0.04398229718,0.08918632567,-8.923190117,-0.6895300746,3.308786631,-197.4705882352941,-103.67647058823528,50.52941176470589,-7855.705882352941,2476.235294117647,219.2058823529412,10
2024-06-15 12:51:30,0.1075122803,0.04398229718,0.08918632567,-8.923190117,-0.6895300746,3.308786631,45.79807692307692,84.5673076923077,-278.125,-7831.471153846154,2465.817307692308,221.7403846153846,10
2024-06-15 12:51:30,0.004886921961,-0.04031710699,-0.007330383174,-8.82263279,-0.5434837937,3.368641853,-167.41346153846155,-47.75,38.49038461538461,-7994.576923076923,2494.0865384615386,175.9903846153846,10
2024-06-15 12:51:30,0.004886921961,-0.04031710699,-0.007330383174,-8.82263279,-0.5434837937,3.368641853,-214.52884615384616,327.25,54.83653846153846,-7813.807692307692,2496.971153846154,242.33653846153845,10
2024-06-15 12:51:30,0.09407325089,0.04642575979,0.03420845419,-8.995016098,-0.3734954596,3.270479441,-595.6019417475728,-52.57281553398059,-465.1553398058253,-7875.611650485437,2542.757281553398,361.5145631067961,10
2024-06-15 12:51:30,0.06352998316,0.01832595654,-0.0232128799,-9.011775017,-0.4548983276,3.435679436,-696.7450980392157,256.4117647058824,-775.9607843137255,-7883.588235294118,2294.607843137255,217.2549019607843,10
2024-06-15 12:51:30,0.06352998316,0.01832595654,-0.0232128799,-9.011775017,-0.4548983276,3.435679436,-247.0,13.320754716981128,13.754716981132075,-7956.037735849057,2234.0,239.16981132075472,10
2024-06-15 12:51:30,0.3836233616,-0.03665191308,-0.1514945775,-8.705317497,-0.4788403511,3.361459255,-162.15533980582524,-481.252427184466,-347.6601941747573,-7884.912621359223,2304.21359223301,452.77669902912623,10
2024-06-15 12:51:30,0.342084527,0.009773843922,-0.2590068579,-8.865729332,-0.672770679,3.404554844,-340.97087378640776,-326.495145631068,-171.64077669902912,-7974.436893203883,2362.223300970874,436.62135922330094,10
2024-06-15 12:51:31,0.342084527,0.009773843922,-0.2590068579,-8.865729332,-0.672770679,3.404554844,-60.882352941176464,101.58823529411764,-215.1176470588236,-7841.264705882353,2010.1470588235293,502.4117647058824,10
2024-06-15 12:51:31,0.3958406746,0.04520402849,-0.2076941878,-8.973467827,-0.5841852427,3.490746021,75.36633663366337,-332.1089108910891,-602.019801980198,-8086.217821782178,2384.009900990099,428.1485148514852,10
2024-06-15 12:51:31,0.3958406746,0.04520402849,-0.2076941878,-8.983044624,-0.4740519226,3.366247654,337.7920792079208,192.5445544554456,44.84158415841584,-7880.415841584158,2036.4356435643565,666.6534653465346,10
2024-06-15 12:51:31,0.3738495409,0.07574728876,-0.06597344577,-8.983044624,-0.4740519226,3.366247654,399.1495327102804,966.7009345794391,635.1869158878504,-8027.934579439252,2193.4392523364486,508.0,10
2024-06-15 12:51:31,0.05619960278,-0.05986479297,-0.009773843922,-9.033323288,-0.6440402865,3.660734415,547.1445783132531,966.0,830.0361445783133,-8179.831325301205,2299.939759036145,64.3132530120482,10
2024-06-15 12:51:31,0.05619960278,-0.05986479297,-0.009773843922,-9.033323288,-0.6440402865,3.660734415,812.8072289156627,716.0,1108.9518072289156,-7944.891566265061,2301.746987951807,-85.0843373493976,10
2024-06-15 12:51:31,0.01221730467,-0.06597344577,-0.04764748737,-8.769960403,-0.6129156351,3.742137194,629.9586206896552,537.4689655172414,1431.503448275862,-7722.206896551724,2629.393103448276,-217.50344827586207,10
2024-06-15 12:51:31,-0.106290549,0.03787364438,-0.1319468915,-8.753201485,-0.6703764796,3.471592426,-33.16,694.3199999999999,1343.76,-7535.0,3387.16,-487.4,10
2024-06-15 12:51:31,-0.106290549,0.03787364438,-0.1319468915,-8.753201485,-0.6703764796,3.471592426,-188.8235294117647,385.2058823529412,1416.0,-7743.970588235294,3438.970588235294,-317.3529411764706,10
2024-06-15 12:51:31,-0.2553416789,0.07819075137,-0.1392772794,-8.793902397,-1.146822572,3.519476414,-130.24223602484471,197.13664596273293,1660.1552795031057,-6901.521739130435,3580.6335403726707,-239.2546583850932,10
2024-06-15 12:51:32,-0.2553416789,0.07819075137,-0.1392772794,-8.793902397,-1.146822572,3.519476414,-41.422360248447205,480.3664596273292,1836.552795031056,-7010.217391304348,3848.335403726708,-212.54658385093168,10
2024-06-15 12:51:32,-0.1991420686,0.008552113548,-0.00122173049,-8.980650902,-1.314416766,3.775655985,-63.32692307692308,516.5769230769231,1485.9711538461538,-6661.096153846154,4393.2307692307695,-726.4807692307693,10
2024-06-15 12:51:32,-0.04398229718,0.0293215327,0.00122173049,-9.095572472,-1.520318031,3.684676409,-334.1862745098039,200.7843137254902,440.7058823529412,-7226.009803921569,5076.764705882353,-870.3823529411765,10
2024-06-15 12:51:32,-0.04398229718,0.0293215327,0.00122173049,-9.095572472,-1.520318031,3.684676409,-915.049504950495,177.2970297029703,-64.72277227722773,-6509.990099009901,4874.247524752475,-815.6237623762377,10
2024-06-15 12:51:32,0.109955743,-0.04276056588,0.0109955743,-8.7843256,-1.278503656,3.287238836,-1383.923076923077,353.2307692307692,-259.2307692307692,-6832.076923076923,5368.653846153846,-771.1923076923077,10
2024-06-15 12:51:32,0.06230825558,-0.05986479297,0.03909537569,-8.777143478,-1.074996591,3.251325846,-272.88349514563106,418.378640776699,-810.4757281553398,-6609.145631067961,4701.271844660194,-571.6893203883495,10
2024-06-15 12:51:32,0.09896016866,-0.0354301855,-0.01588249579,-8.908824921,-1.055842996,3.514688015,108.32380952380952,546.9714285714285,86.02857142857144,-7038.171428571429,5218.933333333333,-1048.6190476190477,10
2024-06-15 12:51:32,0.09896016866,-0.0354301855,-0.01588249579,-8.927978516,-0.9313444495,3.229778051,310.75,-474.1,-1483.2,-6573.55,4543.75,-813.6,10
2024-06-15 12:51:32,0.07941248268,0.003665191587,0.06597344577,-8.927978516,-0.9313444495,3.229778051,-451.1089108910891,-613.0,-1759.673267326733,-7120.297029702971,4083.9504950495048,-851.5346534653465,10
2024-06-15 12:51:33,0.05864306539,-0.04276056588,0.1869247705,-9.124302864,-0.6272808313,3.378218651,-39.37234042553192,-1004.7872340425532,-887.1702127659574,-7380.436170212766,3773.468085106383,-274.59574468085106,10
2024-06-15 12:51:33,0.05864306539,-0.04276056588,0.1869247705,-9.124302864,-0.6272808313,3.378218651,297.1495327102804,-1100.9065420560748,-375.58878504672896,-7185.794392523365,3652.364485981309,-21.747663551401843,10
2024-06-15 12:51:33,-0.009773843922,-0.05619960278,0.1429424733,-8.827422142,-0.3974374831,3.509899616,-427.91011235955057,-410.0337078651685,-1253.8202247191011,-7504.831460674157,3519.370786516854,-80.65168539325842,10
2024-06-15 12:51:33,-0.1026253626,-0.009773843922,0.03176499158,-8.999804497,-0.5267243981,3.665522814,-1015.0,-352.66666666666663,-1412.2222222222222,-7698.111111111111,3284.4444444444443,-111.55555555555556,10
2024-06-15 12:51:33,-0.1026253626,-0.009773843922,0.03176499158,-8.999804497,-0.5267243981,3.665522814,-1563.6078431372548,203.843137254902,-1148.4117647058824,-7686.21568627451,3019.274509803922,151.3921568627451,10
2024-06-15 12:51:33,0.05253441259,-0.01588249579,0.145385921,-9.186552048,-0.2466027737,3.708618402,-1797.2815533980583,233.8543689320388,-770.6116504854369,-7837.339805825242,2965.359223300971,248.5242718446601,10
2024-06-15 12:51:33,0.1832595766,0.02443460934,0.1820378453,-8.583212852,0.3112462163,3.555389643,-1500.5773195876288,-1.7835051546391725,-748.0721649484536,-8004.216494845361,2465.701030927835,616.2989690721649,10
2024-06-15 12:51:33,0.1832595766,0.02443460934,0.1820378453,-8.583212852,0.3112462163,3.555389643,-562.0288461538462,-276.9807692307692,-1057.25,-7978.9807692307695,2500.826923076923,431.46153846153845,10
2024-06-15 12:51:33,-0.08429940045,-0.00244346098,0.08674286306,-8.760383606,0.2729389966,3.725377798,573.5882352941176,-321.8529411764706,-941.5588235294116,-8216.79411764706,2301.558823529412,445.61764705882354,10
2024-06-15 12:51:33,-0.08429940045,-0.00244346098,0.08674286306,-8.760383606,0.2729389966,3.725377798,1587.6666666666667,-165.0,-446.0,-8230.0,2330.0,393.3333333333333,10
2024-06-15 12:51:34,-0.03420845419,0.00122173049,0.04031710699,-8.875306129,0.3591302633,3.732560396,1698.116504854369,-561.1359223300971,-243.9902912621359,-7934.689320388349,2386.0,528.3300970873786,10
2024-06-15 12:51:34,0.0293215327,-0.0109955743,0.004886921961,-8.736441612,0.3064578176,3.766079187,1709.7358490566037,-428.1415094339623,-381.4811320754717,-7954.254716981132,2322.8584905660377,191.14150943396223,10
2024-06-15 12:51:34,0.0293215327,-0.0109955743,0.004886921961,-8.736441612,0.3064578176,3.766079187,1735.08,-571.3,-357.98,-8220.1,2220.5,168.47,10
2024-06-15 12:51:34,0.02809980139,0.03420845419,-0.03420845419,-8.741230011,0.3615244627,3.734954596,1306.5607476635514,-616.8130841121496,96.97196261682242,-8170.009345794392,2385.056074766356,200.85046728971963,10
2024-06-15 12:51:34,0.02809980139,0.03420845419,-0.03420845419,-8.834604263,0.4094084799,3.672705412,177.07368421052632,49.68421052631579,-297.0842105263158,-7926.884210526316,2210.021052631579,189.1578947368421,10
2024-06-15 12:51:34,0.07696902007,0.03298672289,0.02687807009,-8.834604263,0.4094084799,3.672705412,-317.6442307692308,-30.45192307692308,34.74038461538461,-8223.057692307691,2377.673076923077,198.97115384615384,10
2024-06-15 12:51:34,0.07696902007,0.03909537569,0.01343903504,-8.736441612,0.6895300746,3.56496644,-172.45192307692307,-12.182692307692308,126.08653846153848,-8224.98076923077,2333.442307692308,198.0096153846154,10
2024-06-15 12:51:34,0.07696902007,0.03909537569,0.01343903504,-8.736441612,0.6895300746,3.56496644,-450.26666666666665,-15.6,-115.66666666666669,-8255.066666666668,2321.4666666666667,218.0,10
2024-06-15 12:51:34,-0.02687807009,0.03787364438,0.02443460934,-8.877699852,0.6871358752,3.507505417,-458.4757281553398,314.2718446601942,-55.48543689320388,-8255.388349514564,1980.9223300970875,584.3300970873786,10
2024-06-15 12:51:34,-0.06597344577,0.008552113548,0.01221730467,-8.884882927,0.605733037,3.493140221,-518.125,228.5769230769231,125.28846153846156,-8240.307692307691,2283.653846153846,299.46153846153845,10
2024-06-15 12:51:35,-0.06597344577,0.008552113548,0.01221730467,-8.884882927,0.605733037,3.493140221,-356.390243902439,381.9756097560976,392.1951219512195,-8055.90243902439,2376.9756097560976,172.21951219512195,10
2024-06-15 12:51:35,-0.06597344577,-0.02076941915,-0.006108652335,-8.870517731,0.538695395,3.584120035,-88.66666666666667,469.14814814814815,553.3333333333334,-7894.222222222223,2478.962962962963,208.03703703703704,10
2024-06-15 12:51:35,-0.2602286041,-0.04886921868,-0.008552113548,-8.920795441,0.4836287498,3.481169224,211.42391304347825,65.47826086956522,326.1630434782609,-7984.130434782609,2499.5,76.68478260869566,10
2024-06-15 12:51:35,-0.2602286041,-0.04886921868,-0.008552113548,-8.920795441,0.4836287498,3.481169224,179.4368932038835,-37.76699029126215,-97.32038834951456,-7821.058252427184,2475.533980582524,-16.281553398058254,10
2024-06-15 12:51:35,-0.7476990819,-0.07941248268,-0.125838235,-8.623914719,0.3687070608,4.041412354,199.920245398773,-112.0245398773006,-69.28834355828221,-7829.564417177914,2466.196319018405,-27.773006134969325,10
2024-06-15 12:51:35,-0.7476990819,-0.07941248268,-0.125838235,-8.623914719,0.3687070608,4.041412354,253.4782608695652,92.45652173913044,-4.695652173913043,-7835.108695652174,2468.391304347826,-40.19565217391305,10
2024-06-15 12:51:35,-0.109955743,-0.0354301855,-0.05497787148,-8.858546257,-0.423773706,3.960009575,294.35643564356434,-273.91089108910893,-37.79207920792079,-8038.663366336634,2750.009900990099,-22.663366336633658,10
2024-06-15 12:51:35,0.03909537569,0.05864306539,-0.05619960278,-8.59278965,-0.4620809257,3.787626982,5.819999999999993,-247.18,97.92,-8013.24,2819.04,-4.700000000000003,10
2024-06-15 12:51:35,0.03909537569,0.05864306539,-0.05619960278,-8.59278965,-0.4620809257,3.787626982,282.74257425742576,-368.2376237623762,-148.66336633663366,-7971.425742574257,2513.3267326732675,-29.247524752475247,10
2024-06-15 12:51:35,-0.03054326214,0.02687807009,-0.09040805697,-8.918401718,-0.4812345505,3.660734415,-92.88235294117646,-355.97058823529414,4.872549019607845,-7849.578431372549,2469.6470588235293,335.156862745098,10
2024-06-15 12:51:36,-0.03787364438,0.01343903504,0.06352998316,-8.73404789,-0.5530605912,3.921702385,-112.0,-199.3333333333333,-74.0,-7905.0,2466.6666666666665,357.6666666666667,10
2024-06-15 12:51:36,-0.03787364438,0.01343903504,0.06352998316,-8.73404789,-0.5530605912,3.921702385,-62.833333333333336,53.77777777777778,85.16666666666667,-8040.222222222223,2579.333333333333,352.55555555555554,10
2024-06-15 12:51:36,-0.05619960278,0.08307767659,0.03298672289,-8.825027466,-0.5554547906,3.859453201,-215.2765957446809,32.59574468085106,194.7872340425532,-7973.702127659574,2761.936170212766,-26.31914893617021,10
2024-06-15 12:51:36,-0.05619960278,0.08307767659,0.03298672289,-8.825027466,-0.5554547906,3.859453201,-225.95192307692307,245.5192307692308,224.9230769230769,-7906.115384615385,2771.971153846154,27.971153846153847,10
2024-06-15 12:51:36,0.03787364438,0.04398229718,0.08918632567,-8.975862503,-0.4836287498,3.545812607,-347.2330097087379,-41.89320388349515,-69.58252427184466,-7953.398058252427,2844.42718446602,29.058252427184463,10
2024-06-15 12:51:36,0.06719517708,0.00244346098,0.06230825558,-8.901641846,-0.2250549644,3.643975019,-229.5922330097088,17.524271844660195,114.28155339805824,-7615.922330097087,2791.6796116504856,291.81553398058253,10
2024-06-15 12:51:36,0.06719517708,0.00244346098,0.06230825558,-8.901641846,-0.2250549644,3.643975019,-251.2058823529412,272.38235294117646,-40.20588235294117,-8015.176470588235,3115.970588235294,348.55882352941177,10
2024-06-15 12:51:36,-0.02199114859,0.00244346098,0.02443460934,-8.904036522,-0.3280056417,3.660734415,-139.5,-185.0,165.0,-8012.5,3164.0,257.5,10
2024-06-15 12:51:36,-0.08918632567,-0.007330383174,-0.004886921961,-8.904036522,-0.3184288144,3.500322819,118.16037735849056,-271.14150943396226,10.575471698113205,-7967.264150943396,3141.396226415094,155.47169811320754,10
2024-06-15 12:51:36,-0.08918632567,-0.007330383174,-0.004886921961,-8.904036522,-0.3184288144,3.500322819,116.10526315789474,-270.3684210526316,-138.2982456140351,-7964.2807017543855,3125.771929824561,155.4561403508772,10
2024-06-15 12:51:37,0.0232128799,-0.01588249579,-0.009773843922,-8.932766914,-0.07661445439,3.67988801,176.35135135135135,61.05405405405405,42.02702702702703,-7958.810810810811,2999.243243243244,361.4054054054054,10
2024-06-15 12:51:37,0.0232128799,-0.01588249579,-0.009773843922,-8.932766914,-0.07661445439,3.67988801,185.6504854368932,-345.1067961165048,-109.6504854368932,-7630.951456310679,2972.7184466019417,368.3883495145631,10
2024-06-15 12:51:37,0.0415388383,-0.0171042271,-0.0171042271,-8.889671326,-0.03351882473,3.617638826,361.811320754717,-285.2641509433962,-230.622641509434,-7626.849056603773,2953.603773584906,298.1509433962264,10
2024-06-15 12:51:37,0.1111774743,-0.0415388383,-0.004886921961,-8.743624687,-0.05985504389,3.643975019,164.2280701754386,47.07602339181287,-278.7719298245614,-7834.309941520468,3147.8830409356724,336.07602339181284,10
2024-06-15 12:51:37,0.1295034289,-0.01343903504,-0.01832595654,-8.839392662,-0.1029506698,3.711012602,288.59183673469386,57.14285714285714,-303.0816326530612,-7959.877551020408,3100.4489795918366,311.59183673469386,10
2024-06-15 12:51:37,0.1221730486,-0.02443460934,-0.008552113548,-8.738836288,0.07661445439,3.725377798,97.84761904761903,-80.76190476190476,81.42857142857143,-7949.314285714286,2926.3142857142857,-19.16190476190476,10
2024-06-15 12:51:37,0.1221730486,-0.02443460934,-0.008552113548,-8.738836288,0.07661445439,3.725377798,48.7965367965368,-69.94805194805195,-203.0952380952381,-7963.376623376624,2756.1991341991343,-43.45021645021645,10
2024-06-15 12:51:37,0.05375614017,0.02443460934,-0.04276056588,-8.932766914,0.2202665508,3.64158082,34.943722943722946,37.84415584415584,-84.04761904761904,-7969.87012987013,2752.7359307359307,-44.31601731601732,10
2024-06-15 12:51:37,0.05375614017,0.02443460934,-0.04276056588,-8.932766914,0.2202665508,3.64158082,-1118.3544303797469,-647.1012658227849,-1243.607594936709,-7996.050632911392,2236.658227848101,733.0886075949367,10
2024-06-15 12:51:38,-0.0171042271,0.00122173049,-0.00244346098,-8.726864815,0.09337386489,3.737348795,47.43689320388347,-722.1067961165048,-2010.7475728155337,-7421.155339805825,798.7378640776699,1141.8058252427184,10
2024-06-15 12:51:38,-0.2687807083,0.02199114859,-0.0109955743,-8.856152534,-0.0023942017,3.725377798,-581.3786407766991,-56.56310679611651,-731.7669902912621,-7885.533980582524,1571.7961165048544,483.0485436893204,10
2024-06-15 12:51:38,-0.2687807083,0.02199114859,-0.0109955743,-8.856152534,-0.0023942017,3.725377798,442.2547169811321,1559.5283018867924,2462.971698113208,-7722.16037735849,2072.037735849057,116.87735849056604,10
2024-06-15 12:51:38,-0.2260201424,0.05009094998,-0.05009094998,-8.839392662,-0.5219359994,3.620033026,1063.5384615384614,2088.6153846153848,3796.0,-8041.7692307692305,2721.3076923076924,-379.3076923076923,10
2024-06-15 12:51:38,-0.01832595654,0.0,0.03909537569,-9.050082207,-0.282515794,3.758896589,1907.252427184466,1326.5631067961165,2941.660194174757,-8381.601941747573,4552.563106796117,-1215.893203883495,10
2024-06-15 12:51:38,-0.01832595654,0.0,0.03909537569,-9.050082207,-0.282515794,3.758896589,1409.8857142857144,-118.11428571428571,978.0571428571428,-7978.971428571429,4476.4857142857145,-1322.8,10
2024-06-15 12:51:38,0.1307251602,-0.04031710699,0.08796459436,-8.73404789,-0.1221042871,3.663128614,1115.2,-298.08,784.3199999999999,-7095.08,3760.0,-939.12,10
2024-06-15 12:51:38,0.1307251602,-0.04031710699,0.08796459436,-8.73404789,-0.1221042871,3.663128614,-11.359223300970882,-778.9417475728155,29.330097087378647,-7358.446601941748,3771.5825242718447,-787.7184466019418,10
2024-06-15 12:51:38,0.125838235,0.0109955743,-0.03909537569,-8.702922821,-0.1436520964,3.715801001,486.5,-76.5,1570.0,-6848.0,3342.0,-462.0,10
2024-06-15 12:51:39,0.2602286041,-0.00244346098,0.006108652335,-9.016563416,0.2322375625,3.682282209,553.0909090909091,-642.969696969697,963.5151515151516,-7314.424242424242,4512.363636363636,-932.060606060606,10
2024-06-15 12:51:39,0.2602286041,-0.00244346098,0.006108652335,-9.016563416,0.2322375625,3.682282209,738.1145833333334,-673.90625,-333.53125,-6919.458333333333,4030.3333333333335,-489.7395833333333,10
2024-06-15 12:51:39,0.06719517708,-0.01832595654,-0.0293215327,-8.817844391,0.4740519226,3.900154591,145.56435643564356,-461.8415841584159,-622.5940594059406,-7472.683168316832,5146.554455445545,-1247.1584158415842,10
2024-06-15 12:51:39,0.03176499158,0.02076941915,-0.008552113548,-8.860940933,0.1460463107,3.696647406,-1063.6917293233082,-1075.248120300752,-1854.1127819548872,-7430.992481203008,4166.721804511279,-674.3684210526316,10
2024-06-15 12:51:39,0.03176499158,0.02076941915,-0.008552113548,-8.860940933,0.1460463107,3.696647406,-1873.6153846153843,-1593.8461538461538,-2030.7435897435896,-7189.128205128205,3746.846153846154,137.84615384615384,10
2024-06-15 12:51:39,0.1783726513,0.01954768784,-0.03420845419,-8.858546257,0.3854664862,3.773261786,-1964.8,-471.8,-1670.2,-7424.6,2996.0,497.2,10
2024-06-15 12:51:39,0.1783726513,0.01954768784,-0.03420845419,-8.858546257,0.3854664862,3.773261786,-1851.5238095238096,-262.1904761904762,-1642.142857142857,-7697.476190476191,2705.190476190476,482.7142857142857,10
2024-06-15 12:51:39,0.1319468915,0.01588249579,-0.006108652335,-8.939949036,0.3088520169,3.622427225,-1592.3904761904762,-427.7238095238096,-1616.142857142857,-7865.609523809524,2706.9238095238097,844.1142857142856,10
2024-06-15 12:51:39,0.08185594529,-0.007330383174,-0.009773843922,-8.825027466,0.349553436,3.588908434,-969.8333333333334,-736.6666666666667,-1779.3333333333333,-7948.166666666667,2309.333333333333,693.6666666666666,10
2024-06-15 12:51:39,0.08185594529,-0.007330383174,-0.009773843922,-8.825027466,0.349553436,3.588908434,-1080.6923076923076,-669.0,-1364.2307692307693,-8357.615384615385,1642.0,1378.7692307692307,10
2024-06-15 12:51:39,0.1710422635,0.0,-0.01588249579,-8.872911453,0.3303998411,3.670311213,-100.42056074766356,-767.6728971962617,-1174.1495327102805,-8014.943925233645,1219.8691588785048,1593.0280373831777,10
2024-06-15 12:51:40,0.1527163088,-0.06230825558,-0.01343903504,-8.913613319,0.2849099934,3.634398222,397.3404255319149,-477.8723404255319,-328.95744680851067,-7915.297872340426,1929.234042553192,1227.5531914893618,10
2024-06-15 12:51:40,0.1527163088,-0.06230825558,-0.01343903504,-8.913613319,0.2849099934,3.634398222,403.843137254902,-569.1372549019608,-840.0392156862745,-8061.882352941177,1681.0392156862745,1588.529411764706,10
2024-06-15 12:51:40,0.0415388383,-0.05864306539,0.01954768784,-8.825027466,0.6775590777,3.665522814,1423.2376237623762,127.97029702970298,335.8811881188119,-8250.69306930693,1443.1584158415842,2063.207920792079,10
2024-06-15 12:51:40,0.0415388383,-0.05864306539,0.01954768784,-8.825027466,0.6775590777,3.665522814,1072.0091743119267,-445.11009174311926,895.0917431192661,-8116.036697247707,1257.7706422018348,2071.853211009174,10
2024-06-15 12:51:40,0.05131268129,-0.01588249579,0.05253441259,-8.817844391,0.8690952063,3.806780815,3262.917525773196,-1079.0515463917525,16.77319587628866,-8199.154639175258,1186.6907216494844,1959.7319587628865,10
2024-06-15 12:51:40,-0.06352998316,0.03665191308,0.0354301855,-8.611943245,0.5602431893,3.79241538,5653.5,-1101.1666666666667,519.6666666666666,-8102.666666666667,2064.0,1483.6666666666667,10
2024-06-15 12:51:40,-0.06352998316,0.03665191308,0.0354301855,-8.611943245,0.5602431893,3.79241538,5529.720930232558,-1144.6162790697674,391.0232558139535,-8045.186046511628,1985.2790697674416,1215.313953488372,10
2024-06-15 12:51:40,-0.2247984111,0.03298672289,0.007330383174,-8.520963669,0.8331822157,3.785232782,5566.930232558139,-1370.7790697674418,371.2558139534884,-7787.046511627906,2398.0697674418607,1148.453488372093,10
2024-06-15 12:51:40,-0.05619960278,0.0171042271,-0.01343903504,-8.868123055,0.4333505034,3.768473387,4789.333333333333,-1952.3333333333333,291.66666666666663,-7949.0,2017.6666666666667,1196.0,10
2024-06-15 12:51:41,-0.1734857261,-0.01221730467,-0.03176499158,-8.731653214,0.3663128614,3.797203779,4797.090909090909,-1507.4545454545455,1280.5151515151515,-7760.363636363636,2476.7272727272725,953.7878787878788,10
2024-06-15 12:51:41,-0.1734857261,-0.01221730467,-0.03176499158,-8.731653214,0.3663128614,3.797203779,4646.245614035088,-1362.906432748538,418.55555555555554,-8006.590643274853,3143.80701754386,889.0584795321638,10
2024-06-15 12:51:41,-1.000597239,0.07696902007,-0.2089159191,-8.614337921,0.3878606856,3.854664803,4152.324324324324,-1025.3783783783783,-186.1891891891892,-7918.621621621622,3149.108108108108,770.3513513513514,10
2024-06-15 12:51:41,-1.31458199,0.2089159191,-0.2981022298,-8.853757858,-0.6320692301,3.888183594,2684.7,-440.58,-785.02,-8010.8,2842.0,542.72,10
2024-06-15 12:51:41,-1.31458199,0.2089159191,-0.2981022298,-8.853757858,-0.6320692301,3.888183594,1955.0,-456.8285714285714,-543.2571428571429,-7984.971428571429,2710.942857142857,596.7714285714286,10
2024-06-15 12:51:41,0.08552113175,0.08063421398,-0.08307767659,-9.040505409,-1.972822189,3.201047659,204.00980392156865,112.34313725490192,-633.7058823529412,-7906.039215686274,2758.205882352941,490.6960784313725,10
2024-06-15 12:51:41,-0.2626720667,0.1172861308,-0.07696902007,-8.798690796,-2.073378563,2.626439333,-1252.0485436893205,523.6116504854369,-1034.5339805825242,-8214.873786407767,2629.359223300971,829.8834951456311,10
2024-06-15 12:51:41,-0.2626720667,0.1172861308,-0.07696902007,-8.798690796,-2.073378563,2.626439333,-1072.0,206.6,-510.6,-8393.8,2219.6,840.4,10
2024-06-15 12:51:41,-0.05009094998,-0.05864306539,0.02443460934,-8.987833023,-1.953668594,3.088520288,-936.2019230769232,-160.51923076923077,-530.0192307692307,-7739.125,2614.769230769231,953.5576923076924,10
2024-06-15 12:51:41,-0.05009094998,-0.05864306539,0.02443460934,-8.987833023,-1.953668594,3.088520288,-1328.6261682242991,536.7943925233645,-467.38317757009344,-7773.457943925234,2328.271028037383,1028.1682242990655,10
2024-06-15 12:51:42,-0.1600466967,0.07941248268,-0.1539380401,-8.573636055,-1.97042799,2.940079689,-1497.8,1149.0,-447.9,-8001.4,2076.0,942.15,10
2024-06-15 12:51:42,-0.471587956,0.3579670191,-1.098335743,-7.558494568,-2.949656487,3.277662039,-1072.2277227722773,875.5445544554456,-89.51485148514851,-8251.653465346535,2281.5544554455446,619.6237623762377,10
2024-06-15 12:51:42,-0.471587956,0.3579670191,-1.098335743,-7.558494568,-2.949656487,3.277662039,-574.1509433962265,456.5754716981132,-275.3207547169811,-8285.707547169812,2171.896226415094,546.2264150943396,10
2024-06-15 12:51:42,0.5106833577,0.7134906054,-2.294409752,-6.533776283,-4.879383087,0.9193734527,-318.52,360.32,-290.48,-8290.84,2020.56,540.96,10
2024-06-15 12:51:42,-1.728748679,1.098335743,-2.508212805,-4.850652695,-7.781155586,0.0143652102,-142.15882352941176,-86.2,-133.00588235294117,-8274.54705882353,2014.2823529411764,537.2647058823529,10
2024-06-15 12:51:42,-1.728748679,1.098335743,-2.508212805,-4.850652695,-7.781155586,0.0143652102,-375.42105263157896,74.86842105263158,78.1842105263158,-8309.842105263158,2075.0,403.5263157894737,10
2024-06-15 12:51:42,-1.28159523,0.6414085031,-1.927890658,-1.505952835,-11.29105568,-2.604891539,-226.82692307692307,-352.8269230769231,-337.0769230769231,-8263.076923076924,1944.5,613.5961538461538,10
2024-06-15 12:51:42,-1.28159523,0.6414085031,-1.927890658,-1.505952835,-11.29105568,-2.604891539,-581.48,-338.2,-293.8,-8309.16,1980.56,487.32,10
2024-06-15 12:51:42,-0.196698606,0.8405506015,-0.7892379165,0.2944868207,-11.42752457,-3.215412855,-1186.0,-722.4528301886792,-541.0377358490566,-8528.603773584906,2013.490566037736,259.811320754717,10
2024-06-15 12:51:43,0.4679227769,-0.1038470939,-0.8271115422,1.754949808,-9.382876396,-2.504334927,-2260.5730337078653,-1079.2640449438202,-297.03370786516854,-8264.752808988764,2087.988764044944,604.5786516853932,10
2024-06-15 12:51:43,0.4679227769,-0.1038470939,-0.8271115422,1.754949808,-9.382876396,-2.504334927,-2479.942857142857,-450.4,-257.0,-7822.085714285714,1515.8285714285714,1327.7142857142858,10
2024-06-15 12:51:43,0.3762930036,0.1905899495,-0.5265658498,2.628833532,-9.588777542,-1.944091797,-1692.0434782608695,-493.2173913043478,-1379.391304347826,-8296.608695652174,2005.695652173913,1460.5652173913045,10
2024-06-15 12:51:43,-0.2260201424,0.1893682331,-0.4349360466,4.041412354,-9.672574997,-2.109291792,-2007.692307692308,-975.75,-1212.798076923077,-8183.009615384615,1912.5961538461536,1728.7307692307693,10
2024-06-15 12:51:43,-0.2260201424,0.1893682331,-0.4349360466,4.041412354,-9.672574997,-2.109291792,-2186.4411764705883,-1393.4607843137255,-715.0784313725491,-7867.068627450981,1843.6470588235293,2124.529411764706,10
2024-06-15 12:51:43,0.161268428,0.2981022298,-0.4251621962,4.007893562,-8.640673637,-1.841141105,-3471.3076923076924,-1436.1826923076924,-80.82692307692308,-8022.711538461538,1670.9903846153843,2596.625,10
2024-06-15 12:51:43,0.161268428,0.2981022298,-0.4251621962,4.007893562,-8.640673637,-1.841141105,-4053.823529411765,-630.5588235294117,-139.08823529411765,-7641.794117647059,1212.313725490196,2745.774509803922,10
2024-06-15 12:51:43,0.196698606,0.4972442985,0.08063421398,4.675876141,-9.30386734,-1.936909199,-3888.450980392157,782.1764705882352,-522.1960784313726,-7773.568627450981,254.7450980392157,2721.823529411765,10
2024-06-15 12:51:43,0.5510004759,0.02199114859,-0.2724458873,5.889736176,-7.618350029,-0.8930372596,-3089.970588235294,744.7058823529412,-258.11764705882354,-7526.441176470588,106.64705882352942,2531.794117647059,10
2024-06-15 12:51:43,0.5510004759,0.02199114859,-0.2724458873,5.889736176,-7.618350029,-0.8930372596,-2285.28,2053.86,191.12,-8226.22,275.98,2153.22,10
2024-06-15 12:51:43,0.4703662395,0.0293215327,-0.09896016866,5.604825974,-8.006210327,-0.8834604025,-2613.47572815534,2001.1456310679607,438.1844660194175,-8955.223300970874,220.3398058252427,1320.883495145631,10
2024-06-15 12:51:44,-0.1893682331,-0.03176499158,0.09162978828,5.676652431,-8.135497093,-0.2896983922,-2478.7272727272725,1406.4242424242425,862.6060606060606,-8069.181818181818,592.2424242424242,1361.6060606060605,10
2024-06-15 12:51:44,-0.1893682331,-0.03176499158,0.09162978828,5.676652431,-8.135497093,-0.2896983922,-2302.990099009901,817.3564356435644,186.31683168316832,-8502.752475247526,403.5742574257426,1043.6039603960396,10
2024-06-15 12:51:44,-0.05131268129,0.06230825558,0.05131268129,5.509057999,-8.70771122,-0.4141969085,-2125.831683168317,728.3069306930693,173.44554455445544,-8615.940594059406,341.0891089108911,775.6633663366337,10
2024-06-15 12:51:44,-0.05131268129,0.06230825558,0.05131268129,5.509057999,-8.70771122,-0.4141969085,-2085.368932038835,-64.25242718446603,94.11650485436894,-8447.796116504855,404.9029126213592,557.1262135922331,10
2024-06-15 12:51:44,0.09040805697,0.1429424733,-0.0109955743,5.631162167,-8.410830498,-0.2011129409,-1803.6470588235293,-125.97058823529412,517.8823529411765,-8353.529411764706,159.6764705882353,868.6176470588235,10
2024-06-15 12:51:44,0.5326744914,-0.05742133409,-0.04642575979,5.623979568,-9.145850182,-0.2849099934,-1023.5398230088496,633.1327433628319,266.04424778761063,-8688.486725663717,583.5575221238938,1001.070796460177,10
2024-06-15 12:51:44,-0.8026769161,-0.393397212,0.0293215327,5.72214222,-7.038952827,-1.201889277,265.6831683168317,166.4257425742574,958.7920792079208,-7870.148514851485,1261.6039603960396,1023.7029702970297,10
2024-06-15 12:51:44,-0.01588249579,-0.3799581826,0.05009094998,5.913678169,-9.605537415,-0.4932055473,-834.6078431372549,534.4705882352941,-227.2156862745098,-8174.725490196079,1503.4313725490197,1033.2156862745098,10
2024-06-15 12:51:44,-0.01588249579,-0.3799581826,0.05009094998,5.913678169,-9.605537415,-0.4932055473,-1688.8252427184466,1408.776699029126,-589.9902912621359,-7855.42718446602,1124.1844660194174,684.4271844660194,10
2024-06-15 12:51:45,0.3506366611,-1.011592865,0.7000515461,4.934449673,-10.16099167,-1.357512355,-1747.5673076923076,1598.75,388.96153846153845,-8771.64423076923,781.1346153846154,430.1442307692308,10
2024-06-15 12:51:45,-0.5448917747,-0.6377432942,1.358564258,2.418143749,-10.71165848,-1.630451322,-157.91666666666669,-1075.0833333333333,822.5,-8307.0,2261.1666666666665,761.9166666666666,10
2024-06-15 12:51:45,0.2419026345,-0.5131267905,1.472185254,0.2777273953,-10.81939793,-1.764526606,-508.4020618556701,-385.9896907216495,-491.5463917525773,-8096.855670103093,2061.6494845360826,1007.9175257731958,10
2024-06-15 12:51:45,0.2419026345,-0.5131267905,1.472185254,0.2777273953,-10.81939793,-1.764526606,-192.70873786407768,47.50485436893206,-378.3980582524272,-8357.660194174758,1602.7087378640776,1322.9320388349515,10
2024-06-15 12:51:45,1.369559884,-0.4227187634,1.491732955,-1.479616642,-9.234436035,-0.9481038451,-436.4851485148515,-548.3762376237623,303.15841584158414,-8284.386138613861,1577.0,1291.6237623762377,10
2024-06-15 12:51:45,0.3909537494,-0.2528982162,1.123992085,-3.402160645,-9.902418137,0.9313444495,-35.05825242718447,-571.504854368932,209.79611650485435,-8360.126213592233,1631.6601941747572,972.9223300970874,10
2024-06-15 12:51:45,0.3909537494,-0.2528982162,1.123992085,-3.402160645,-9.902418137,0.9313444495,-228.5533980582524,55.13592233009709,514.1553398058253,-8107.281553398058,1488.6796116504854,991.504854368932,10
2024-06-15 12:51:45,0.684169054,-0.5119050741,1.208291411,-5.245696068,-8.159439087,1.067813993,-36.490566037735846,-89.71698113207549,-46.641509433962256,-7903.018867924528,1867.9433962264152,802.8301886792453,10
2024-06-15 12:51:45,0.684169054,-0.5119050741,1.208291411,-5.245696068,-8.159439087,1.067813993,53.640776699029125,165.36893203883494,-350.6990291262136,-8029.281553398058,1598.883495145631,735.6893203883495,10
2024-06-15 12:51:46,0.5045747161,-0.4813618064,1.136209369,-6.066906929,-6.248866558,2.049436569,217.28571428571428,59.0,-194.57142857142856,-8209.714285714286,1683.571428571429,798.8571428571429,10
2024-06-15 12:51:46,0.6462954283,-0.4153883755,0.916297853,-6.95276165,-5.475539207,3.052607059,-20.628571428571423,-89.0,79.11428571428571,-8090.752380952381,1729.1142857142856,472.7142857142857,10
2024-06-15 12:51:46,0.6462954283,-0.4153883755,0.916297853,-6.95276165,-5.475539207,3.052607059,-519.6039603960396,181.1881188118812,47.76237623762376,-8301.178217821782,1887.158415841584,823.4752475247525,10
2024-06-15 12:51:46,0.1160643995,-0.05864306539,0.6487388611,-7.323863029,-3.574543238,3.960009575,-1097.0,307.1428571428571,-15.142857142857142,-8090.714285714285,1599.2857142857142,942.5714285714286,10
2024-06-15 12:51:46,0.1075122803,-0.1026253626,0.2626720667,-8.037335396,-3.253720045,4.180276394,-546.6039603960396,300.96039603960395,-23.35643564356436,-8091.6732673267325,1583.0099009900991,1054.8019801980197,10
2024-06-15 12:51:46,0.1075122803,-0.1026253626,0.2626720667,-8.037335396,-3.253720045,4.180276394,-195.02884615384616,295.3173076923077,-86.58653846153845,-8177.9807692307695,1816.4134615384608,725.3076923076923,10
2024-06-15 12:51:46,0.381179899,-0.04031710699,0.1576032341,-7.903259754,-2.817975283,4.185064793,348.9191919191919,-74.92929292929293,154.1818181818182,-8083.989898989899,1678.7777777777778,823.7575757575758,10
2024-06-15 12:51:46,0.381179899,-0.04031710699,0.1576032341,-7.903259754,-2.817975283,4.185064793,621.9611650485436,48.126213592233,-90.85436893203884,-8278.42718446602,1786.5339805825242,387.7864077669903,10
2024-06-15 12:51:46,0.07574728876,-0.0293215327,0.1197295859,-8.178592682,-2.755726099,4.649539471,632.3689320388349,74.71844660194175,-317.5533980582524,-8230.388349514564,2117.6019417475727,220.9514563106796,10
2024-06-15 12:51:47,0.1918116808,-0.08307767659,0.1551597714,-8.169015884,-3.066972494,4.49870491,-327.36893203883494,-47.262135922330096,-503.873786407767,-8066.873786407767,1715.5242718446602,217.6601941747573,10
2024-06-15 12:51:47,0.1918116808,-0.08307767659,0.1551597714,-8.169015884,-3.066972494,4.49870491,-191.05825242718447,-49.883495145631066,-242.61165048543688,-8075.611650485437,1900.766990291262,234.2621359223301,10
2024-06-15 12:51:47,0.1783726513,-0.08796459436,0.05986479297,-8.097189903,-2.375048161,4.910507679,-203.50485436893203,-49.67313915857605,-199.2006472491909,-8098.343042071197,1870.6569579288025,574.6407766990292,10
2024-06-15 12:51:47,0.3494149148,-0.05497787148,0.09040805697,-8.104372978,-1.975216389,4.924872875,-219.4077669902913,-40.54368932038835,-249.8543689320388,-8099.815533980583,1869.1844660194167,580.8252427184466,10
2024-06-15 12:51:47,0.3494149148,-0.05497787148,0.09040805697,-8.104372978,-1.975216389,4.924872875,-393.4285714285714,-31.57142857142857,-327.0,-8097.0,1861.571428571429,590.1428571428571,10
2024-06-15 12:51:47,0.616973877,0.009773843922,-0.03298672289,-8.145073891,-1.685518026,4.783615112,-515.2736842105263,-35.4,103.58947368421052,-8158.684210526316,1564.1052631578948,396.38947368421054,10
2024-06-15 12:51:47,0.616973877,0.009773843922,-0.03298672289,-8.145073891,-1.685518026,4.783615112,-572.4646464646464,-63.22222222222222,-37.16161616161616,-8283.0101010101,1700.6767676767677,423.0808080808081,10
2024-06-15 12:51:47,0.1343903542,0.03420845419,-0.0354301855,-8.173804283,-1.711854219,5.360617638,-411.9333333333333,19.866666666666667,-119.2,-8308.266666666666,1682.2,468.73333333333335,10
2024-06-15 12:51:47,0.1869247705,0.03420845419,-0.02199114859,-8.068459511,-1.122880578,4.967968464,-407.2330097087379,-41.24271844660194,74.53398058252426,-8103.78640776699,1752.757281553398,627.4563106796116,10
2024-06-15 12:51:47,0.109955743,0.05864306539,-0.0232128799,-8.267178535,-1.142034173,4.948814869,-226.97087378640776,71.30097087378641,-328.6699029126213,-8310.68932038835,1742.6504854368932,556.8058252427185,10
2024-06-15 12:51:48,0.2614503205,0.04276056588,0.02443460934,-8.149862289,-0.9433154464,4.972756863,-609.7843137254902,-155.0686274509804,-159.421568627451,-8077.833333333333,1677.049019607843,424.1764705882353,10
2024-06-15 12:51:48,0.2614503205,0.04276056588,0.02443460934,-8.149862289,-0.9433154464,4.972756863,-460.5098039215686,22.529411764705884,-159.54901960784315,-8175.686274509804,1667.1960784313726,496.921568627451,10
2024-06-15 12:51:48,0.1734857261,0.05742133409,0.05253441259,-8.233659744,-0.8714894056,4.881777287,-785.8823529411765,81.11764705882354,78.64705882352942,-8334.35294117647,1432.0,849.5882352941177,10
2024-06-15 12:51:48,0.1734857261,0.05742133409,0.05253441259,-8.233659744,-0.8714894056,4.881777287,-276.2830188679245,-501.7547169811321,329.5094339622641,-8398.547169811322,1651.867924528302,872.6415094339623,10
2024-06-15 12:51:48,0.08552113175,0.04276056588,0.06719517708,-8.271966934,-0.6105214357,4.824316502,-166.08823529411765,-683.8627450980392,-256.7843137254902,-7897.294117647059,1838.1470588235293,1022.2450980392156,10
2024-06-15 12:51:48,0.00244346098,0.03787364438,0.0109955743,-8.36294651,-0.5650315881,4.704606533,142.14851485148515,-267.3267326732673,-600.2277227722773,-8237.920792079209,1750.3069306930693,983.7029702970297,10
2024-06-15 12:51:48,0.00244346098,0.03787364438,0.0109955743,-8.36294651,-0.5650315881,4.704606533,-512.6237623762377,141.67326732673268,-63.05940594059406,-8112.495049504951,1628.3564356435645,1070.2574257425742,10
2024-06-15 12:51:48,-0.06230825558,0.03054326214,0.0,-8.307879448,-0.6440402865,4.510675907,-331.9906542056075,233.785046728972,-211.47663551401868,-8437.981308411216,1586.9719626168223,964.3177570093458,10
2024-06-15 12:51:48,-0.6633996367,0.0354301855,-0.1600466967,-8.226476669,-0.7158663273,4.594472885,-595.2549019607843,451.1372549019608,-140.66666666666666,-8289.450980392157,1843.9411764705883,437.0,10
2024-06-15 12:51:48,-0.6633996367,0.0354301855,-0.1600466967,-8.226476669,-0.7158663273,4.594472885,-807.4807692307693,200.7692307692308,-195.92307692307693,-8409.10576923077,1599.701923076923,820.0480769230769,10
2024-06-15 12:51:49,-0.7073819637,0.01221730467,-0.1649336219,-8.327033043,-1.256955862,4.604049683,-448.9811320754717,-67.87735849056604,-263.0094339622641,-8167.575471698113,1583.9245283018868,835.4245283018868,10
2024-06-15 12:51:49,-0.7073819637,0.01221730467,-0.1649336219,-8.327033043,-1.256955862,4.604049683,22.627450980392155,70.86274509803921,275.52941176470586,-8116.509803921569,1431.2745098039215,698.7058823529412,10
2024-06-15 12:51:49,-1.134987593,0.2089159191,-0.5131267905,-7.278373241,-2.999934673,4.13239193,-68.02380952380952,258.85714285714283,-25.38095238095238,-8287.809523809523,1837.428571428572,866.1666666666666,10
2024-06-15 12:51:49,-1.10933125,0.8246681094,-1.018923283,-6.512228489,-3.955221176,2.798821688,-48.5,296.0,-53.0,-8284.0,1866.0,829.5,10
2024-06-15 12:51:49,-1.10933125,0.8246681094,-1.018923283,-6.512228489,-3.955221176,2.798821688,-29.285714285714285,334.4761904761905,-81.57142857142857,-8280.0,1894.571428571429,792.2380952380952,10
2024-06-15 12:51:49,-1.15575707,0.9786061049,-1.739744186,-8.051700592,-7.055712223,-0.5698199868,575.47,58.79,339.32,-8107.27,2098.55,797.44,10
2024-06-15 12:51:49,0.145385921,0.4483750761,-1.555262923,-5.516240597,-8.511386871,0.2011129409,286.6699029126213,49.34951456310682,-733.9611650485438,-8104.699029126214,1606.7961165048544,480.0388349514563,10
2024-06-15 12:51:49,0.145385921,0.4483750761,-1.555262923,-5.516240597,-8.511386871,0.2011129409,532.3069306930693,-16.445544554455445,-502.2970297029703,-8182.792079207921,1646.3762376237623,723.0792079207921,10
2024-06-15 12:51:49,-0.6145304441,0.08185594529,-1.156978726,-3.15795207,-9.682151794,-1.78368032,322.5,-124.25,239.5,-8097.75,1752.25,569.25,10
2024-06-15 12:51:49,-0.6145304441,0.08185594529,-1.156978726,-3.15795207,-9.682151794,-1.78368032,97.7843137254902,-65.40196078431373,76.72549019607843,-8095.764705882353,1725.3039215686274,315.1862745098039,10
2024-06-15 12:51:50,-0.4227187634,-0.5424483418,-0.3225368559,-2.760514498,-9.995792389,-1.89860189,-168.25714285714287,-66.02857142857142,64.82857142857142,-8112.514285714285,1880.2,416.0,10
2024-06-15 12:51:50,-0.2247984111,-0.8637634516,-0.235793978,-2.406172752,-9.662998199,-2.885013103,-309.2040816326531,37.40816326530612,-71.44897959183673,-8094.602040816327,1696.765306122449,506.4693877551021,10
2024-06-15 12:51:50,-0.2247984111,-0.8637634516,-0.235793978,-2.406172752,-9.662998199,-2.885013103,-470.6476190476191,169.0857142857143,147.95238095238096,-7910.733333333334,1729.5428571428572,605.0952380952381,10
2024-06-15 12:51:50,-0.0354301855,-0.6963863969,-0.3469714522,-2.592920542,-9.35654068,-2.633621931,-284.6893203883496,238.35922330097088,115.64077669902912,-8157.514563106796,1872.990291262136,600.3980582524272,10
2024-06-15 12:51:50,0.9370672703,-0.1246165112,0.05253441259,-2.398990154,-9.655815125,-2.810792685,50.30769230769231,-191.46153846153845,97.3846153846154,-8218.307692307691,1717.6923076923076,564.6153846153846,10
2024-06-15 12:51:50,0.9370672703,-0.1246165112,0.05253441259,-2.398990154,-9.655815125,-2.810792685,-131.52941176470588,33.66666666666667,31.53921568627451,-8279.166666666666,1734.6176470588234,399.6470588235294,10
2024-06-15 12:51:50,-0.1087340117,-0.17715092,0.2492330223,-2.870647907,-8.978256226,-0.7469909191,-348.0,-96.6990291262136,-184.7184466019417,-8116.52427184466,1720.514563106796,458.3980582524272,10
2024-06-15 12:51:50,-0.1087340117,-0.17715092,0.2492330223,-2.870647907,-8.978256226,-0.7469909191,-447.6666666666667,-363.6666666666667,-55.0,-8100.0,1684.0,532.0,10
2024-06-15 12:51:50,0.01954768784,-0.7550294399,-0.03054326214,-2.707842112,-9.607931137,-1.395819545,168.5631067961165,-192.747572815534,59.52427184466019,-8237.466019417476,1450.2815533980583,726.5533980582525,10
2024-06-15 12:51:50,0.08307767659,-0.5241223574,0.1502728462,-2.221819162,-9.437943459,-0.6799532771,183.09615384615384,-1371.951923076923,-181.25,-8472.26923076923,1747.076923076923,452.6730769230769,10
2024-06-15 12:51:51,0.08307767659,-0.5241223574,0.1502728462,-2.221819162,-9.437943459,-0.6799532771,513.72,-267.04,803.44,-7701.64,1931.68,1026.08,10
2024-06-15 12:51:51,-0.216246292,-0.1930334121,0.1295034289,-2.659958124,-9.363722801,-0.9672574997,291.0,-53.85714285714285,341.1428571428572,-8135.428571428572,2597.714285714286,824.5714285714286,10
2024-06-15 12:51:51,-0.1893682331,-0.1026253626,0.109955743,-2.908955097,-9.545681953,-0.988805294,102.57142857142856,574.4285714285714,408.6571428571429,-7697.457142857143,2211.742857142857,1051.2857142857142,10
2024-06-15 12:51:51,-0.1893682331,-0.1026253626,0.109955743,-2.908955097,-9.545681953,-0.988805294,-278.0571428571429,418.8857142857143,578.5142857142857,-8059.742857142857,2679.514285714285,648.6,10
2024-06-15 12:51:51,0.003665191587,-0.4300491214,-0.05619960278,-3.055001259,-10.0460701,-0.5147533417,-146.62857142857143,548.4095238095238,395.6571428571429,-7584.504761904762,2563.3238095238094,435.26666666666665,10
2024-06-15 12:51:51,0.003665191587,-0.4300491214,-0.05619960278,-3.055001259,-10.0460701,-0.5147533417,274.8712871287129,360.1188118811881,79.9009900990099,-8134.346534653465,2567.3267326732675,470.2277227722772,10
2024-06-15 12:51:51,0.17715092,-0.0109955743,0.05253441259,-2.614468336,-9.543288231,-0.9504981041,120.72566371681415,-58.94690265486726,364.0530973451328,-7486.150442477876,2307.7256637168143,297.6106194690266,10
2024-06-15 12:51:51,0.07574728876,0.3323107064,-0.08307767659,-2.794033289,-9.588777542,-0.6943184733,-19.736842105263165,217.2315789473684,353.22105263157897,-8208.326315789474,2566.578947368421,559.8526315789474,10
2024-06-15 12:51:51,0.07574728876,0.3323107064,-0.08307767659,-2.794033289,-9.588777542,-0.6943184733,-229.82692307692307,40.00961538461536,-92.70192307692308,-7658.134615384615,2290.846153846154,404.9711538461538,10
2024-06-15 12:51:51,0.2333505303,0.3591887653,-0.1808161139,-2.67432332,-9.981427193,-0.1891419291,-487.4375,722.375,755.84375,-8005.5625,2777.96875,301.6875,10
2024-06-15 12:51:52,-0.2076941878,0.4703662395,0.03665191308,-3.478775024,-9.48343277,-1.199495077,-1139.8636363636365,427.4772727272728,331.0909090909091,-7902.568181818182,2702.181818181818,414.27272727272725,10
2024-06-15 12:51:52,-0.2076941878,0.4703662395,0.03665191308,-3.478775024,-9.48343277,-1.199495077,-99.06666666666666,-227.06666666666663,-914.7333333333332,-7941.266666666666,2578.0666666666666,806.8,10
2024-06-15 12:51:52,-0.01466076635,0.7562511563,0.4605923891,-2.322375536,-10.7284174,0.6296750307,92.54807692307692,324.2211538461538,-313.7980769230769,-7600.1057692307695,2875.019230769231,126.5,10
2024-06-15 12:51:52,-0.01466076635,0.7562511563,0.4605923891,-2.322375536,-10.7284174,0.6296750307,-384.0288461538461,89.9230769230769,-417.4326923076923,-7999.3942307692305,2493.451923076923,295.0192307692308,10
2024-06-15 12:51:52,0.1185078546,0.3445279896,0.326202035,-3.914519787,-9.775525093,-1.520318031,-337.66,-358.76,-605.44,-8004.38,2381.38,497.92,10
2024-06-15 12:51:52,0.976162672,0.2455678284,1.180191636,-4.967968464,-8.410830498,-1.213860273,3.485981308411212,-176.28971962616822,46.2803738317757,-7856.85046728972,2415.9439252336447,457.233644859813,10
2024-06-15 12:51:52,0.976162672,0.2455678284,1.180191636,-4.967968464,-8.410830498,-1.213860273,-292.80582524271847,-188.0485436893204,-183.747572815534,-8230.42718446602,2406.52427184466,368.31067961165047,10
2024-06-15 12:51:52,0.7012733221,-0.3005456924,1.292590857,-7.788338184,-7.012616634,0.356736064,-172.7264150943396,-188.5943396226415,-81.43396226415095,-8262.952830188678,2219.8867924528304,558.5094339622642,10
2024-06-15 12:51:52,-0.08552113175,-0.4569272101,0.9187413454,-6.598419666,-4.826710701,0.3782838583,212.0,-347.3125,-55.22916666666666,-7815.5,2201.270833333333,450.8125,10
2024-06-15 12:51:52,-0.08552113175,-0.4569272101,0.9187413454,-6.598419666,-4.826710701,0.3782838583,301.24271844660194,-51.912621359223294,51.07766990291262,-8224.68932038835,2277.466019417476,465.8543689320388,10
2024-06-15 12:51:53,-0.2223549485,0.9456194043,0.5534439087,-6.497863293,-4.158728123,0.8451532125,212.4851485148515,-159.53465346534654,-263.5247524752475,-8145.316831683168,2242.5049504950493,535.0,10
