Timestamp,Gyro_x_x,Gyro_y_x,Gyro_z_x,Acc_x_x,Acc_y_x,Acc_z_x,Gyro_x_y,Gyro_y_y,Gyro_z_y,Acc_x_y,Acc_y_y,Acc_z_y,combined_action_num
2024-06-15 11:45:14,-1.318247199,0.2223549485,-0.05619960278,-3.026270866,-4.247313976,6.222530365,320.77272727272725,-42.72727272727272,448.0909090909091,-7777.181818181818,2381.0,-1234.8636363636365,0
2024-06-15 11:45:14,0.004886921961,-0.03298672289,0.326202035,-4.371812344,-6.713341713,7.486668587,-153.3548387096774,433.0387096774193,393.916129032258,-7628.36129032258,2317.303225806452,-1557.5806451612902,0
2024-06-15 11:45:14,0.6023131609,-0.09896016866,0.3726277947,-3.031059265,-4.608838081,7.505822182,-284.6666666666667,367.0,-183.0,-7853.333333333333,2152.0,-1573.6666666666667,0
2024-06-15 11:45:14,-0.08552113175,0.02809980139,0.03665191308,-2.877830505,-5.087678432,8.200140953,-520.370786516854,-104.38202247191012,-165.0561797752809,-7938.112359550561,1948.797752808989,-1639.3820224719102,0
2024-06-15 11:45:14,-0.0415388383,-0.06719517708,-0.06963863969,-3.653551817,-4.527435303,8.28633213,-235.5,-62.13636363636363,-206.45454545454544,-7922.590909090909,2127.181818181818,-1571.4545454545455,0
2024-06-15 11:45:14,-0.0415388383,-0.06719517708,-0.06963863969,-3.653551817,-4.527435303,8.28633213,22.204545454545467,-37.05681818181818,116.7840909090909,-7964.909090909091,1956.9204545454545,-1577.1363636363635,0
2024-06-15 11:45:14,0.0293215327,-0.02443460934,0.02687807009,-3.349488258,-4.826710701,8.058882713,144.66666666666666,44.13333333333333,-331.46666666666664,-7950.666666666667,2013.5333333333333,-1456.6,0
2024-06-15 11:45:14,0.0293215327,-0.02443460934,0.02687807009,-3.349488258,-4.826710701,8.058882713,57.17045454545455,23.78409090909091,-315.25,-8002.329545454545,2009.3068181818185,-1625.1363636363635,0
2024-06-15 11:45:15,-0.9700540304,0.4630358517,-0.07819075137,-1.70946002,-2.458845139,7.489062786,-463.5882352941177,-269.08235294117645,-329.91764705882355,-7982.305882352941,2122.835294117647,-1195.8823529411766,0
2024-06-15 11:45:15,-0.02809980139,0.5986479521,-1.145983219,-5.082890034,-6.4715271,7.161057472,-268.8988764044944,-69.56179775280899,-278.123595505618,-7718.269662921348,1812.213483146068,-1218.438202247191,0
2024-06-15 11:45:15,-0.02809980139,0.5986479521,-1.145983219,-5.082890034,-6.4715271,7.161057472,1.62222222222222,215.46666666666667,-307.1777777777778,-7622.977777777778,2050.6,-1483.5333333333333,0
2024-06-15 11:45:15,0.432492584,-0.2089159191,0.1429424733,-4.01747036,-5.825092793,8.152256966,547.75,245.23913043478265,-62.08695652173913,-7998.054347826087,1990.619565217392,-1681.0434782608695,0
2024-06-15 11:45:15,0.432492584,-0.2089159191,0.1429424733,-3.057395458,-5.726930618,7.999027729,-418.125,-174.875,-495.75,-7956.25,1773.625,-1651.625,0
2024-06-15 11:45:15,-0.4862487316,-0.283441484,0.634078145,-3.057395458,-5.726930618,7.999027729,-548.8222222222222,-19.666666666666668,-301.1111111111111,-7748.844444444445,1838.6666666666667,-1462.0444444444445,0
2024-06-15 11:45:15,0.5057964325,-0.01588249579,-0.09407325089,-3.155557871,-4.79079771,9.299078941,28.602272727272727,-20.909090909090907,102.85227272727272,-8027.727272727273,1720.340909090909,-1375.7386363636365,0
2024-06-15 11:45:15,0.5057964325,-0.01588249579,-0.09407325089,-3.155557871,-4.79079771,9.299078941,223.2,-79.33333333333334,-41.86666666666667,-7645.133333333333,2068.4666666666667,-1492.4,0
2024-06-15 11:45:15,-1.209513187,0.2260201424,0.1710422635,-2.693476915,-7.972691536,6.375759125,-61.09489051094891,277.95620437956205,-49.98540145985402,-8006.379562043796,1961.839416058394,-1844.0,0
2024-06-15 11:45:15,0.2541199327,-0.3274237812,-0.3909537494,-4.041412354,-4.209006786,9.083600998,-147.57142857142856,-164.14285714285714,-144.0,-8025.857142857143,2007.428571428572,-1741.0,0
2024-06-15 11:45:16,0.2541199327,-0.3274237812,-0.3909537494,-4.041412354,-4.209006786,9.083600998,-435.4418604651163,-275.3953488372093,-354.48837209302326,-7947.116279069767,1838.93023255814,-1302.1627906976744,0
2024-06-15 11:45:16,-0.2052507252,0.09285151958,0.05619960278,-4.096478939,-6.502651691,6.370970726,-248.9111111111111,-130.24444444444444,4.600000000000023,-8043.7555555555555,1903.5111111111112,-1200.1333333333334,0
2024-06-15 11:45:16,0.7037167549,-0.2919935882,0.1246165112,-2.683900118,-5.35104084,8.741230011,64.58426966292134,286.8089887640449,-67.58426966292134,-7685.91011235955,2052.089887640449,-1690.6741573033707,0
2024-06-15 11:45:16,-0.2247984111,0.125838235,0.1172861308,-3.691859007,-5.837063789,7.084442616,-413.6590909090909,349.25,106.5,-8004.477272727273,2017.5568181818185,-1716.8295454545455,0
2024-06-15 11:45:16,-0.2247984111,0.125838235,0.1172861308,-3.691859007,-5.837063789,7.084442616,-239.978021978022,-80.32967032967034,-185.69230769230768,-7672.725274725275,2009.736263736264,-1497.7692307692307,0
2024-06-15 11:45:16,0.5839871764,-0.228463605,0.2235766798,-3.464409828,-5.398924828,7.632715225,-587.3023255813954,-311.2674418604651,-224.4883720930233,-7997.790697674419,2091.4767441860463,-1647.8488372093022,0
2024-06-15 11:45:16,-0.2345722616,0.1710422635,0.2419026345,-2.363077164,-4.031835556,8.468291283,-620.7303370786517,-289.0674157303371,-165.73033707865167,-8020.337078651685,1765.1573033707866,-1393.7303370786517,0
2024-06-15 11:45:16,-0.2345722616,0.1710422635,0.2419026345,-2.363077164,-4.031835556,8.468291283,-17.333333333333314,-49.02222222222223,-68.0888888888889,-7860.311111111111,1677.2666666666669,-1212.4444444444443,0
2024-06-15 11:45:16,-0.3200933933,0.2186897546,-0.287106663,-2.762908697,-5.109226227,8.212111473,92.79545454545456,235.6136363636364,103.1818181818182,-7661.477272727273,1779.7045454545455,-1510.659090909091,0
2024-06-15 11:45:17,-0.3200933933,0.2186897546,-0.287106663,-2.762908697,-5.109226227,8.212111473,349.51685393258424,200.8876404494382,88.97752808988764,-7970.483146067416,2067.191011235955,-1898.561797752809,0
2024-06-15 11:45:17,0.05131268129,0.0232128799,-0.2883284092,-4.065354347,-6.387730122,7.053318024,279.1363636363636,-49.22727272727273,24.159090909090907,-7982.022727272727,1781.7045454545455,-1713.8863636363635,0
2024-06-15 11:45:17,0.05131268129,0.0232128799,-0.2883284092,-4.065354347,-6.387730122,7.053318024,175.0,-373.98591549295776,-344.1830985915493,-7958.239436619719,1875.042253521127,-1528.098591549296,0
2024-06-15 11:45:17,0.06719517708,0.06597344577,0.1563815027,-2.580949545,-6.651092529,9.124302864,275.0,-328.9154929577465,-330.09859154929575,-7974.43661971831,1710.2535211267605,-1493.5915492957747,0
2024-06-15 11:45:17,-0.6450737119,0.1172861308,0.0720821023,-3.632004023,-5.770026207,5.973533154,-197.7926829268293,147.46341463414635,354.5365853658537,-7618.048780487805,1887.4512195121952,-1840.0853658536585,0
2024-06-15 11:45:17,-0.6450737119,0.1172861308,0.0720821023,-3.632004023,-5.770026207,5.973533154,795.9883720930233,-84.44186046511628,-28.65116279069768,-7996.453488372093,2130.0697674418607,-1775.8023255813953,0
2024-06-15 11:45:17,0.1478293836,-0.3090978265,-0.06475171447,-3.026270866,-6.473921299,7.386112213,11.527472527472582,70.43956043956044,36.46153846153847,-7658.142857142857,2031.8791208791208,-1860.989010989011,0
2024-06-15 11:45:17,0.1478293836,-0.3090978265,-0.06475171447,-3.026270866,-6.473921299,7.386112213,-534.8863636363636,-80.20454545454547,-58.15909090909091,-7879.954545454545,1697.0227272727273,-1706.8636363636365,0
2024-06-15 11:45:17,-0.1563815027,-0.1466076523,0.07574728876,-3.148375273,-5.753266811,7.618350029,-93.67415730337078,-191.3707865168539,40.28089887640449,-7985.179775280899,1906.202247191012,-1834.820224719101,0
2024-06-15 11:45:18,-0.01221730467,0.006108652335,0.02443460934,-2.999934673,-5.437232018,7.601590633,-362.07954545454544,-255.9090909090909,-72.04545454545455,-7959.090909090909,1789.9886363636365,-1475.909090909091,0
2024-06-15 11:45:18,-0.01221730467,0.006108652335,0.02443460934,-2.999934673,-5.437232018,7.601590633,-330.57142857142856,17.857142857142858,-109.14285714285714,-7964.428571428572,1779.7142857142858,-1472.142857142857,0
2024-06-15 11:45:18,-0.08429940045,0.07330382615,-0.01466076635,-3.076549292,-5.600037575,7.714118004,-63.25,7.0,-203.5,-7946.5,1720.5,-1504.0,0
2024-06-15 11:45:18,0.004886921961,0.009773843922,-0.03420845419,-3.126827478,-5.425261021,7.594407558,-303.85227272727275,159.125,116.36363636363636,-7996.25,1738.4431818181818,-1699.7727272727273,0
2024-06-15 11:45:18,0.004886921961,0.009773843922,-0.03420845419,-3.126827478,-5.425261021,7.594407558,-377.54545454545456,44.18181818181818,-261.27272727272725,-7951.272727272727,2111.454545454545,-1799.0,0
2024-06-15 11:45:18,0.03787364438,-0.02199114859,-0.04398229718,-2.997540474,-5.394136429,7.608773232,-166.42528735632183,-198.896551724138,-292.367816091954,-7982.793103448276,1929.344827586207,-1639.4597701149426,0
2024-06-15 11:45:18,0.03787364438,-0.02199114859,-0.04398229718,-2.997540474,-5.394136429,7.608773232,-372.6842105263158,-300.42105263157896,44.631578947368425,-7908.1973684210525,1745.5131578947369,-1581.1973684210527,0
2024-06-15 11:45:18,-0.07086037099,0.05742133409,-0.09040805697,-2.904166698,-5.621585369,7.498639584,-347.45454545454544,-226.0909090909091,-359.72727272727275,-7858.272727272727,1723.090909090909,-1362.909090909091,0
2024-06-15 11:45:18,0.01466076635,0.05986479297,-0.09896016866,-2.97599268,-5.628767967,7.685387611,-465.031746031746,-121.38095238095238,-351.5079365079365,-7658.412698412699,1810.492063492064,-1377.6666666666667,0
2024-06-15 11:45:18,0.01466076635,0.05986479297,-0.09896016866,-2.97599268,-5.628767967,7.685387611,262.66666666666663,544.0,68.66666666666666,-7888.666666666667,1731.3333333333333,-1523.6666666666667,0
2024-06-15 11:45:19,-0.03665191308,0.1050688252,-0.1185078546,-3.12203908,-5.908889771,7.431602001,356.91954022988506,218.01149425287355,276.4482758620689,-7797.494252873563,2060.9885057471265,-1518.2758620689656,0
2024-06-15 11:45:19,-1.038470864,-0.1857030392,0.8466592431,-3.859453201,-6.414066315,7.280767441,-247.26666666666665,55.7,-73.86666666666667,-7728.466666666666,2132.4,-1741.6666666666667,0
2024-06-15 11:45:19,-1.038470864,-0.1857030392,0.8466592431,-3.859453201,-6.414066315,7.280767441,-210.41379310344828,156.6551724137931,-12.379310344827584,-7946.6551724137935,1749.896551724138,-1831.103448275862,0
2024-06-15 11:45:19,0.4862487316,-0.299323976,0.5546656251,-2.432508945,-3.94085598,9.109937668,361.73333333333335,-49.92222222222222,354.6555555555556,-8007.411111111111,1775.4666666666667,-1836.6888888888889,0
2024-06-15 11:45:19,0.4862487316,-0.299323976,0.5546656251,-2.432508945,-3.94085598,9.109937668,1006.9886363636364,52.01136363636364,329.64772727272725,-7735.954545454545,1734.4772727272727,-1605.625,0
2024-06-15 11:45:19,-0.6609562039,0.2223549485,0.3628539443,-3.960009575,-4.632780075,6.87614727,1540.1136363636365,527.7727272727273,289.5,-7644.727272727273,2046.1818181818185,-1808.272727272728,0
2024-06-15 11:45:19,-0.9395107627,0.1026253626,0.2431243658,-2.365471363,-4.809951305,8.149862289,801.4,291.4,21.0,-7898.4,1945.2,-2151.2,0
2024-06-15 11:45:19,-0.9395107627,0.1026253626,0.2431243658,-2.365471363,-4.809951305,8.149862289,197.3333333333333,89.91111111111111,30.31111111111111,-7688.577777777778,1786.2888888888888,-2127.9333333333334,0
2024-06-15 11:45:19,-0.1197295859,0.1209513173,-0.1685988009,-3.409343243,-5.099649429,7.151480675,-186.7362637362637,77.76923076923077,75.52747252747253,-7595.67032967033,1763.065934065934,-2079.5494505494507,0
2024-06-15 11:45:19,-0.1197295859,0.1209513173,-0.1685988009,-3.409343243,-5.099649429,7.151480675,-458.625,54.75,-241.5,-7667.25,1764.625,-2109.125,0
2024-06-15 11:45:20,0.3078760803,-0.109955743,-0.5754350424,-3.031059265,-4.407725334,7.99663353,-831.3636363636364,-324.6818181818182,-95.27272727272728,-7677.681818181818,2082.090909090909,-1743.3181818181818,0
2024-06-15 11:45:20,-0.2272418737,-0.02687807009,-0.2455678284,-4.556165695,-6.830657482,7.647080421,-469.1573033707865,-472.6516853932585,-70.56179775280899,-7555.685393258427,2109.505617977528,-1837.752808988764,0
2024-06-15 11:45:20,-0.2272418737,-0.02687807009,-0.2455678284,-4.556165695,-6.830657482,7.647080421,-553.5454545454545,213.45454545454544,-290.90909090909093,-7772.727272727273,2112.7272727272725,-1908.1818181818185,0
2024-06-15 11:45:20,0.125838235,-0.08063421398,0.1307251602,-2.925714493,-5.085284233,7.975085735,-373.7142857142857,-58.14285714285714,-278.5,-7991.857142857143,2093.928571428572,-1852.2142857142856,0
2024-06-15 11:45:20,0.1221730486,-0.08185594529,0.1576032341,-3.105279684,-5.877765179,8.051700592,-405.42105263157896,-299.2894736842105,-252.2368421052632,-7652.631578947368,1982.4473684210527,-1720.0526315789473,0
2024-06-15 11:45:20,0.1221730486,-0.08185594529,0.1576032341,-3.105279684,-5.877765179,8.051700592,-788.8,263.4823529411765,-345.0470588235294,-7883.517647058823,1680.870588235294,-1809.317647058824,0
2024-06-15 11:45:20,0.3567453027,0.1502728462,0.2260201424,-3.586514235,-4.726154327,7.457938194,-391.2159090909091,67.93181818181819,-126.36363636363636,-7974.670454545455,1720.0,-1506.9204545454545,0
2024-06-15 11:45:20,0.3567453027,0.1502728462,0.2260201424,-3.586514235,-4.726154327,7.457938194,23.60674157303371,121.42696629213484,-62.08988764044944,-7938.033707865168,2130.6853932584268,-1868.5168539325844,0
2024-06-15 11:45:20,0.2687807083,-0.07452555746,0.03420845419,-1.678335428,-4.783615112,7.323863029,-362.7303370786517,-81.41573033707866,49.50561797752809,-7925.08988764045,1968.23595505618,-1832.685393258427,0
2024-06-15 11:45:20,0.2223549485,0.5436700583,-0.8527678847,-4.125209332,-4.024652958,7.869740963,-517.4597701149426,284.2068965517241,-374.632183908046,-7711.517241379311,2119.5057471264367,-1803.4022988505749,0
2024-06-15 11:45:21,0.2223549485,0.5436700583,-0.8527678847,-4.125209332,-4.024652958,7.869740963,-813.2272727272727,-27.18181818181818,-160.8409090909091,-7989.272727272727,2115.1363636363635,-1795.0454545454545,0
2024-06-15 11:45:21,0.06597344577,-0.2174680233,-0.04031710699,-4.082113743,-6.426037312,8.111555099,-769.0222222222222,-9.844444444444449,47.22222222222222,-7812.677777777778,2106.0777777777776,-1467.2666666666669,0
2024-06-15 11:45:21,-0.5448917747,-0.3543018401,0.6316346526,-3.12203908,-5.525817394,7.989450932,-495.2443181818182,59.00568181818181,-305.5056818181818,-7677.0,2068.1022727272725,-1435.215909090909,0
2024-06-15 11:45:21,-0.5448917747,-0.3543018401,0.6316346526,-3.12203908,-5.525817394,7.989450932,-311.3033707865169,174.08988764044943,-310.7865168539326,-7674.876404494382,2058.6067415730336,-1428.0,0
2024-06-15 11:45:21,-0.09529497474,-0.08918632567,-0.1844813079,-3.01190567,-4.060565948,9.339780807,56.465116279069775,161.91860465116278,-223.2674418604651,-7665.674418604651,2120.151162790697,-1690.4186046511627,0
2024-06-15 11:45:21,-0.09529497474,-0.08918632567,-0.1844813079,-3.01190567,-4.060565948,9.339780807,-57.943820224719104,-92.92134831460676,-271.6966292134832,-7965.337078651685,1755.0112359550562,-1872.8539325842696,0
2024-06-15 11:45:21,-0.5485569835,0.1466076523,0.02199114859,-2.657563925,-4.264073372,7.201758862,92.77777777777776,-75.23333333333333,-64.06666666666666,-7555.822222222222,2095.8777777777777,-1789.0777777777778,0
2024-06-15 11:45:21,-0.2675589919,0.1246165112,-0.0415388383,-3.409343243,-5.64552784,7.400477409,-109.93023255813954,-71.4186046511628,-56.16279069767442,-7669.930232558139,2070.5813953488373,-2094.8837209302324,0
2024-06-15 11:45:21,-0.2675589919,0.1246165112,-0.0415388383,-3.409343243,-5.64552784,7.400477409,-73.87640449438203,-262.39325842696627,63.78651685393258,-7677.269662921349,2071.7640449438204,-2082.674157303371,0
2024-06-15 11:45:21,-0.03909537569,-0.08796459436,0.1087340117,-2.97359848,-5.64552784,7.836222172,536.231884057971,-246.28985507246367,-29.21014492753624,-7617.340579710145,2069.7971014492755,-1878.3333333333333,0
2024-06-15 11:45:22,-0.03909537569,-0.08796459436,0.1087340117,-3.186682463,-5.384559631,7.429207802,772.463768115942,-366.5797101449275,-58.92028985507246,-7586.18115942029,2075.5942028985505,-1911.6666666666667,0
2024-06-15 11:45:22,0.216246292,-0.04642575979,-0.0354301855,-3.186682463,-5.384559631,7.429207802,606.4880952380952,57.97619047619048,93.5,-7824.5952380952385,1775.0,-1804.642857142857,0
2024-06-15 11:45:22,0.2577851415,-0.07452555746,-0.06230825558,-3.27287364,-5.968744755,8.494627953,686.9545454545455,-30.25,29.556818181818187,-7625.136363636364,1974.659090909091,-1743.5795454545455,0
2024-06-15 11:45:22,0.2577851415,-0.07452555746,-0.06230825558,-3.27287364,-5.968744755,8.494627953,417.0,96.1818181818182,-315.0,-7645.090909090909,2119.6363636363635,-1709.5454545454545,0
2024-06-15 11:45:22,-0.4080579877,0.1673770845,0.09773843735,-2.681505919,-5.602431774,7.972691536,100.26666666666668,51.44444444444446,-301.55555555555554,-7929.955555555555,2079.555555555556,-1774.977777777778,0
2024-06-15 11:45:22,0.1869247705,0.2944370508,-0.2614503205,-3.634398222,-5.094861031,6.91445446,-181.0,-259.5,51.5,-7670.5,1702.5,-1725.0,0
2024-06-15 11:45:22,0.1869247705,0.2944370508,-0.2614503205,-3.634398222,-5.094861031,6.91445446,40.58426966292135,22.820224719101123,-285.4157303370786,-7904.022471910112,1755.3595505617975,-1683.2359550561798,0
2024-06-15 11:45:22,-0.04520402849,-0.1185078546,-0.04886921868,-3.361459255,-4.999093056,7.295132637,-490.8571428571429,-39.285714285714285,5.12087912087912,-7997.879120879121,1747.032967032967,-1863.989010989011,0
2024-06-15 11:45:22,-0.04520402849,-0.1185078546,-0.04886921868,-3.361459255,-4.999093056,7.295132637,-740.8,67.6,22.6,-7660.7,1825.6,-1842.7,0
2024-06-15 11:45:22,-0.03420845419,-0.06352998316,0.02809980139,-3.260902643,-5.473145008,7.790732384,-272.8,124.6,42.400000000000006,-7673.0,1871.2,-1722.2,0
2024-06-15 11:45:23,-0.01832595654,-0.04031710699,0.02199114859,-3.311181068,-5.734113216,7.304709435,-658.2857142857142,-305.7142857142857,287.23809523809524,-7811.619047619048,1962.8809523809523,-1933.7857142857144,0
2024-06-15 11:45:23,-0.01832595654,-0.04031710699,0.02199114859,-3.311181068,-5.734113216,7.304709435,-547.909090909091,-152.47727272727272,-180.38636363636363,-7958.886363636364,2068.431818181818,-1469.3863636363635,0
2024-06-15 11:45:23,0.01954768784,0.01221730467,0.01221730467,-3.100491285,-5.267243862,7.496245384,-193.67045454545453,-344.6136363636364,-372.3409090909091,-7660.420454545455,1743.0681818181818,-1618.034090909091,0
2024-06-15 11:45:23,0.009773843922,0.006108652335,0.00244346098,-3.373430252,-5.609614372,7.326257229,-750.2727272727273,78.4659090909091,-144.4659090909091,-8024.897727272727,1717.3636363636365,-1306.0795454545455,0
2024-06-15 11:45:23,0.009773843922,0.006108652335,0.00244346098,-3.373430252,-5.609614372,7.326257229,379.9583333333333,277.6875,-80.66666666666667,-7667.270833333333,2108.9375,-1578.0,0
2024-06-15 11:45:23,-0.00244346098,-0.006108652335,0.01588249579,-3.359065056,-5.492298603,7.477091789,478.56944444444446,300.6041666666667,-102.88888888888889,-7676.298611111111,2006.8541666666667,-1478.0,0
2024-06-15 11:45:23,-0.00244346098,-0.006108652335,0.01588249579,-3.359065056,-5.492298603,7.477091789,-284.1294117647059,318.7647058823529,-307.8588235294118,-7716.835294117647,2126.058823529412,-1831.0470588235287,0
2024-06-15 11:45:23,-0.03054326214,-0.01954768784,0.0293215327,-3.363853455,-5.626373768,7.450755596,-157.41379310344828,78.47126436781609,-149.9655172413793,-7964.3218390804595,2119.862068965517,-1672.4367816091954,0
2024-06-15 11:45:23,-0.02809980139,-0.004886921961,0.02565634064,-3.284844637,-5.631162167,7.405265808,68.05813953488372,46.47674418604651,102.27906976744184,-7797.360465116279,2101.2558139534885,-1851.2790697674416,0
2024-06-15 11:45:23,-0.02809980139,-0.004886921961,0.02565634064,-3.284844637,-5.631162167,7.405265808,-63.28888888888889,-203.88888888888889,-120.68888888888888,-7952.133333333333,2118.3777777777777,-1489.911111111111,0
2024-06-15 11:45:24,0.48014009,0.05375614017,-0.07696902007,-3.203441858,-5.118803024,7.790732384,121.54022988505749,-266.8275862068965,12.126436781609186,-7741.0344827586205,2153.4827586206898,-1447.896551724138,0
2024-06-15 11:45:24,1.103222609,0.9749409556,-0.668286562,-3.423708439,-5.499481201,7.053318024,260.8089887640449,163.0,-314.53932584269666,-7631.426966292135,2016.9662921348315,-1479.938202247191,0
2024-06-15 11:45:24,1.103222609,0.9749409556,-0.668286562,-3.423708439,-5.499481201,7.053318024,313.5652173913044,292.6521739130435,-362.60869565217394,-7622.913043478261,2138.521739130435,-1523.695652173913,0
2024-06-15 11:45:24,-0.3714060783,-0.3323107064,0.05742133409,-4.393360138,-6.033388138,5.995080948,329.7142857142857,54.26373626373626,-244.1318681318681,-8004.604395604396,1695.7362637362637,-1760.7142857142858,0
2024-06-15 11:45:24,-0.1295034289,-0.06230825558,0.01954768784,-2.913743496,-5.698200226,7.290344238,-265.0952380952381,-197.8571428571429,28.61904761904762,-7720.619047619048,1871.2857142857144,-1718.952380952381,0
2024-06-15 11:45:24,0.008552113548,-0.01466076635,0.009773843922,-3.442862034,-6.198588371,6.708553314,-172.7865168539326,47.67415730337079,-312.7415730337079,-7981.38202247191,1832.5955056179776,-1875.8314606741567,0
2024-06-15 11:45:24,0.008552113548,-0.01466076635,0.009773843922,-3.442862034,-6.198588371,6.708553314,-517.6022727272727,41.77272727272727,-249.4659090909091,-7963.875,1493.7727272727273,-1877.261363636364,0
2024-06-15 11:45:24,0.06230825558,-0.01221730467,0.02199114859,-3.497928619,-6.150704384,7.280767441,-317.6,-8.955555555555549,-66.91111111111111,-7982.0,1454.7111111111112,-1890.5333333333333,0
2024-06-15 11:45:24,0.8075638413,0.05986479297,0.1221730486,-3.730166197,-6.327875137,6.54574728,217.6470588235294,-300.8235294117647,357.74117647058824,-7979.7411764705885,1745.4352941176471,-1905.152941176471,0
2024-06-15 11:45:25,0.8075638413,0.05986479297,0.1221730486,-3.730166197,-6.327875137,6.54574728,103.2,-49.400000000000006,29.19999999999999,-7730.2,2008.2,-1684.0,0
2024-06-15 11:45:25,-0.5167919993,-0.7464773059,1.156978726,-4.067748547,-4.448426723,7.24724865,-293.3783783783784,30.83108108108108,-88.04054054054055,-7821.790540540541,1861.6148648648648,-1737.7905405405406,0
2024-06-15 11:45:25,-0.5167919993,-0.7464773059,1.156978726,-4.067748547,-4.448426723,7.24724865,-147.90217391304347,119.46739130434784,54.42391304347826,-7978.445652173913,1669.358695652174,-1844.5,0
2024-06-15 11:45:25,0.0171042271,0.0,0.01832595654,-1.742978811,-4.067748547,8.339004517,35.02325581395349,-17.023255813953487,-20.13953488372093,-8006.372093023256,1892.6976744186047,-1523.6976744186047,0
2024-06-15 11:45:25,-0.232128799,0.6621779203,-0.9798278809,-4.450820923,-6.828263283,7.268796444,-78.28571428571429,-209.82417582417585,198.7142857142857,-7896.538461538462,1735.8461538461538,-1509.3076923076924,0
2024-06-15 11:45:25,-0.232128799,0.6621779203,-0.9798278809,-4.450820923,-6.828263283,7.268796444,-68.83720930232558,12.906976744186052,306.8953488372093,-7874.011627906977,2039.1976744186047,-1606.0,0
2024-06-15 11:45:25,0.1514945775,-0.3408628106,0.1808161139,-4.264073372,-6.390124321,8.042123795,-357.2068965517241,-103.06896551724137,36.103448275862064,-7989.896551724138,2017.793103448276,-1836.1379310344828,0
2024-06-15 11:45:25,0.1514945775,-0.3408628106,0.1808161139,-4.264073372,-6.390124321,8.042123795,-86.23595505617976,-220.86516853932585,-189.2247191011236,-7972.438202247191,2088.5393258426966,-1614.2471910112358,0
2024-06-15 11:45:25,0.3408628106,-0.109955743,0.1014036313,-3.184288263,-5.702988625,7.721300602,68.66666666666667,-296.3333333333333,-335.6666666666667,-7988.0,1727.3333333333333,-1609.6666666666667,0
2024-06-15 11:45:25,0.2846632004,0.07330382615,0.07452555746,-3.780444384,-5.439626217,8.750806808,97.0952380952381,-31.333333333333343,-178.9047619047619,-8023.380952380952,1668.571428571429,-1567.7619047619048,0
2024-06-15 11:45:26,0.2846632004,0.07330382615,0.07452555746,-3.780444384,-5.439626217,8.750806808,73.74418604651163,-46.13953488372093,-347.8139534883721,-7962.162790697675,1872.046511627907,-1646.4418604651162,0
2024-06-15 11:45:26,0.1075122803,-0.1808161139,0.4703662395,-3.155557871,-4.23294878,7.785943985,37.48314606741573,-39.29213483146067,92.6629213483146,-8061.157303370786,1895.629213483146,-1486.4044943820224,0
2024-06-15 11:45:26,-0.02565634064,0.07452555746,-0.1661553532,-2.827552319,-4.695029736,8.331821442,18.70786516853933,55.53932584269663,-313.53932584269666,-7989.640449438202,1734.9887640449438,-1623.3370786516855,0
2024-06-15 11:45:26,-0.02565634064,0.07452555746,-0.1661553532,-2.827552319,-4.695029736,8.331821442,-570.9545454545455,313.72727272727275,-422.27272727272725,-7742.136363636364,1845.3636363636365,-1455.8181818181818,0
2024-06-15 11:45:26,0.7562511563,1.288925648,-1.737300754,-3.931279182,-4.177882195,7.943961143,-87.36046511627907,188.65116279069767,58.581395348837205,-7859.232558139535,1455.046511627907,-1415.046511627907,0
2024-06-15 11:45:26,0.7562511563,1.288925648,-1.737300754,-3.931279182,-4.177882195,7.943961143,220.69230769230768,-88.53846153846155,-39.30769230769231,-8035.923076923077,1776.7692307692307,-1504.3076923076924,0
2024-06-15 11:45:26,0.1490511149,-0.1918116808,-0.1014036313,-4.438849926,-6.042964935,6.564900875,-24.84507042253521,33.83098591549296,-304.3380281690141,-7983.267605633803,1711.9859154929577,-1826.6760563380285,0
2024-06-15 11:45:26,-0.5412266254,0.04764748737,0.2370157093,-3.136404276,-6.232107162,6.370970726,-136.94871794871796,-30.717948717948715,-12.333333333333329,-8046.128205128205,1845.076923076923,-1481.4615384615386,0
2024-06-15 11:45:26,-0.5412266254,0.04764748737,0.2370157093,-3.136404276,-6.232107162,6.370970726,-555.1645569620254,72.59493670886076,-313.3670886075949,-8028.443037974684,1551.0253164556962,-1615.873417721519,0
2024-06-15 11:45:26,-0.381179899,-0.2809980214,0.5485569835,-3.82593441,-5.118803024,7.671022415,-394.4835164835165,247.1428571428572,-30.08791208791212,-8040.373626373626,1614.868131868132,-1613.857142857143,0
2024-06-15 11:45:27,0.1185078546,-0.4752531648,0.3872885704,-3.878606796,-5.31273365,7.410054207,209.04597701149424,78.48275862068965,0.2528735632183911,-8050.402298850575,1836.379310344828,-1431.9195402298851,0
2024-06-15 11:45:27,0.1185078546,-0.4752531648,0.3872885704,-3.878606796,-5.31273365,7.410054207,-84.8,-101.6,-11.066666666666666,-7995.6,1685.2666666666669,-1501.8666666666666,0
2024-06-15 11:45:27,0.3714060783,-0.04764748737,0.01343903504,-3.186682463,-3.854664803,6.880935669,-298.75,-10.673913043478262,80.38043478260869,-7996.923913043478,1710.3478260869565,-1723.304347826087,0
2024-06-15 11:45:27,0.3714060783,-0.04764748737,0.01343903504,-3.186682463,-3.854664803,6.880935669,39.188235294117646,-30.376470588235293,30.54117647058824,-8007.823529411765,1825.270588235294,-1506.6352941176472,0
2024-06-15 11:45:27,-0.1747074574,0.006108652335,-0.04031710699,-3.713406801,-4.484339714,8.482656479,-79.40229885057471,-11.827586206896552,8.06896551724138,-7984.9885057471265,1840.9540229885056,-1527.1264367816093,0
2024-06-15 11:45:27,0.4068362415,-0.3872885704,0.1624901593,-3.435679436,-4.800374508,7.88171196,-9.067415730337077,-37.8876404494382,69.02247191011236,-8012.887640449439,1771.629213483146,-1829.3258426966293,0
2024-06-15 11:45:27,0.4068362415,-0.3872885704,0.1624901593,-3.435679436,-4.800374508,7.88171196,-136.29545454545453,-60.79545454545455,96.8409090909091,-8027.340909090909,1687.7954545454545,-1846.340909090909,0
2024-06-15 11:45:27,-0.04276056588,0.06719517708,0.05742133409,-4.426878929,-5.075707436,7.831433773,-295.0340909090909,30.295454545454547,61.73863636363636,-8018.772727272727,1817.9886363636365,-1441.5568181818182,0
2024-06-15 11:45:27,0.4361577928,-0.2076941878,0.08429940045,-3.074155092,-5.118803024,8.702922821,25.865168539325843,78.70786516853933,98.71910112359552,-7975.988764044944,1872.011235955056,-1450.426966292135,0
2024-06-15 11:45:27,0.4361577928,-0.2076941878,0.08429940045,-3.074155092,-5.118803024,8.702922821,-305.34343434343435,360.4949494949495,67.38383838383838,-7968.717171717171,1874.6060606060605,-1530.5050505050506,0
2024-06-15 11:45:28,-0.9798278809,0.3445279896,-0.04398229718,-3.409343243,-4.089296341,6.514622688,-753.3170731707318,143.46341463414635,4.195121951219512,-7664.09756097561,1687.3658536585365,-1856.8048780487804,0
2024-06-15 11:45:28,-0.9798278809,0.3445279896,-0.04398229718,-3.409343243,-4.089296341,6.514622688,-335.2117647058824,205.9882352941177,-343.83529411764704,-7670.447058823529,1861.235294117647,-1873.835294117647,0
2024-06-15 11:45:28,0.0415388383,0.5155702829,0.06475171447,-3.56736064,-5.458779812,7.632715225,-305.81102362204723,353.3307086614173,-158.68503937007873,-7993.220472440945,1705.023622047244,-1860.2204724409448,0
2024-06-15 11:45:28,1.060462117,0.1527163088,-0.9150761366,-4.058171749,-4.893748283,6.02620554,-364.36,-107.38,-518.68,-7954.52,1875.16,-1762.86,0
2024-06-15 11:45:28,1.060462117,0.1527163088,-0.9150761366,-4.058171749,-4.893748283,6.02620554,112.71428571428572,28.428571428571427,-580.0,-7647.714285714285,1517.7142857142858,-1879.2857142857144,0
2024-06-15 11:45:28,-0.3371976018,-0.2223549485,0.2113593817,-3.493140221,-6.536170483,7.113173485,106.8,90.22222222222224,-477.3333333333333,-7608.444444444444,1520.4222222222222,-1747.1555555555556,0
2024-06-15 11:45:28,-0.3371976018,-0.2223549485,0.2113593817,-3.493140221,-6.536170483,7.113173485,306.8,82.6,-518.2,-7886.8,1342.8,-2112.2,0
2024-06-15 11:45:28,0.05009094998,-0.1392772794,0.05497787148,-3.53384161,-5.35343504,7.663839817,218.7765957446809,-282.6276595744681,-307.8404255319149,-7841.936170212766,1400.7340425531916,-2127.3297872340427,0
2024-06-15 11:45:28,0.007330383174,-0.09896016866,0.05375614017,-3.519476414,-5.477933407,7.362170219,-799.1505376344086,-418.2258064516129,-394.8494623655914,-7827.978494623656,1351.3440860215053,-1656.494623655914,0
2024-06-15 11:45:28,0.007330383174,-0.09896016866,0.05375614017,-3.519476414,-5.477933407,7.362170219,93.1951219512195,108.70731707317071,66.26829268292683,-7974.268292682927,1073.5365853658536,-1640.6097560975609,0
2024-06-15 11:45:29,0.04520402849,0.06597344577,-0.05131268129,-3.394978046,-5.394136429,7.599195957,832.8953488372093,339.45348837209303,162.65116279069767,-7838.395348837209,1098.3953488372092,-1821.6627906976744,0
2024-06-15 11:45:29,0.006108652335,0.0232128799,-0.03420845419,-3.548206806,-5.537788391,7.469909191,439.43820224719104,19.865168539325843,101.1685393258427,-7870.988764044944,1596.056179775281,-1755.561797752809,0
2024-06-15 11:45:29,0.006108652335,0.0232128799,-0.03420845419,-3.548206806,-5.537788391,7.469909191,-226.1818181818182,28.909090909090907,-137.0,-8050.181818181818,1225.090909090909,-1861.7272727272727,0
2024-06-15 11:45:29,-0.02565634064,0.07452555746,-0.07574728876,-3.414131641,-5.528211594,7.364564419,-157.55172413793105,-295.86206896551727,118.55172413793105,-8002.793103448276,1378.8275862068965,-1811.344827586207,0
2024-06-15 11:45:29,-0.02565634064,0.07452555746,-0.07574728876,-3.414131641,-5.528211594,7.364564419,-42.764044943820224,-348.0224719101124,344.65168539325845,-7894.213483146067,1223.7752808988764,-1464.6404494382025,0
2024-06-15 11:45:29,-0.02199114859,0.07330382615,-0.08918632567,-3.483563423,-5.449203014,7.501033783,283.7802197802198,-296.7472527472528,318.3296703296703,-7979.516483516483,1383.6263736263736,-1500.857142857143,0
2024-06-15 11:45:29,-0.01832595654,-0.03176499158,-0.01221730467,-3.337517262,-5.513846397,7.273584843,85.36144578313252,14.265060240963862,271.6867469879518,-7971.240963855422,1646.421686746988,-1522.0722891566263,0
2024-06-15 11:45:29,-0.01832595654,-0.03176499158,-0.01221730467,-3.337517262,-5.513846397,7.273584843,-3.415584415584416,-161.1818181818182,-16.90909090909091,-7849.311688311688,1472.2987012987012,-1500.064935064935,0
2024-06-15 11:45:29,-0.02443460934,-0.008552113548,-0.00122173049,-3.387795448,-5.607220173,7.331045628,-74.1948051948052,-220.27272727272728,37.63636363636363,-7964.896103896104,1487.2337662337663,-1503.3116883116884,0
2024-06-15 11:45:29,-0.0171042271,0.004886921961,-0.004886921961,-3.45722723,-5.628767967,7.364564419,-560.6705882352941,-321.56470588235294,64.96470588235294,-7841.423529411764,1577.070588235294,-1600.847058823529,0
2024-06-15 11:45:30,-0.0171042271,0.004886921961,-0.004886921961,-3.45722723,-5.628767967,7.364564419,114.66666666666669,-204.0,-99.33333333333331,-7839.0,1575.3333333333333,-1203.6666666666667,0
2024-06-15 11:45:30,-0.004886921961,0.03298672289,0.0,-3.452438831,-5.64313364,7.350199223,466.609756097561,70.8048780487805,307.390243902439,-8004.414634146341,1223.8536585365853,-1396.5365853658536,0
2024-06-15 11:45:30,-0.004886921961,0.03298672289,0.0,-3.452438831,-5.64313364,7.350199223,1364.9662921348315,465.5505617977528,454.9775280898877,-7983.741573033708,1427.3483146067415,-1425.5505617977528,0
2024-06-15 11:45:30,-0.01221730467,-0.00122173049,-0.006108652335,-3.490746021,-5.652710438,7.311892033,1369.2696629213483,289.6629213483146,428.0561797752809,-7908.730337078651,1671.5393258426966,-1745.3595505617975,0
2024-06-15 11:45:30,0.01832595654,0.00122173049,0.008552113548,-3.426102638,-5.662287235,7.278373241,828.6813186813187,10.373626373626363,8.461538461538453,-8026.604395604396,1717.0879120879122,-1755.6923076923076,0
2024-06-15 11:45:30,0.01832595654,0.00122173049,0.008552113548,-3.426102638,-5.662287235,7.278373241,360.9887640449438,38.86516853932584,56.24719101123596,-7997.426966292135,1840.1460674157304,-1897.067415730337,0
2024-06-15 11:45:30,0.2822197378,0.0171042271,0.03420845419,-3.473986626,-6.172252178,7.740454197,-299.3333333333333,59.66666666666666,-119.0,-8002.666666666667,1464.6666666666667,-1833.6666666666667,0
2024-06-15 11:45:30,-0.5522221923,-0.5167919993,0.5693264008,-3.473986626,-5.916072369,7.845798969,-16.866666666666667,60.66666666666666,-9.133333333333333,-8009.4,1482.2666666666669,-1866.2666666666669,0
2024-06-15 11:45:30,-0.5522221923,-0.5167919993,0.5693264008,-3.473986626,-5.916072369,7.845798969,-18.241379310344826,65.89655172413794,-340.58620689655174,-7990.862068965517,1475.8275862068965,-1871.103448275862,0
2024-06-15 11:45:30,-1.31458199,0.4630358517,0.4825835526,-5.106832027,-5.489904404,8.726864815,-309.53333333333336,-53.53333333333333,-329.3111111111112,-7821.8,1600.3111111111111,-1855.4666666666667,0
2024-06-15 11:45:31,-1.31458199,0.4630358517,0.4825835526,-5.106832027,-5.489904404,8.726864815,-208.45977011494253,16.47126436781609,-322.3448275862069,-7937.103448275862,1588.0459770114942,-1813.16091954023,0
2024-06-15 11:45:31,0.4996877611,-0.2052507252,0.2638937831,-2.286462545,-4.94642067,7.762001991,-514.943820224719,60.2247191011236,66.58426966292134,-8033.730337078651,1632.2921348314608,-1696.370786516854,0
2024-06-15 11:45:31,0.6084218025,-0.3090978265,-0.09896016866,-2.691082716,-4.898536682,7.20654726,-984.7415730337078,-280.9887640449438,-77.33707865168539,-7825.67415730337,1421.4606741573034,-1490.7078651685392,0
2024-06-15 11:45:31,0.6084218025,-0.3090978265,-0.09896016866,-2.691082716,-4.898536682,7.20654726,-1075.7241379310344,-78.3103448275862,47.3448275862069,-8044.448275862069,1594.1379310344828,-1558.7241379310344,0
2024-06-15 11:45:31,-0.7977899909,0.3103195429,-0.01221730467,-3.852270603,-5.300762653,7.460332394,-849.6060606060606,179.78787878787878,-334.8787878787879,-7973.272727272727,1497.4242424242425,-1504.7272727272727,0
2024-06-15 11:45:31,-0.07452555746,-0.06719517708,-0.145385921,-4.000710964,-4.90811348,7.455543995,-547.8604651162791,-357.4651162790698,-88.02325581395348,-7813.883720930233,1478.7209302325582,-1627.6046511627908,0
2024-06-15 11:45:31,-0.03298672289,-0.1673770845,-0.02687807009,-3.993528366,-7.264008045,8.801085472,-613.7528089887641,25.06741573033708,193.40449438202248,-8017.202247191011,1820.2921348314608,-1598.808988764045,0
2024-06-15 11:45:31,-0.03298672289,-0.1673770845,-0.02687807009,-3.993528366,-7.264008045,8.801085472,-205.8876404494382,-66.49438202247191,-46.68539325842697,-7950.101123595506,1804.0,-1599.0337078651685,0
2024-06-15 11:45:31,-0.1539380401,0.3640756905,0.07086037099,-2.796427488,-5.904101372,7.254431248,282.68817204301075,118.47311827956987,502.2903225806452,-7903.376344086021,1896.247311827957,-1585.4193548387098,0
2024-06-15 11:45:32,0.3054326177,0.2809980214,-0.6047565937,-4.010287762,-4.623203278,6.299144745,-140.29268292682926,190.14634146341464,386.609756097561,-7945.365853658536,2009.1707317073167,-1682.0731707317073,0
2024-06-15 11:45:32,0.3054326177,0.2809980214,-0.6047565937,-4.010287762,-4.623203278,6.299144745,-494.0449438202247,30.561797752809014,-174.42696629213484,-7890.202247191011,1852.6516853932585,-1462.247191011236,0
2024-06-15 11:45:32,0.0,-0.2040289938,-0.0293215327,-3.854664803,-6.172252178,7.034164429,-254.3956043956044,-156.96703296703296,-95.2967032967033,-7973.626373626374,1775.2747252747254,-1590.3736263736264,0
2024-06-15 11:45:32,0.0,-0.2040289938,-0.0293215327,-3.854664803,-6.172252178,7.034164429,250.5,-601.2261904761905,-114.8452380952381,-8026.880952380952,2107.285714285714,-1230.202380952381,0
2024-06-15 11:45:32,-0.3555235863,0.5436700583,-0.5693264008,-2.743755102,-5.204994678,7.850587368,1050.9883720930231,585.2906976744187,-492.77906976744185,-7950.302325581395,1812.2209302325584,-1382.6744186046512,0
2024-06-15 11:45:32,-0.3555235863,0.5436700583,-0.5693264008,-2.743755102,-5.204994678,7.850587368,1048.4719101123596,514.314606741573,-406.4943820224719,-7976.730337078651,1505.9887640449438,-1913.0449438202247,0
2024-06-15 11:45:32,-0.68539083,-0.08063421398,0.02565634064,-4.304774761,-5.880159378,6.845022678,491.8988764044944,511.2696629213483,-402.80898876404495,-8224.460674157302,1489.1573033707866,-2068.674157303371,0
2024-06-15 11:45:32,0.1111774743,-0.3042109013,0.06719517708,-2.918531895,-4.965574265,7.417236805,15.865168539325836,-334.6966292134832,83.34831460674158,-8013.314606741573,1644.4606741573034,-2086.494382022472,0
2024-06-15 11:45:32,0.1111774743,-0.3042109013,0.06719517708,-2.918531895,-4.965574265,7.417236805,-635.26,-184.2,-310.3,-8054.54,1606.82,-1856.46,0
2024-06-15 11:45:33,0.1649336219,-0.009773843922,0.1282816976,-2.056619167,-4.149151325,7.568071365,-895.8275862068965,-206.3793103448276,-340.13793103448273,-8041.758620689655,1575.8275862068965,-1823.7241379310344,0
2024-06-15 11:45:33,0.1649336219,-0.009773843922,0.1282816976,-2.056619167,-4.149151325,7.568071365,-867.6511627906976,-177.5,285.3837209302326,-8166.290697674419,1513.9302325581396,-1617.9418604651164,0
2024-06-15 11:45:33,0.2614503205,0.02199114859,0.08674286306,-3.878606796,-5.425261021,7.742848396,-327.5287356321839,-435.7126436781609,309.4482758620689,-8018.022988505747,1454.0344827586207,-1303.2183908045977,0
2024-06-15 11:45:33,-0.3127630055,-0.1148426682,0.2956587672,-3.971980572,-5.164293289,7.16824007,-320.0,-97.33333333333334,60.0,-7845.0,1480.0,-1211.0,0
2024-06-15 11:45:33,-0.3127630055,-0.1148426682,0.2956587672,-3.971980572,-5.164293289,7.16824007,-336.8089887640449,-42.59550561797753,43.7752808988764,-7884.101123595506,1450.741573033708,-1238.438202247191,0
2024-06-15 11:45:33,-0.2675589919,0.1514945775,0.01588249579,-3.665522814,-5.173870087,6.682217121,-70.33707865168539,23.629213483146067,65.31460674157303,-8045.820224719101,1811.9213483146068,-1331.7303370786517,0
2024-06-15 11:45:33,-0.2675589919,0.1514945775,0.01588249579,-3.526659012,-5.015852451,8.195352554,-64.61176470588235,76.52941176470588,346.11764705882354,-8052.976470588235,1855.176470588236,-1552.2117647058824,0
2024-06-15 11:45:33,0.6010913849,-0.3591887653,0.1661553532,-3.526659012,-5.015852451,8.195352554,-783.8089887640449,299.2247191011236,-85.87640449438203,-7969.112359550561,1788.505617977528,-1411.494382022472,0
2024-06-15 11:45:33,-0.7379252315,0.3457497358,0.1368338168,-3.699041605,-4.005499363,8.403648376,-280.6896551724138,304.35632183908046,-84.9655172413793,-7824.609195402299,1646.1264367816093,-1190.7701149425288,0
2024-06-15 11:45:33,-0.7379252315,0.3457497358,0.1368338168,-3.699041605,-4.005499363,8.403648376,-148.07777777777778,47.61111111111112,-102.37777777777778,-7839.466666666666,1866.2111111111112,-1232.8111111111111,0
2024-06-15 11:45:34,0.02687807009,0.1551597714,-0.3408628106,-3.660734415,-4.972756863,8.202534676,86.46666666666667,-196.06666666666663,-50.4,-7838.466666666666,1746.0666666666666,-1201.0,0
2024-06-15 11:45:34,0.1380555481,-0.07330382615,0.01221730467,-4.024652958,-6.461950302,7.714118004,774.1046511627907,-15.197674418604665,-79.59302325581396,-8025.127906976744,2014.7209302325584,-1238.2325581395348,0
2024-06-15 11:45:34,0.1380555481,-0.07330382615,0.01221730467,-4.024652958,-6.461950302,7.714118004,-308.438202247191,-100.80898876404494,12.842696629213483,-8013.842696629214,1753.887640449438,-1279.123595505618,0
2024-06-15 11:45:34,-0.7745771408,-0.1942551434,0.6743952036,-3.411737442,-5.817910194,7.036558628,-326.4418604651163,-42.674418604651166,-263.93023255813955,-8061.953488372093,1917.2674418604647,-1296.7209302325582,0
2024-06-15 11:45:34,-0.7745771408,-0.1942551434,0.6743952036,-3.411737442,-5.817910194,7.036558628,-207.6086956521739,-25.56521739130435,-320.8695652173913,-7842.934782608696,1890.9782608695648,-1490.5217391304348,0
2024-06-15 11:45:34,0.5461135507,-0.3860668242,-0.07574728876,-4.261679173,-3.689464808,8.595184326,109.4,67.2,-341.8,-7984.8,1820.4,-1559.0,0
2024-06-15 11:45:34,0.09896016866,0.5461135507,-0.3469714522,-3.579331636,-4.843470097,7.714118004,90.0896551724138,109.26896551724138,-320.4206896551724,-7853.075862068966,1863.1586206896552,-1576.2413793103449,0
2024-06-15 11:45:34,0.09896016866,0.5461135507,-0.3469714522,-3.579331636,-4.843470097,7.714118004,59.329268292682926,77.76829268292683,-71.14634146341464,-8051.121951219512,1800.2560975609756,-1258.7073170731708,0
2024-06-15 11:45:34,0.4752531648,0.08674286306,-0.6279694438,-3.742137194,-5.310339451,6.253654957,-37.88636363636364,114.38636363636364,-109.39772727272728,-8031.056818181818,1836.9318181818185,-1268.0113636363635,0
2024-06-15 11:45:34,0.2809980214,-0.1038470939,0.07452555746,-3.41892004,-5.942408562,7.292738438,-89.0,-28.235955056179776,103.61797752808988,-7854.078651685393,1707.112359550562,-1561.1797752808989,0
2024-06-15 11:45:35,0.2809980214,-0.1038470939,0.07452555746,-3.41892004,-5.942408562,7.292738438,-380.02272727272725,285.6818181818182,47.59090909090909,-8042.0,1858.1022727272727,-1579.9545454545455,0
2024-06-15 11:45:35,-0.1844813079,-0.06719517708,0.0109955743,-3.586514235,-5.640739441,7.249642849,69.03296703296704,-82.07692307692308,64.63736263736264,-8048.846153846154,1822.1648351648355,-1600.7142857142858,0
2024-06-15 11:45:35,0.3408628106,0.05375614017,0.04398229718,-3.782838583,-6.581660271,7.311892033,57.88505747126437,87.25287356321839,-55.64367816091954,-8043.264367816092,1685.9310344827586,-1638.2413793103449,0
2024-06-15 11:45:35,-0.1783726513,-0.4679227769,0.6805039048,-3.509899616,-5.173870087,7.812280178,-204.8709677419355,-55.193548387096776,-294.51612903225805,-8000.903225806452,1849.774193548387,-1607.516129032258,0
2024-06-15 11:45:35,-0.1783726513,-0.4679227769,0.6805039048,-3.509899616,-5.173870087,7.812280178,-128.8148148148148,139.03703703703704,77.25925925925927,-7829.259259259259,1828.1851851851848,-1649.1851851851852,0
2024-06-15 11:45:35,-0.1698205322,-0.0171042271,-0.05131268129,-2.578555346,-5.066130638,7.345410824,-23.056179775280896,0.4157303370786565,34.69662921348315,-7823.696629213483,1815.6067415730336,-1640.9887640449438,0
2024-06-15 11:45:35,-0.2272418737,-0.08552113175,-0.03420845419,-2.200271368,-4.484339714,7.041347027,6.593406593406598,104.34065934065934,-46.30769230769231,-7930.054945054945,1878.142857142857,-1651.6263736263736,0
2024-06-15 11:45:35,-0.2272418737,-0.08552113175,-0.03420845419,-2.200271368,-4.484339714,7.041347027,-305.33734939759034,-71.97590361445783,67.59036144578313,-7861.409638554217,1897.867469879518,-1413.7951807228917,0
2024-06-15 11:45:35,0.8405506015,-0.5290092826,-0.125838235,-4.800374508,-2.173935175,9.066842079,26.224719101123583,62.51685393258427,97.07865168539324,-7819.865168539326,1874.2696629213483,-1627.1797752808989,0
2024-06-15 11:45:36,0.1857030392,0.2333505303,-0.2528982162,-3.526659012,-4.841075897,7.570465565,-359.19565217391306,-51.15217391304348,-60.10869565217392,-7876.413043478261,1884.5434782608693,-1618.5869565217392,0
2024-06-15 11:45:36,0.007330383174,0.1368338168,-0.08063421398,-3.514688015,-5.789179802,7.079654217,116.27906976744184,5.767441860465116,45.04651162790698,-7994.755813953488,1664.1976744186047,-1634.813953488372,0
2024-06-15 11:45:36,0.007330383174,0.1368338168,-0.08063421398,-3.514688015,-5.789179802,7.079654217,98.09782608695652,-109.88043478260867,33.30434782608695,-8018.086956521739,1749.913043478261,-1620.9021739130435,0
2024-06-15 11:45:36,0.1392772794,0.02076941915,0.2553416789,-3.452438831,-5.815515995,6.50983429,-76.31034482758622,94.0,10.896551724137936,-8012.482758620689,1860.5172413793105,-1522.3103448275865,0
2024-06-15 11:45:36,-0.2333505303,-0.8845328689,0.5473352671,-2.86107111,-3.330334663,7.960720539,-231.53333333333333,320.8888888888889,223.2,-7994.666666666667,1791.0,-1466.3333333333333,0
2024-06-15 11:45:36,-0.2333505303,-0.8845328689,0.5473352671,-2.86107111,-3.330334663,7.960720539,-26.627906976744185,14.697674418604652,20.837209302325583,-8046.813953488372,1773.953488372093,-1452.9767441860463,0
2024-06-15 11:45:36,-0.9578366876,0.3017674387,0.05864306539,-2.557007313,-3.79241538,9.064447403,-32.10055865921788,-168.76536312849163,-265.8435754189944,-7975.307262569832,1751.391061452514,-1492.1061452513966,0
2024-06-15 11:45:36,-0.9578366876,0.3017674387,0.05864306539,-2.557007313,-3.79241538,9.064447403,93.63636363636364,-20.454545454545467,-259.3636363636364,-7958.363636363636,1718.1818181818182,-1617.0,0
2024-06-15 11:45:36,0.4483750761,0.8845328689,-0.7476990819,-4.197035789,-6.457161903,6.727706909,-321.7142857142857,-82.85714285714286,-306.6428571428572,-8024.214285714285,1684.071428571429,-1641.357142857143,0
2024-06-15 11:45:37,0.2040289938,0.1148426682,0.3152064681,-4.242525578,-5.607220173,6.727706909,-316.86046511627904,88.66279069767442,-262.6744186046512,-8000.802325581395,1697.8023255813953,-1630.453488372093,0
2024-06-15 11:45:37,0.2040289938,0.1148426682,0.3152064681,-4.242525578,-5.607220173,6.727706909,52.5,52.16666666666666,92.86666666666666,-7985.366666666667,1844.1666666666667,-1609.8,0
2024-06-15 11:45:37,-0.4813618064,-0.8381071091,0.88086766,-3.351882458,-3.651157618,7.292738438,-68.34482758620689,-40.96551724137931,-45.793103448275865,-7998.551724137931,1874.206896551724,-1609.3793103448277,0
2024-06-15 11:45:37,-0.4813618064,-0.8381071091,0.88086766,-3.351882458,-3.651157618,7.292738438,-114.5681818181818,58.40909090909091,50.09090909090909,-8038.272727272727,1711.7272727272727,-1453.159090909091,0
2024-06-15 11:45:37,-0.216246292,0.4996877611,-0.2052507252,-2.810792685,-6.217741966,7.711723804,13.639534883720929,-286.7093023255814,-343.6279069767442,-8041.186046511628,1698.0697674418604,-1440.4418604651162,0
2024-06-15 11:45:37,0.228463605,0.2211332172,-0.5803219676,-4.036623955,-6.629544735,7.65426302,-302.3333333333333,-272.6666666666667,-314.3333333333333,-8027.0,1622.6666666666667,-1588.6666666666667,0
2024-06-15 11:45:37,0.228463605,0.2211332172,-0.5803219676,-4.036623955,-6.629544735,7.65426302,254.9333333333333,-304.4,-130.46666666666667,-8044.933333333333,1738.7333333333331,-1265.8666666666666,0
2024-06-15 11:45:37,1.032362223,0.2211332172,-0.4752531648,-3.021482468,-4.556165695,7.943961143,-26.187919463087248,55.22818791946309,-62.46979865771812,-8031.342281879195,1819.4228187919464,-1403.8590604026845,0
2024-06-15 11:45:37,0.2150245607,-0.08307767659,-0.1343903542,-3.931279182,-6.696582317,7.070077419,-159.0,69.375,-374.125,-8037.25,1874.75,-1615.375,0
2024-06-15 11:45:38,-0.6743952036,0.1111774743,0.1539380401,-2.604891539,-5.066130638,6.643909931,-73.66292134831461,93.82022471910112,49.89887640449438,-7881.134831460674,1863.5505617977528,-1262.505617977528,0
2024-06-15 11:45:38,-0.6743952036,0.1111774743,0.1539380401,-2.604891539,-5.066130638,6.643909931,-261.34482758620686,97.93103448275862,-296.62068965517244,-8025.3448275862065,1750.3103448275865,-1268.8620689655172,0
2024-06-15 11:45:38,0.3677408695,-0.8002334833,0.3200933933,-3.45722723,-4.924872875,7.560888767,-309.97727272727275,307.95454545454544,-258.02272727272725,-7989.102272727273,1805.397727272728,-1610.0568181818182,0
2024-06-15 11:45:38,-0.1563815027,0.6585127115,-0.02076941915,-3.033453465,-4.467580318,6.84023428,258.91954022988506,78.08045977011494,-61.26436781609196,-7839.885057471264,1739.1494252873565,-1518.0804597701149,0
2024-06-15 11:45:38,-0.1563815027,0.6585127115,-0.02076941915,-3.033453465,-4.467580318,6.84023428,296.875,-118.61363636363636,37.15909090909091,-7998.295454545455,1677.2272727272727,-1493.159090909091,0
2024-06-15 11:45:38,0.2272418737,0.4092797041,-0.5436700583,-3.399766445,-5.525817394,6.79953289,-276.75,40.29545454545453,-316.03409090909093,-7993.727272727273,1813.465909090909,-1458.6136363636365,0
2024-06-15 11:45:38,-0.4373795092,-0.1282816976,0.01588249579,-4.058171749,-6.442796707,7.776367188,88.49438202247188,39.06741573033708,2.179775280898866,-8054.921348314607,1488.6179775280898,-1630.4044943820224,0
2024-06-15 11:45:38,-0.4373795092,-0.1282816976,0.01588249579,-4.058171749,-6.442796707,7.776367188,77.27272727272727,91.25,101.0681818181818,-8018.965909090909,1437.875,-1603.6363636363635,0
2024-06-15 11:45:38,-0.8258898258,-0.5265658498,0.5155702829,-3.174711466,-6.20337677,6.663063526,-78.28571428571429,-64.57142857142857,98.57142857142856,-8021.857142857143,1510.428571428571,-1625.428571428571,0
2024-06-15 11:45:38,-0.8258898258,-0.5265658498,0.5155702829,-3.174711466,-6.20337677,6.663063526,-123.76136363636364,-66.35227272727273,69.93181818181819,-7868.534090909091,1596.9204545454545,-1599.2954545454545,0
2024-06-15 11:45:39,-0.07086037099,-0.4728097022,0.4752531648,-3.148375273,-4.838681698,8.142680168,-371.9438202247191,-323.76404494382024,87.91011235955057,-8053.168539325843,1905.719101123596,-1621.5955056179776,0
2024-06-15 11:45:39,-0.3286454976,0.2150245607,0.02199114859,-2.992752075,-5.650316238,7.898471355,-435.6629213483146,-127.77528089887642,-124.64044943820224,-7912.528089887641,1661.629213483146,-1241.2921348314608,0
2024-06-15 11:45:39,-0.3286454976,0.2150245607,0.02199114859,-2.992752075,-5.650316238,7.898471355,-356.6319018404908,44.14723926380368,-180.2638036809816,-7816.049079754601,1490.9754601226994,-1227.4049079754602,0
2024-06-15 11:45:39,0.2895501256,-0.03298672289,0.2528982162,-3.327940464,-5.011064053,8.015787125,-284.23926380368096,-66.8957055214724,64.52147239263803,-7812.368098159509,1492.8159509202453,-1247.0368098159508,0
2024-06-15 11:45:39,-0.05131268129,0.07819075137,-0.08552113175,-2.865859509,-4.67827034,7.405265808,92.9318181818182,178.625,98.92045454545456,-7865.261363636364,1583.4431818181818,-1592.9431818181818,0
2024-06-15 11:45:39,-0.05131268129,0.07819075137,-0.08552113175,-2.865859509,-4.67827034,7.405265808,-236.0919540229885,301.3448275862069,75.32183908045977,-8051.632183908046,1782.8735632183907,-1426.7816091954023,0
2024-06-15 11:45:39,-0.9663888216,0.3701843321,-0.09773843735,-2.26970315,-6.682217121,7.347805023,34.74444444444445,82.4888888888889,52.36666666666667,-7813.222222222223,1499.2555555555557,-1449.3444444444444,0
2024-06-15 11:45:39,-0.9663888216,0.3701843321,-0.09773843735,-2.26970315,-6.682217121,7.347805023,102.75,20.875,73.125,-7986.625,1557.875,-1476.875,0
2024-06-15 11:45:39,0.6475171447,0.5070181489,-0.7916813493,-4.276044369,-5.477933407,6.253654957,-59.41860465116279,95.5813953488372,-45.395348837209305,-8049.069767441861,1836.6046511627908,-1484.3953488372092,0
2024-06-15 11:45:39,0.88086766,-0.2638937831,-0.06719517708,-3.05021286,-5.530605793,8.564059258,-54.45454545454545,-232.4886363636364,-227.14772727272728,-7822.306818181818,1774.375,-1541.9545454545455,0
2024-06-15 11:45:40,0.88086766,-0.2638937831,-0.06719517708,-3.05021286,-5.530605793,8.564059258,-161.56521739130434,-154.2608695652174,-245.69565217391303,-7928.717391304348,1683.3152173913045,-1471.9347826086955,0
2024-06-15 11:45:40,0.3652974069,-0.4227187634,0.1624901593,-4.230554581,-6.155492783,8.336610794,-78.29411764705881,-112.01176470588234,-28.305882352941182,-7936.623529411765,1465.7058823529412,-1224.0588235294117,0
2024-06-15 11:45:40,0.441044718,-0.4263839424,0.2003637999,-2.394201756,-4.491522312,8.456320763,83.5909090909091,27.34090909090909,69.29545454545455,-7998.113636363636,1872.2272727272727,-1227.2272727272727,0
2024-06-15 11:45:40,0.441044718,-0.4263839424,0.2003637999,-2.394201756,-4.491522312,8.456320763,-302.1136363636364,-41.29545454545455,-198.47727272727272,-8053.943181818182,1591.465909090909,-1221.5227272727273,0
2024-06-15 11:45:40,0.428827405,0.3604104817,0.2419026345,-3.557783842,-5.434837818,6.964732647,-353.7303370786517,346.19101123595505,26.640449438202268,-7852.426966292135,1644.561797752809,-1211.9662921348315,0
2024-06-15 11:45:40,0.428827405,0.3604104817,0.2419026345,-3.557783842,-5.434837818,6.964732647,-109.90526315789474,-105.63157894736842,-112.45263157894738,-7868.115789473684,1881.968421052632,-1611.7894736842106,0
2024-06-15 11:45:40,0.1820378453,0.03787364438,0.02199114859,-2.604891539,-5.38934803,8.470685959,-335.1860465116279,-293.1860465116279,-323.4418604651163,-7894.511627906977,1484.5581395348838,-1275.3023255813953,0
2024-06-15 11:45:40,0.4874704778,0.2944370508,-0.3323107064,-3.519476414,-4.630385876,8.425195694,-31.506024096385545,-220.32530120481928,-307.8072289156627,-8007.204819277108,1594.1686746987953,-1244.144578313253,0
2024-06-15 11:45:40,0.4874704778,0.2944370508,-0.3323107064,-3.519476414,-4.630385876,8.425195694,207.2876712328767,-94.12328767123287,-72.5068493150685,-7860.13698630137,1610.7671232876712,-1246.342465753425,0
2024-06-15 11:45:40,0.5852088928,0.1111774743,-0.2675589919,-3.655946016,-6.028599739,7.821856976,233.31506849315068,-83.84931506849315,86.39726027397259,-8032.054794520548,1613.5068493150684,-1251.13698630137,0
2024-06-15 11:45:41,0.5852088928,0.1111774743,-0.2675589919,-3.655946016,-6.028599739,7.821856976,128.72727272727272,243.0909090909091,-134.72727272727272,-8058.545454545455,1471.090909090909,-1524.909090909091,0
2024-06-15 11:45:41,-0.6438519955,-0.1111774743,0.483805269,-4.331110954,-6.066906929,7.007828236,-283.66666666666663,-3.0,-10.0,-7970.0,1452.3333333333333,-1429.0,0
2024-06-15 11:45:41,-0.2895501256,-0.4373795092,0.8918632865,-3.897760391,-4.690241337,7.534552574,-371.52272727272725,-103.875,102.0681818181818,-7871.465909090909,1836.261363636364,-1524.3863636363635,0
2024-06-15 11:45:41,-0.2895501256,-0.4373795092,0.8918632865,-3.897760391,-4.690241337,7.534552574,-205.52272727272728,-214.3409090909091,-286.65909090909093,-7858.590909090909,1436.659090909091,-1554.3181818181818,0
2024-06-15 11:45:41,0.1685988009,-0.2345722616,-0.04520402849,-2.63841033,-4.565742493,7.28316164,-28.55555555555556,229.77777777777777,99.66666666666669,-7894.444444444444,1453.2222222222222,-1589.3333333333333,0
2024-06-15 11:45:41,0.1685988009,-0.2345722616,-0.04520402849,-2.63841033,-4.565742493,7.28316164,529.054945054945,-25.2967032967033,51.8021978021978,-7882.153846153846,1497.3296703296703,-1603.637362637363,0
2024-06-15 11:45:41,-0.0293215327,-0.4153883755,-0.8613200188,-3.983951569,-6.557718277,9.797073364,472.2380952380952,-170.71428571428572,-43.45238095238095,-8034.738095238095,1783.1190476190477,-1578.1190476190477,0
2024-06-15 11:45:41,-0.0293215327,-0.4153883755,-0.8613200188,-3.983951569,-6.557718277,9.797073364,-413.8876404494382,104.2808988764045,14.640449438202252,-8026.359550561798,1688.4044943820224,-1597.5280898876404,0
2024-06-15 11:45:41,1.064127207,0.5021312237,-0.3042109013,-3.184288263,-3.610456228,7.357381821,-460.3764705882353,294.91764705882355,-177.34117647058824,-8033.223529411764,1423.5529411764703,-1659.847058823529,0
2024-06-15 11:45:42,0.6365215778,0.5473352671,-0.6267477274,-3.268085241,-5.343858242,7.261613846,216.1685393258427,25.764044943820224,-86.10112359550561,-7901.606741573034,1648.2247191011236,-1615.112359550562,0
2024-06-15 11:45:42,0.6365215778,0.5473352671,-0.6267477274,-3.268085241,-5.343858242,7.261613846,291.0,-321.3888888888889,-77.2,-8036.333333333333,1874.3444444444444,-1472.8222222222223,0
2024-06-15 11:45:42,-0.09651670605,-0.06475171447,0.07452555746,-3.366247654,-4.98233366,7.350199223,-256.367816091954,-93.0344827586207,17.206896551724142,-8000.459770114942,1824.908045977012,-1603.574712643678,0
2024-06-15 11:45:42,-0.05864306539,-0.07086037099,0.06108652428,-3.009511471,-4.977545261,8.039729118,-291.013986013986,103.31468531468532,55.26573426573427,-7909.286713286713,1526.027972027972,-1581.6783216783217,0
2024-06-15 11:45:42,-0.05864306539,-0.07086037099,0.06108652428,-3.009511471,-4.977545261,8.039729118,-291.7132867132867,69.04895104895104,-31.447552447552454,-7873.622377622378,1727.4265734265734,-1565.5944055944055,0
2024-06-15 11:45:42,-0.1600466967,-0.02687807009,0.0232128799,-3.327940464,-5.377377033,7.414842606,-561.5595238095239,55.47619047619048,-157.25,-8014.476190476191,1768.8809523809523,-1590.857142857143,0
2024-06-15 11:45:42,-0.1600466967,-0.02687807009,0.0232128799,-3.327940464,-5.377377033,7.414842606,-105.06741573033707,119.51685393258428,-201.3370786516854,-7844.4157303370785,1620.584269662921,-1579.1797752808989,0
2024-06-15 11:45:42,-0.0171042271,0.007330383174,0.02076941915,-3.236960649,-5.23851347,7.580042362,294.67391304347825,56.02173913043478,-61.58695652173913,-7869.891304347826,1815.782608695652,-1655.8260869565215,0
2024-06-15 11:45:42,-0.03176499158,0.02076941915,0.03176499158,-3.239354849,-5.518634796,7.354987621,-180.27380952380952,-339.2619047619048,-41.48809523809524,-7852.273809523809,1657.8690476190477,-1633.5,0
2024-06-15 11:45:42,-0.03176499158,0.02076941915,0.03176499158,-3.239354849,-5.518634796,7.354987621,-576.629213483146,-68.20224719101122,-308.1460674157304,-7833.157303370786,1595.9887640449438,-1259.191011235955,0
2024-06-15 11:45:43,-0.01954768784,0.02199114859,0.004886921961,-3.332728863,-5.461174011,7.419631004,-84.6067415730337,-354.82022471910113,-40.640449438202246,-7882.213483146067,1651.1573033707866,-1348.067415730337,0
2024-06-15 11:45:43,-0.01954768784,0.02199114859,0.004886921961,-3.332728863,-5.461174011,7.419631004,287.48837209302326,-145.97674418604652,-30.37209302325581,-7845.953488372093,1786.3023255813953,-1158.7209302325582,0
2024-06-15 11:45:43,-0.00244346098,0.0109955743,0.003665191587,-3.378218651,-5.612008572,7.422025204,-39.18181818181818,100.45454545454544,49.90909090909091,-7848.818181818182,1867.4545454545453,-1317.4545454545455,0
2024-06-15 11:45:43,-0.006108652335,0.009773843922,-0.006108652335,-3.378218651,-5.57848978,7.402871609,-211.2528735632184,-98.8735632183908,2.885057471264368,-7891.298850574713,1417.6896551724135,-1403.3103448275865,0
2024-06-15 11:45:43,-0.006108652335,0.009773843922,-0.006108652335,-3.378218651,-5.57848978,7.402871609,-225.93258426966293,-73.08988764044943,29.831460674157302,-7900.730337078651,1438.752808988764,-1217.438202247191,0
2024-06-15 11:45:43,-0.01343903504,0.03665191308,-0.0232128799,-3.454833031,-5.54257679,7.362170219,-103.13043478260867,-344.60869565217394,113.95652173913044,-7878.565217391304,1468.4347826086955,-1319.695652173913,0
2024-06-15 11:45:43,0.2944370508,0.09773843735,0.1429424733,-3.145981073,-4.711789131,6.739677906,-121.54117647058824,30.04705882352941,102.70588235294116,-7887.705882352941,1798.4235294117648,-1301.164705882353,0
2024-06-15 11:45:43,0.2944370508,0.09773843735,0.1429424733,-3.145981073,-4.711789131,6.739677906,-156.11111111111111,-12.044444444444451,-1.3333333333333286,-7870.222222222223,1643.1777777777777,-1296.911111111111,0
2024-06-15 11:45:43,0.0232128799,-0.3200933933,0.1026253626,-4.067748547,-5.394136429,7.292738438,-169.9655172413793,-25.632183908045977,49.68965517241378,-7903.241379310345,1508.6091954022988,-1299.0344827586207,0
2024-06-15 11:45:43,0.0232128799,-0.3200933933,0.1026253626,-4.067748547,-5.394136429,7.292738438,-219.2611464968153,-64.21656050955414,11.866242038216557,-7875.522292993631,1482.8343949044586,-1315.3821656050957,0
2024-06-15 11:45:44,0.1282816976,-0.1563815027,0.106290549,-3.23456645,-4.994304657,7.541735172,-735.1578947368421,338.42105263157896,149.94736842105263,-7905.315789473684,2131.9473684210525,-1235.3684210526317,0
2024-06-15 11:45:44,0.1197295859,0.06475171447,0.04398229718,-2.7509377,-3.289633036,8.738836288,-600.8494623655914,-24.72043010752688,264.3763440860215,-7812.967741935484,1868.6236559139784,-939.967741935484,0
2024-06-15 11:45:44,0.1197295859,0.06475171447,0.04398229718,-2.7509377,-3.289633036,8.738836288,-28.30588235294117,-96.4235294117647,118.90588235294118,-8166.823529411765,2085.694117647058,-1303.7529411764706,0
2024-06-15 11:45:44,0.4911356568,0.5583308339,-0.4618141353,-3.983951569,-6.7612257,6.138733387,445.5111111111111,-237.95555555555555,-39.93333333333334,-7884.777777777777,1969.8,-991.6888888888888,0
2024-06-15 11:45:44,0.25167647,-0.1527163088,0.216246292,-3.97916317,-5.403713226,5.87297678,789.4942528735633,41.747126436781606,-345.0,-8002.114942528736,1826.2758620689656,-1305.4942528735633,0
2024-06-15 11:45:44,0.25167647,-0.1527163088,0.216246292,-3.97916317,-5.403713226,5.87297678,663.3636363636364,469.6022727272728,-335.40909090909093,-8001.761363636364,1754.1022727272727,-1606.0568181818182,0
2024-06-15 11:45:44,-0.07819075137,-0.6072000265,0.7867944241,-4.101267338,-4.709394932,7.35977602,288.4482758620689,44.62068965517244,-450.65517241379314,-8117.068965517241,1732.7931034482758,-1588.0344827586207,0
2024-06-15 11:45:44,-0.07819075137,-0.6072000265,0.7867944241,-4.101267338,-4.709394932,7.35977602,11.162790697674415,-278.06976744186045,-275.2674418604651,-8015.232558139535,1612.3255813953488,-1354.3953488372092,0
2024-06-15 11:45:44,-0.03054326214,0.007330383174,-0.03787364438,-3.229778051,-5.46596241,7.505822182,79.88297872340425,-120.88297872340424,-46.7659574468085,-7904.063829787234,1449.7659574468084,-1252.6914893617022,0
2024-06-15 11:45:44,-0.3139847219,0.1588249654,0.1319468915,-2.624045134,-4.862623692,6.272808552,-285.74117647058824,55.83529411764707,-290.34117647058827,-7857.705882352941,1439.1764705882354,-1197.4,0
2024-06-15 11:45:45,-0.3139847219,0.1588249654,0.1319468915,-2.624045134,-4.862623692,6.272808552,-172.9318181818182,86.5909090909091,20.84090909090909,-7824.056818181818,1429.9318181818182,-1191.6022727272727,0
2024-06-15 11:45:45,0.3139847219,-0.8613200188,-0.3726277947,-4.05338335,-5.13556242,9.059659004,-44.92134831460674,-16.29213483146067,233.80898876404493,-7876.449438202248,1870.3595505617973,-1377.9325842696628,0
2024-06-15 11:45:45,0.7599163651,0.7880161405,-0.4495968223,-3.433285236,-3.821146011,8.001421928,294.48387096774195,-194.48387096774195,-82.84946236559139,-8052.817204301075,1847.247311827957,-1339.741935483871,0
2024-06-15 11:45:45,0.7599163651,0.7880161405,-0.4495968223,-3.433285236,-3.821146011,8.001421928,735.1851851851852,271.1111111111111,-335.22222222222223,-7897.259259259259,1508.962962962963,-1571.888888888889,0
2024-06-15 11:45:45,-2.356718063,0.1295034289,0.3335324228,-3.610456228,-12.69405746,8.003816605,598.7484662576687,327.6503067484663,-186.33742331288343,-7875.644171779141,1516.0306748466255,-1425.8527607361964,0
2024-06-15 11:45:45,-2.356718063,0.1295034289,0.3335324228,-3.610456228,-12.69405746,8.003816605,538.6257668711656,319.67484662576686,-13.33128834355827,-8027.17791411043,1518.484662576687,-1454.073619631902,0
2024-06-15 11:45:45,-0.1270599663,0.02076941915,-0.01221730467,-3.557783842,-4.776432514,7.702147007,-323.60714285714283,14.75,36.85714285714285,-7845.428571428572,1417.321428571429,-1430.071428571429,0
2024-06-15 11:45:45,-0.009773843922,-0.03665191308,0.0232128799,-3.591302633,-6.042964935,7.086836815,-320.57471264367814,-33.448275862068954,-82.60919540229884,-8038.885057471264,1654.655172413793,-1659.0229885057472,0
2024-06-15 11:45:45,-0.009773843922,-0.03665191308,0.0232128799,-3.591302633,-6.042964935,7.086836815,-5.538461538461533,-243.7802197802198,277.0,-8033.923076923077,1820.032967032967,-1453.6703296703297,0
2024-06-15 11:45:45,0.06841690838,0.02443460934,0.02565634064,-3.694253206,-5.638344765,7.486668587,-490.3666666666667,15.5,-129.3,-8051.433333333333,1814.1333333333328,-1261.4333333333334,0
2024-06-15 11:45:46,0.06841690838,0.02443460934,0.02565634064,-3.694253206,-5.638344765,7.486668587,-506.73333333333335,344.7333333333333,-256.0,-7974.666666666667,1435.1333333333334,-1253.8,0
2024-06-15 11:45:46,-0.06719517708,0.00244346098,0.007330383174,-3.574543238,-5.482721806,7.364564419,20.097826086956523,329.5652173913044,60.97826086956522,-7829.369565217391,1520.3804347826087,-1435.6521739130435,0
2024-06-15 11:45:46,-0.02199114859,0.01588249579,0.003665191587,-3.596091032,-5.614402771,7.378929615,259.2988505747127,-48.2528735632184,-91.89655172413794,-7853.67816091954,1562.8620689655172,-1581.1609195402298,0
2024-06-15 11:45:46,-0.02199114859,0.01588249579,0.003665191587,-3.596091032,-5.614402771,7.378929615,-269.57471264367814,65.88505747126436,-212.0919540229885,-7894.218390804598,1802.4022988505749,-1473.2298850574712,0
2024-06-15 11:45:46,0.01343903504,-0.02809980139,0.01466076635,-3.49553442,-5.57848978,7.357381821,-586.629213483146,106.95505617977528,-264.2584269662921,-8026.539325842697,1608.7303370786517,-1529.202247191011,0
2024-06-15 11:45:46,0.07330382615,-0.04276056588,0.01832595654,-3.464409828,-5.535394192,7.419631004,-156.73333333333332,-11.144444444444446,-75.75555555555556,-7873.355555555556,1439.0111111111112,-1508.5333333333333,0
2024-06-15 11:45:46,0.07330382615,-0.04276056588,0.01832595654,-3.464409828,-5.535394192,7.419631004,-511.6046511627907,-163.6046511627907,100.74418604651164,-7909.476744186047,1776.3488372093022,-1415.5581395348838,0
2024-06-15 11:45:46,0.2150245607,-0.08429940045,0.02076941915,-3.399766445,-5.439626217,7.393294811,-599.6744186046511,-411.3488372093023,73.88372093023256,-8045.093023255814,1551.2558139534883,-1164.6976744186047,0
2024-06-15 11:45:46,0.2150245607,-0.08429940045,0.02076941915,-3.399766445,-5.439626217,7.393294811,-130.27272727272728,76.54545454545455,-540.9659090909091,-8060.340909090909,1451.909090909091,-1165.784090909091,0
2024-06-15 11:45:46,0.2089159191,-0.00244346098,-0.02199114859,-3.598485231,-4.90571928,7.702147007,-307.8,-303.8,-335.7,-7891.1,1623.1,-1353.0,0
2024-06-15 11:45:47,0.109955743,0.02199114859,0.1795943826,-3.507505417,-5.054159641,7.61356163,-257.88957055214723,-258.12883435582825,32.84662576687116,-7905.478527607362,1491.558282208589,-1374.601226993865,0
2024-06-15 11:45:47,0.109955743,0.02199114859,0.1795943826,-3.507505417,-5.054159641,7.61356163,-227.8282208588957,-76.53374233128835,96.65030674846626,-8102.411042944786,1471.3128834355828,-1360.4907975460123,0
2024-06-15 11:45:47,-0.1722639948,-0.03787364438,0.08674286306,-3.512293816,-5.09725523,7.800309181,-400.27906976744185,-207.16279069767444,-266.1395348837209,-7884.813953488372,1520.906976744186,-1300.6279069767445,0
2024-06-15 11:45:47,-0.08429940045,-0.02199114859,0.109955743,-3.643975019,-5.039794445,7.618350029,-254.4090909090909,-34.15909090909091,-304.8409090909091,-7905.386363636364,1611.4545454545455,-1189.340909090909,0
2024-06-15 11:45:47,-0.08429940045,-0.02199114859,0.109955743,-3.643975019,-5.039794445,7.618350029,-38.06593406593407,-83.17582417582418,-38.71428571428572,-8108.582417582417,1484.6813186813188,-1336.8021978021975,0
2024-06-15 11:45:47,-0.01221730467,0.0293215327,0.03665191308,-3.620033026,-4.932055473,7.601590633,75.0,108.97619047619048,104.16666666666669,-7896.273809523809,1456.7857142857142,-1316.809523809524,0
2024-06-15 11:45:47,-0.01221730467,0.0293215327,0.03665191308,-3.620033026,-4.932055473,7.601590633,-29.04444444444445,-14.355555555555554,-68.17777777777778,-7887.533333333334,1640.6666666666667,-1303.1333333333334,0
2024-06-15 11:45:47,-0.1368338168,0.1514945775,-0.1246165112,-3.785232782,-5.394136429,7.357381821,178.8068181818182,383.14772727272725,-0.1704545454545454,-7873.0,1638.6477272727273,-1346.3863636363635,0
2024-06-15 11:45:47,0.03054326214,0.0232128799,-0.1747074574,-3.82593441,-5.398924828,7.484274387,485.6521739130435,594.0869565217391,191.95652173913044,-7857.304347826087,1422.9130434782608,-1313.695652173913,0
2024-06-15 11:45:47,0.03054326214,0.0232128799,-0.1747074574,-3.82593441,-5.398924828,7.484274387,364.5813953488372,276.16279069767444,284.12790697674416,-7860.011627906977,1819.7906976744189,-1591.2441860465117,0
2024-06-15 11:45:48,-0.009773843922,-0.02565634064,-0.1490511149,-4.01747036,-5.997475147,7.390900612,-298.1555555555556,-13.244444444444444,48.333333333333336,-7910.422222222222,1736.9555555555555,-1472.888888888889,0
2024-06-15 11:45:48,-1.182635069,-0.01588249579,0.7867944241,-4.390965939,-6.43321991,6.330269337,-686.6704545454545,-59.46590909090909,92.75,-7874.318181818182,1662.1818181818182,-1514.5454545454545,0
2024-06-15 11:45:48,-1.182635069,-0.01588249579,0.7867944241,-4.390965939,-6.43321991,6.330269337,-262.3181818181818,-358.8181818181818,9.590909090909092,-7940.318181818182,1465.3636363636365,-1200.3636363636365,0
2024-06-15 11:45:48,-0.1246165112,-0.235793978,0.02809980139,-2.461239338,-5.319916248,9.349357605,87.64444444444445,-54.94444444444446,95.16666666666669,-7984.411111111111,1746.7,-1240.8,0
2024-06-15 11:45:48,-0.1246165112,-0.235793978,0.02809980139,-2.461239338,-5.319916248,9.349357605,108.9655172413793,-77.35632183908046,-48.60919540229885,-8023.264367816092,1837.9885057471265,-1585.0689655172414,0
2024-06-15 11:45:48,1.232726097,-0.2785545588,-0.2211332172,-2.918531895,-4.922478676,8.159439087,568.021978021978,-113.04395604395604,-100.57142857142856,-8036.252747252747,2027.3186813186808,-1458.5054945054944,0
2024-06-15 11:45:48,-0.6267477274,0.2186897546,-0.05009094998,-3.301604033,-4.819528103,6.715735912,-101.64968152866244,-30.063694267515924,-143.43312101910828,-8012.904458598726,2104.229299363057,-1511.4968152866245,0
2024-06-15 11:45:48,-0.6267477274,0.2186897546,-0.05009094998,-3.301604033,-4.819528103,6.715735912,-225.8314606741573,-8.831460674157306,-483.08988764044943,-7825.516853932584,1492.415730337079,-1249.8202247191011,0
2024-06-15 11:45:48,0.1514945775,-0.4190535545,-0.4691445231,-4.182670593,-5.410895824,8.722076416,-496.0947368421053,-10.905263157894735,-258.7789473684211,-8032.747368421053,1448.7052631578947,-1208.1473684210523,0
2024-06-15 11:45:48,0.1514945775,-0.4190535545,-0.4691445231,-4.120420933,-5.011064053,6.971915245,128.20238095238096,327.8928571428572,-95.91666666666669,-7950.75,1579.952380952381,-1583.9166666666667,0
2024-06-15 11:45:49,0.4911356568,0.5290092826,0.06475171447,-4.120420933,-5.011064053,6.971915245,346.625,160.4090909090909,-18.954545454545453,-7818.465909090909,1771.2954545454545,-1494.0795454545455,0
2024-06-15 11:45:49,-0.3481931984,-0.1441642046,0.3213151097,-0.6631938815,-6.268020153,7.575253963,-146.86206896551724,117.06896551724138,-249.0689655172414,-8010.724137931034,1891.0344827586207,-1822.0344827586207,0
2024-06-15 11:45:49,-0.3481931984,-0.1441642046,0.3213151097,-0.6631938815,-6.268020153,7.575253963,-703.6206896551724,107.13793103448276,-316.2758620689655,-7895.206896551724,1663.8620689655172,-1540.6896551724135,0
2024-06-15 11:45:49,0.4862487316,-0.4300491214,-0.2809980214,-5.408501625,-4.541800499,8.118738174,-29.043478260869563,92.11956521739133,-53.923913043478265,-7840.771739130435,1569.0978260869565,-1539.2826086956522,0
2024-06-15 11:45:49,0.5888741016,0.4080579877,-0.3066543639,-3.643975019,-4.57531929,6.890512466,311.4418604651163,93.24418604651164,-35.15116279069768,-7823.546511627907,1781.9302325581396,-1619.6744186046512,0
2024-06-15 11:45:49,-0.2809980214,-0.1832595766,0.9786061049,-3.205836058,-6.921637058,4.941632271,72.64367816091954,114.91954022988506,257.3333333333333,-8054.735632183908,1694.3563218390805,-1493.8850574712644,0
2024-06-15 11:45:49,-0.2809980214,-0.1832595766,0.9786061049,-3.205836058,-6.921637058,4.941632271,79.44444444444444,-66.93333333333334,-70.55555555555556,-8046.266666666666,1712.088888888889,-1504.1333333333334,0
2024-06-15 11:45:49,0.03176499158,-0.4984660447,0.01832595654,-3.414131641,-4.043806553,9.373299599,38.45054945054945,-228.54945054945057,84.95604395604396,-8022.659340659341,1804.10989010989,-1580.967032967033,0
2024-06-15 11:45:49,0.283441484,-0.0720821023,-0.09651670605,-2.803610086,-5.003881454,8.06127739,184.3068181818182,-81.125,-120.11363636363636,-7835.977272727273,1838.4772727272727,-1592.034090909091,0
2024-06-15 11:45:50,0.283441484,-0.0720821023,-0.09651670605,-2.803610086,-5.003881454,8.06127739,-192.2325581395349,14.476744186046512,-84.09302325581396,-8057.697674418605,1781.2558139534883,-1613.7790697674418,0
2024-06-15 11:45:50,-0.8368853927,0.5668829679,0.3628539443,-4.544194698,-6.033388138,7.465120792,-304.17977528089887,8.685393258426984,70.2808988764045,-8002.977528089887,1755.247191011236,-1498.4719101123596,0
2024-06-15 11:45:50,0.4263839424,0.0232128799,0.04031710699,-2.743755102,-4.635174274,7.115567684,-121.775,-103.58125,-266.31875,-8043.54375,1903.35625,-1502.74375,0
2024-06-15 11:45:50,0.4263839424,0.0232128799,0.04031710699,-2.743755102,-4.635174274,7.115567684,111.89473684210526,-185.1578947368421,-106.6315789473684,-8033.315789473684,1869.9473684210527,-1407.6842105263158,0
2024-06-15 11:45:50,-1.048244715,0.3750712574,0.1185078546,-3.758896589,-5.971138954,7.079654217,-599.0444444444445,-58.977777777777774,-55.53333333333333,-8012.333333333333,2063.6666666666665,-1589.2444444444443,0
2024-06-15 11:45:50,-1.048244715,0.3750712574,0.1185078546,-3.758896589,-5.971138954,7.079654217,-304.875,-101.0,-154.75,-7841.125,1499.625,-1184.5,0
2024-06-15 11:45:50,0.2260201424,-0.3714060783,0.2309070677,-3.727771997,-4.316745758,8.106766701,194.5555555555556,45.86666666666667,12.733333333333333,-8039.0,1840.9555555555555,-1226.3111111111111,0
2024-06-15 11:45:50,-0.2761110961,0.4214970171,0.3677408695,-2.255337954,-5.904101372,6.708553314,-75.33333333333334,62.66666666666667,-5.333333333333336,-7893.333333333333,1820.6666666666667,-1240.6666666666667,0
2024-06-15 11:45:50,-0.2761110961,0.4214970171,0.3677408695,-2.255337954,-5.904101372,6.708553314,-178.625,282.7613636363636,-63.93181818181819,-7865.215909090909,1767.2272727272727,-1604.4431818181818,0
2024-06-15 11:45:50,0.05375614017,-0.3335324228,-0.6084218025,-3.462015629,-4.022258759,7.682993412,-37.625,225.0909090909091,-215.70454545454544,-7854.556818181818,1836.8636363636365,-1575.7613636363635,0
2024-06-15 11:45:51,-1.373225093,0.4214970171,-0.1319468915,-4.204218388,-5.461174011,9.665391922,329.345945945946,211.9027027027027,87.61081081081082,-7846.691891891892,1715.654054054054,-1850.1459459459456,0
2024-06-15 11:45:51,-1.373225093,0.4214970171,-0.1319468915,-4.204218388,-5.461174011,9.665391922,316.372972972973,40.55135135135134,102.2054054054054,-7820.745945945946,1728.627027027027,-1857.172972972973,0
2024-06-15 11:45:51,0.4654793143,0.9053022861,-0.762359798,-2.992752075,-4.115632534,7.764396191,-583.9733333333334,89.56,-195.58666666666667,-7981.44,1872.493333333333,-1483.4666666666667,0
2024-06-15 11:45:51,0.4654793143,0.9053022861,-0.762359798,-2.992752075,-4.115632534,7.764396191,367.19565217391306,-335.5217391304348,-89.34782608695652,-8044.326086956522,1813.9130434782608,-1439.5869565217392,0
2024-06-15 11:45:51,-0.299323976,-0.03909537569,-0.01466076635,-2.284068346,-4.572925091,6.959944248,135.88636363636363,-267.75,-128.97727272727272,-8012.75,1900.909090909091,-1448.5,0
2024-06-15 11:45:51,-0.2296853364,0.2113593817,-0.06963863969,-3.112462282,-4.709394932,8.044517517,-198.4193548387097,187.2258064516129,-328.2903225806452,-7823.8387096774195,1747.225806451613,-1459.4193548387098,0
2024-06-15 11:45:51,-0.2296853364,0.2113593817,-0.06963863969,-3.112462282,-4.709394932,8.044517517,-297.7,-269.5,-372.4,-7835.7,1448.6,-1616.1,0
2024-06-15 11:45:51,-0.0109955743,-0.06230825558,0.06108652428,-3.591302633,-5.324704647,7.697358608,-189.2530120481928,-151.10843373493975,9.457831325301203,-7903.578313253012,1413.0963855421687,-1561.4578313253012,0
2024-06-15 11:45:51,-0.0109955743,-0.06230825558,0.06108652428,-3.591302633,-5.324704647,7.697358608,300.58490566037733,87.69811320754717,171.47798742138366,-8044.6163522012575,1524.0817610062893,-1617.4654088050315,0
2024-06-15 11:45:51,-0.1502728462,0.07941248268,0.00122173049,-3.452438831,-5.607220173,7.55131197,160.96226415094338,95.24528301886792,-7.138364779874223,-8045.874213836478,1530.37106918239,-1622.496855345912,0
2024-06-15 11:45:52,0.007330383174,-0.008552113548,0.01954768784,-3.629609823,-5.525817394,7.393294811,-242.96808510638297,58.02659574468085,-6.813829787234042,-8021.11170212766,1726.356382978723,-1508.4308510638298,0
2024-06-15 11:45:52,0.007330383174,-0.008552113548,0.01954768784,-3.629609823,-5.525817394,7.393294811,-195.09574468085103,47.92021276595744,22.441489361702125,-8038.664893617021,1710.9308510638298,-1604.707446808511,0
2024-06-15 11:45:52,-0.1038470939,0.01954768784,-0.008552113548,-3.617638826,-5.590460777,7.467514992,-39.34444444444444,44.22222222222222,81.04444444444445,-8029.2444444444445,1842.2888888888888,-1572.0111111111112,0
2024-06-15 11:45:52,0.009773843922,-0.0232128799,0.006108652335,-3.608062029,-5.566518784,7.445967197,58.82758620689656,80.75862068965517,-91.27586206896552,-8055.0344827586205,1867.2758620689656,-1595.551724137931,0
2024-06-15 11:45:52,0.009773843922,-0.0232128799,0.006108652335,-3.608062029,-5.566518784,7.445967197,52.764044943820224,98.31460674157304,75.6629213483146,-7815.820224719101,1859.2808988764043,-1601.112359550562,0
2024-06-15 11:45:52,-0.02076941915,-0.01832595654,-0.00244346098,-3.462015629,-5.384559631,7.390900612,-43.76470588235294,23.68235294117647,-113.10588235294118,-7843.84705882353,1803.6705882352944,-1462.7529411764706,0
2024-06-15 11:45:52,-0.02076941915,-0.01832595654,-0.00244346098,-3.462015629,-5.384559631,7.390900612,472.37894736842105,184.7473684210526,257.0421052631579,-7983.378947368421,1806.7052631578947,-1585.5894736842106,0
2024-06-15 11:45:52,0.00244346098,-0.0415388383,0.004886921961,-3.53384161,-5.358223438,7.584830761,811.4,-10.825,98.175,-8012.625,1713.575,-1508.15,0
2024-06-15 11:45:52,0.07330382615,-0.00122173049,0.03176499158,-3.34230566,-5.252878666,7.508216381,-18.14285714285714,79.57142857142857,109.17857142857144,-7969.285714285715,1722.821428571429,-1507.5357142857142,0
2024-06-15 11:45:52,0.07330382615,-0.00122173049,0.03176499158,-3.34230566,-5.252878666,7.508216381,28.95555555555556,100.24444444444444,60.6,-7991.622222222222,1889.6222222222225,-1454.0,0
2024-06-15 11:45:53,0.006108652335,0.07452555746,0.04764748737,-3.526659012,-5.468356609,7.539340973,-145.20454545454547,57.29545454545455,73.25,-8033.659090909091,1692.340909090909,-1486.215909090909,0
2024-06-15 11:45:53,-0.01954768784,0.01832595654,0.02443460934,-3.634398222,-5.207388878,7.307103634,-223.2258064516129,-551.0322580645161,-106.48387096774194,-8036.806451612903,1710.7096774193549,-1545.4193548387098,0
2024-06-15 11:45:53,-0.01954768784,0.01832595654,0.02443460934,-3.634398222,-5.207388878,7.307103634,-302.9887640449438,-183.06741573033707,78.64044943820225,-7960.70786516854,1684.887640449438,-1159.5168539325844,0
2024-06-15 11:45:53,-0.0109955743,-0.0171042271,0.00122173049,-3.682282209,-5.31273365,7.450755596,112.0919540229885,110.71264367816092,2.655172413793103,-8016.448275862069,1707.0,-1197.816091954023,0
2024-06-15 11:45:53,-0.0109955743,-0.0171042271,0.00122173049,-3.682282209,-5.31273365,7.450755596,-86.11764705882354,31.94117647058824,-268.8235294117647,-7846.941176470588,1708.529411764706,-1164.4117647058824,0
2024-06-15 11:45:53,-0.01588249579,-0.0232128799,0.01221730467,-3.60566783,-5.403713226,7.354987621,-26.852941176470587,14.088235294117649,-281.55882352941177,-7821.14705882353,1738.8529411764705,-1172.970588235294,0
2024-06-15 11:45:53,-0.00244346098,0.009773843922,0.009773843922,-3.634398222,-5.410895824,7.371747017,89.02941176470588,27.61764705882353,-273.9117647058824,-7817.029411764706,1742.970588235294,-1161.7941176470588,0
2024-06-15 11:45:53,-0.00244346098,0.009773843922,0.009773843922,-3.634398222,-5.410895824,7.371747017,78.98823529411764,-69.31764705882352,-87.94117647058823,-7861.541176470589,1488.6470588235295,-1327.4117647058824,0
2024-06-15 11:45:53,-0.006108652335,0.007330383174,0.0109955743,-3.624821424,-5.458779812,7.331045628,-226.27272727272725,-42.63636363636364,109.0909090909091,-7858.454545454545,1915.636363636364,-1225.6363636363635,0
2024-06-15 11:45:53,0.03298672289,-0.00122173049,0.009773843922,-3.629609823,-5.511452198,7.369352818,-221.17977528089887,268.75280898876406,52.98876404494382,-7854.213483146067,1856.3370786516853,-1213.415730337079,0
2024-06-15 11:45:54,0.03298672289,-0.00122173049,0.009773843922,-3.629609823,-5.511452198,7.369352818,-291.35555555555555,312.53333333333336,-252.88888888888889,-8017.088888888888,1900.4222222222224,-1598.9333333333334,0
2024-06-15 11:45:54,0.6389650702,0.02076941915,0.03909537569,-3.737348795,-5.731719017,7.647080421,-307.4,185.2235294117647,71.72941176470589,-7900.623529411765,1824.835294117647,-1642.929411764706,0
2024-06-15 11:45:54,0.6389650702,0.02076941915,0.03909537569,-3.737348795,-5.731719017,7.647080421,200.66666666666669,115.77777777777776,25.88888888888889,-8045.555555555556,1874.2222222222224,-1644.111111111111,0
2024-06-15 11:45:54,-0.4520402849,-0.6084218025,0.8845328689,-4.108449936,-4.412513733,7.618350029,-58.056179775280896,64.6629213483146,37.50561797752809,-8016.988764044944,1893.247191011236,-1609.7303370786517,0
2024-06-15 11:45:54,-0.02809980139,-0.3530801237,0.4948008358,-3.41892004,-4.8291049,8.662221909,-349.4318181818182,15.909090909090908,-107.3181818181818,-7924.227272727273,1702.9886363636365,-1586.6363636363635,0
2024-06-15 11:45:54,-0.02809980139,-0.3530801237,0.4948008358,-3.41892004,-4.8291049,8.662221909,42.28571428571428,202.1309523809524,27.58333333333333,-8022.333333333333,1471.440476190476,-1585.2261904761904,0
2024-06-15 11:45:54,0.1038470939,0.0293215327,0.2577851415,-3.648763418,-4.98233366,7.141903877,172.75,38.79545454545453,-19.454545454545453,-8054.943181818182,1781.5,-1501.784090909091,0
2024-06-15 11:45:54,0.1038470939,0.0293215327,0.2577851415,-3.356670856,-4.144362926,8.374917984,64.11627906976744,78.3953488372093,-253.3720930232558,-8047.720930232558,1694.0232558139537,-1797.046511627907,0
2024-06-15 11:45:54,0.01221730467,-0.2174680233,0.00122173049,-3.356670856,-4.144362926,8.374917984,-203.65263157894736,-302.0,-344.3157894736842,-8020.263157894737,1804.4315789473685,-1477.7894736842106,0
2024-06-15 11:45:54,-0.8637634516,0.2846632004,0.03054326214,-3.136404276,-6.445190907,6.253654957,353.75280898876406,71.08988764044943,75.58426966292134,-7908.640449438202,1793.0337078651685,-1575.4719101123596,0
2024-06-15 11:45:55,-0.8637634516,0.2846632004,0.03054326214,-3.136404276,-6.445190907,6.253654957,-331.53333333333336,-308.6555555555556,-256.8888888888889,-7951.866666666667,1828.055555555556,-1599.9,0
2024-06-15 11:45:55,0.2076941878,-0.4202753007,-0.1502728462,-3.627215624,-5.185841084,8.118738174,-183.73825503355704,-116.97986577181209,-93.34228187919464,-7847.3087248322145,1610.0268456375838,-1507.275167785235,0
2024-06-15 11:45:55,0.2345722616,0.02687807009,-0.05375614017,-2.607285738,-5.640739441,7.350199223,-13.939597315436233,-111.61073825503355,-84.61744966442953,-7896.302013422819,1483.8523489932886,-1313.986577181208,0
2024-06-15 11:45:55,0.2345722616,0.02687807009,-0.05375614017,-2.607285738,-5.640739441,7.350199223,-411.1411764705882,-92.6,-336.5529411764706,-8004.788235294118,1834.8235294117649,-1222.6823529411763,0
2024-06-15 11:45:55,0.3371976018,-0.2785545588,-0.7733554244,-4.90571928,-6.514622688,8.73404789,-551.056179775281,210.5730337078652,-325.03370786516854,-7946.337078651685,1497.438202247191,-1273.7640449438202,0
2024-06-15 11:45:55,0.3371976018,-0.2785545588,-0.7733554244,-4.90571928,-6.514622688,8.73404789,9.715909090909092,177.63636363636363,77.5340909090909,-7885.170454545455,1496.7045454545455,-1222.2727272727273,0
2024-06-15 11:45:55,0.06597344577,0.08185594529,0.1514945775,-3.107673883,-5.224148273,8.281543732,19.408602150537632,150.31182795698925,-223.84946236559145,-7702.301075268817,1737.268817204301,-1547.52688172043,0
2024-06-15 11:45:55,0.5412266254,0.2345722616,0.1111774743,-2.942473888,-3.876212597,7.366958618,-18.458823529411745,617.3176470588235,-104.23529411764706,-7851.035294117647,1517.6235294117646,-1869.117647058824,0
2024-06-15 11:45:55,0.5412266254,0.2345722616,0.1111774743,-2.942473888,-3.876212597,7.366958618,-68.83333333333333,-358.93333333333334,17.566666666666666,-7825.0,1717.1444444444444,-1881.8111111111111,0
2024-06-15 11:45:55,0.5888741016,0.03298672289,0.009773843922,-2.961627483,-5.410895824,7.773972988,-287.2857142857143,-170.76190476190476,-258.0952380952381,-7998.142857142857,1838.619047619048,-1505.0,0
2024-06-15 11:45:56,-0.1466076523,-0.3701843321,0.1918116808,-3.478775024,-4.951209068,8.188169479,-88.91111111111111,74.1,74.28888888888889,-8028.366666666667,1466.388888888889,-1622.911111111111,0
2024-06-15 11:45:56,-0.1466076523,-0.3701843321,0.1918116808,-3.478775024,-4.951209068,8.188169479,198.29545454545456,117.125,89.07954545454545,-8024.113636363636,1840.6931818181813,-1576.9886363636365,0
2024-06-15 11:45:56,0.2333505303,0.007330383174,-0.02199114859,-3.354276657,-4.402936935,7.611167431,-36.266666666666666,-113.66666666666669,41.66666666666666,-8033.333333333333,1852.6666666666667,-1418.1333333333334,0
2024-06-15 11:45:56,0.2333505303,0.007330383174,-0.02199114859,-3.354276657,-4.402936935,7.611167431,-340.0909090909091,-117.01136363636364,24.28409090909091,-8046.159090909091,1827.2954545454545,-1475.3863636363635,0
2024-06-15 11:45:56,0.2504547536,0.1576032341,-0.4361577928,-3.56496644,-4.865017891,8.602366447,-175.4065934065934,46.43956043956044,80.04395604395604,-7955.10989010989,1505.758241758242,-1455.043956043956,0
2024-06-15 11:45:56,-0.2028072625,-0.0293215327,-0.1172861308,-3.914519787,-5.31273365,7.520187378,-60.308641975308646,-282.75308641975306,121.74074074074072,-7996.9876543209875,1512.0493827160494,-1426.7407407407406,0
2024-06-15 11:45:56,-0.2028072625,-0.0293215327,-0.1172861308,-3.914519787,-5.31273365,7.520187378,-25.822222222222223,-298.46666666666664,112.71111111111112,-7830.8,1827.6444444444444,-1612.8222222222223,0
2024-06-15 11:45:56,-0.1869247705,-0.08918632567,0.5448917747,-3.732560396,-4.393360138,5.975927353,54.18181818181818,88.0969696969697,46.127272727272725,-8059.509090909091,1792.1090909090908,-1609.0666666666666,0
2024-06-15 11:45:56,0.2370157093,-0.08674286306,0.06719517708,-1.132457376,-4.204218388,10.95347309,72.36363636363636,97.7939393939394,58.85454545454546,-7910.418181818181,1803.0181818181816,-1615.7333333333331,0
2024-06-15 11:45:56,0.2370157093,-0.08674286306,0.06719517708,-1.132457376,-4.204218388,10.95347309,-51.0,-196.0117647058824,53.68235294117647,-7865.035294117647,1591.164705882353,-1326.870588235294,0
2024-06-15 11:45:57,-0.4349360466,-0.1185078546,-0.1624901593,-3.936067581,-5.42765522,9.042900085,10.288888888888891,58.13333333333333,-145.2888888888889,-8031.377777777778,1906.6888888888889,-1548.9555555555555,0
2024-06-15 11:45:57,-0.4349360466,-0.1185078546,-0.1624901593,-3.936067581,-5.42765522,9.042900085,-404.7415730337079,4.460674157303373,-338.8314606741573,-7974.29213483146,1661.6404494382025,-1500.4831460674156,0
2024-06-15 11:45:57,0.09040805697,0.1221730486,0.2174680233,-2.219424963,-5.659893036,7.343016624,-112.16666666666669,-264.0777777777778,-368.53333333333336,-7822.111111111111,1477.5111111111112,-1612.1555555555556,0
2024-06-15 11:45:57,-0.05619960278,-0.2773328125,-0.8943067193,-4.235342979,-4.429273129,8.006210327,58.906976744186046,35.97674418604651,-93.69767441860466,-7828.302325581395,1553.6976744186047,-1366.1162790697674,0
2024-06-15 11:45:57,-0.05619960278,-0.2773328125,-0.8943067193,-4.235342979,-4.429273129,8.006210327,211.5581395348837,46.7906976744186,12.930232558139537,-7836.255813953488,1636.5581395348838,-1243.7441860465117,0
2024-06-15 11:45:57,0.813672483,0.8197811842,-0.3139847219,-4.043806553,-5.360617638,7.481880188,114.125,120.86363636363636,51.26136363636363,-8031.818181818182,1500.1931818181818,-1559.3068181818182,0
2024-06-15 11:45:57,0.3078760803,0.6145304441,-1.00670588,-3.268085241,-5.063736439,7.963114738,-135.7888888888889,-23.366666666666667,80.97777777777777,-7835.477777777778,1640.4555555555555,-1581.9555555555555,0
2024-06-15 11:45:57,0.3078760803,0.6145304441,-1.00670588,-3.268085241,-5.063736439,7.963114738,-90.7093023255814,89.62790697674419,-83.52325581395348,-7811.988372093023,1562.0,-1603.0116279069769,0
2024-06-15 11:45:57,-0.1551597714,0.3628539443,-0.1869247705,-4.429273129,-6.39491272,6.136339188,-40.527472527472526,82.05494505494505,-73.6043956043956,-7839.934065934066,1741.5494505494505,-1483.6043956043957,0
2024-06-15 11:45:57,-0.1551597714,0.3628539443,-0.1869247705,-4.429273129,-6.39491272,6.136339188,-578.953488372093,-50.11627906976744,-319.4651162790698,-8011.162790697675,1489.8837209302326,-1225.093023255814,0
2024-06-15 11:45:58,0.1576032341,-0.2919935882,0.1539380401,-3.155557871,-5.125985622,8.552088737,139.125,232.07954545454547,-21.125,-7845.897727272727,1542.034090909091,-1638.6477272727273,0
2024-06-15 11:45:58,-0.6206390858,-0.299323976,0.4544837475,-2.949656487,-5.975927353,5.272032261,263.2022471910112,134.2134831460674,36.65168539325843,-7873.752808988764,1687.258426966292,-1678.5168539325844,0
2024-06-15 11:45:58,-0.6206390858,-0.299323976,0.4544837475,-2.949656487,-5.975927353,5.272032261,-222.3333333333333,29.333333333333343,31.0,-7826.666666666667,1614.0,-1609.6666666666667,0
2024-06-15 11:45:58,0.3762930036,-0.9187413454,0.4092797041,-4.283226967,-5.310339451,9.028534889,-225.0484848484849,60.53939393939394,-116.24242424242424,-7913.109090909091,1561.509090909091,-1563.660606060606,0
2024-06-15 11:45:58,0.3762930036,-0.9187413454,0.4092797041,-4.283226967,-5.310339451,9.028534889,-146.2,-27.0,-286.8,-8039.0,1607.8,-1641.2,0
2024-06-15 11:45:58,0.09651670605,-0.4495968223,0.6304129362,-2.782062292,-4.824316502,5.688623428,-6.045454545454545,-627.5795454545455,-630.3636363636364,-7876.5,1433.5454545454545,-1646.784090909091,0
2024-06-15 11:45:58,-0.2797762752,-0.1673770845,-0.25167647,-3.34230566,-4.61362648,8.604761124,-579.0232558139535,-210.4883720930233,-456.27906976744185,-8050.372093023256,1577.860465116279,-1552.8372093023256,0
2024-06-15 11:45:58,-0.2797762752,-0.1673770845,-0.25167647,-3.34230566,-4.61362648,8.604761124,-464.2738095238095,67.42857142857143,-473.8571428571428,-7872.309523809524,1354.952380952381,-1252.4166666666667,0
2024-06-15 11:45:58,-0.6646214128,0.6805039048,-0.006108652335,-3.684676409,-6.313509941,8.037335396,-181.370786516854,-39.89887640449439,47.17977528089887,-8269.516853932584,1172.9775280898875,-1448.4606741573034,0
2024-06-15 11:45:58,1.134987593,0.3445279896,-0.6414085031,-3.356670856,-4.709394932,5.743690014,148.81111111111113,-322.4,166.62222222222223,-7863.544444444445,1523.611111111111,-1184.7,0
2024-06-15 11:45:59,1.134987593,0.3445279896,-0.6414085031,-3.356670856,-4.709394932,5.743690014,43.12087912087912,-7.692307692307693,293.4065934065934,-7923.681318681319,1613.956043956044,-1177.2967032967033,0
2024-06-15 11:45:59,0.3506366611,-0.06597344577,0.05131268129,-2.892195702,-5.104437828,8.030152321,-70.74117647058823,279.5176470588235,193.5058823529412,-7917.388235294117,1595.6,-1230.023529411765,0
2024-06-15 11:45:59,0.3506366611,-0.06597344577,0.05131268129,-2.892195702,-5.104437828,8.030152321,516.6179775280899,-51.84269662921348,539.6516853932584,-7826.988764044944,1723.943820224719,-1499.7078651685392,0
2024-06-15 11:45:59,0.2553416789,0.1857030392,0.04886921868,-3.945644379,-5.497087002,7.723694801,168.31034482758622,326.97701149425285,547.3218390804598,-8028.045977011494,1861.0229885057472,-1600.6206896551723,0
2024-06-15 11:45:59,-0.5522221923,-0.5974262357,1.144761443,-4.036623955,-5.691017628,6.751648903,272.5217391304348,283.0,169.0,-8017.782608695652,1788.608695652174,-1620.7391304347825,0
2024-06-15 11:45:59,-0.5522221923,-0.5974262357,1.144761443,-4.036623955,-5.691017628,6.751648903,646.375,365.875,331.75,-7969.875,1438.125,-1562.875,0
2024-06-15 11:45:59,-0.1001819,-0.393397212,0.3445279896,-1.498770237,-4.824316502,9.136273384,722.9545454545455,170.0909090909091,-200.72727272727275,-7832.409090909091,1906.8636363636365,-1870.772727272728,0
2024-06-15 11:45:59,0.2101376504,0.6572909951,-1.089783549,-3.574543238,-4.711789131,8.221688271,496.5632183908046,-156.73563218390805,67.67816091954023,-8011.494252873563,1891.67816091954,-1854.528735632184,0
2024-06-15 11:45:59,0.2101376504,0.6572909951,-1.089783549,-3.574543238,-4.711789131,8.221688271,-413.27272727272725,-54.54545454545455,-242.27272727272725,-7977.818181818182,1634.909090909091,-1511.6363636363635,0
2024-06-15 11:45:59,0.2455678284,-0.2712241709,0.06963863969,-3.945644379,-5.825092793,6.569689274,-566.443113772455,45.113772455089816,-178.60479041916167,-7973.029940119761,1488.8502994011976,-1622.0538922155688,0
2024-06-15 11:46:00,0.2455678284,-0.2712241709,0.06963863969,-3.945644379,-5.825092793,6.569689274,-571.2335329341317,235.5329341317365,-201.35928143712576,-7965.245508982036,1627.7724550898204,-1828.0419161676648,0
2024-06-15 11:46:00,0.1539380401,-0.02443460934,0.1698205322,-3.538630009,-5.13556242,7.477091789,-113.7864077669903,122.3495145631068,-80.30097087378641,-7924.291262135922,1642.271844660194,-1847.378640776699,0
2024-06-15 11:46:00,-0.8845328689,0.04520402849,0.5143485069,-3.804386616,-6.253654957,6.900089264,-223.17073170731703,56.78048780487802,-19.53658536585368,-7636.073170731707,1448.0243902439024,-1764.6341463414633,0
2024-06-15 11:46:00,-0.8845328689,0.04520402849,0.5143485069,-3.804386616,-6.253654957,6.900089264,258.27659574468083,-33.08510638297872,325.0425531914894,-7880.063829787234,1803.063829787234,-1870.617021276596,0
2024-06-15 11:46:00,0.1209513173,-0.5180137157,0.3408628106,-3.368641853,-4.098873138,8.161833763,-337.1341463414634,-358.4268292682927,-142.390243902439,-7638.731707317073,1502.2073170731708,-1494.3902439024391,0
2024-06-15 11:46:00,0.4276056588,0.2968805134,-0.2663372457,-3.026270866,-4.783615112,7.699752808,-212.04494382022472,-115.87640449438204,88.57303370786516,-8030.7191011235955,1430.7078651685392,-1521.426966292135,0
2024-06-15 11:46:00,0.4276056588,0.2968805134,-0.2663372457,-3.026270866,-4.783615112,7.699752808,82.26966292134831,-38.48314606741573,-93.74157303370788,-7907.078651685393,1496.7865168539329,-1506.5505617977528,0
2024-06-15 11:46:00,-0.1246165112,0.01588249579,-0.3921754956,-4.419696331,-7.393294811,7.005434036,-315.9325842696629,-240.52808988764045,-379.6966292134832,-8030.76404494382,1542.2134831460671,-1584.134831460674,0
2024-06-15 11:46:00,-0.1246165112,0.01588249579,-0.3921754956,-4.419696331,-7.393294811,7.005434036,-621.5795454545455,49.86363636363636,-320.10227272727275,-8044.102272727273,1383.5681818181818,-1239.8977272727273,0
2024-06-15 11:46:00,0.5375614166,0.05864306539,-0.00122173049,-2.995146275,-4.410119534,7.000645638,-290.45454545454544,-30.363636363636363,-28.045454545454547,-7988.443181818182,1570.340909090909,-1616.7272727272727,0
2024-06-15 11:46:01,-0.6511823535,-0.00122173049,-0.1307251602,-4.647145271,-7.268796444,7.639897823,275.11764705882354,213.1176470588236,374.9764705882353,-8036.952941176471,1442.0470588235294,-1473.0470588235294,0
2024-06-15 11:46:01,-0.6511823535,-0.00122173049,-0.1307251602,-4.647145271,-7.268796444,7.639897823,-68.1888888888889,-81.54444444444445,71.48888888888888,-8026.811111111111,1876.2888888888888,-1793.2777777777778,0
2024-06-15 11:46:01,0.3176499307,-0.3604104817,0.2186897546,-2.743755102,-5.051765442,8.458714485,-244.4022988505747,75.1264367816092,-364.4597701149425,-7834.206896551724,1489.8045977011495,-1457.9540229885058,0
2024-06-15 11:46:01,0.3176499307,-0.3604104817,0.2186897546,-2.743755102,-5.051765442,8.458714485,-262.85714285714283,83.14285714285714,39.57142857142857,-8022.285714285715,1629.571428571429,-1468.2857142857142,0
2024-06-15 11:46:01,-0.235793978,0.1050688252,-0.004886921961,-3.478775024,-4.101267338,7.752425194,287.3333333333333,-275.03333333333336,94.36666666666667,-8061.666666666667,1654.1,-1626.3333333333333,0
2024-06-15 11:46:01,0.145385921,-0.05375614017,-0.06230825558,-3.476380825,-5.305551052,7.625532627,-151.03773584905662,-108.73584905660375,74.16981132075472,-8017.7169811320755,1488.7924528301887,-1411.660377358491,0
2024-06-15 11:46:01,0.145385921,-0.05375614017,-0.06230825558,-3.476380825,-5.305551052,7.625532627,-225.251572327044,-55.90566037735849,108.13207547169812,-8027.779874213837,1480.6163522012578,-1410.4025157232704,0
2024-06-15 11:46:01,-0.05619960278,-0.08796459436,-0.0109955743,-3.078943491,-5.489904404,7.544129372,-347.7469879518072,32.55421686746988,-284.48192771084337,-7822.265060240964,1569.8313253012047,-1481.3493975903614,0
2024-06-15 11:46:01,0.05619960278,0.01343903504,-0.06230825558,-3.150769472,-5.446808815,7.412448406,99.73333333333336,38.08888888888889,131.0,-7836.711111111111,1391.7777777777778,-1428.2222222222222,0
2024-06-15 11:46:01,0.05619960278,0.01343903504,-0.06230825558,-3.150769472,-5.446808815,7.412448406,288.9655172413793,-168.33333333333334,243.70114942528733,-7976.540229885058,1669.3218390804598,-1481.6896551724135,0
2024-06-15 11:46:02,-0.0293215327,0.109955743,0.02687807009,-3.153163671,-5.243301868,7.876923561,-101.7752808988764,-342.6516853932584,-17.640449438202268,-8051.921348314607,1861.483146067416,-1583.6516853932585,0
2024-06-15 11:46:02,-0.0293215327,0.109955743,0.02687807009,-3.153163671,-5.243301868,7.876923561,50.66666666666666,-324.3333333333333,6.333333333333334,-7979.0,1798.3333333333333,-1244.6666666666667,0
2024-06-15 11:46:02,0.1050688252,-0.008552113548,0.0354301855,-3.311181068,-5.774814606,7.467514992,-64.38372093023256,46.16279069767442,-67.01162790697674,-7838.279069767442,1823.5,-1279.2093023255811,0
2024-06-15 11:46:02,0.1869247705,0.08674286306,0.03054326214,-1.130063176,-4.381389141,6.971915245,-169.4431818181818,-54.19318181818182,339.28409090909093,-8001.465909090909,1732.5113636363635,-1638.7727272727273,0
2024-06-15 11:46:02,0.1869247705,0.08674286306,0.03054326214,-1.130063176,-4.381389141,6.971915245,-159.27272727272728,-336.27272727272725,28.454545454545453,-7861.545454545455,1729.2727272727273,-1256.1818181818182,0
2024-06-15 11:46:02,0.7696902156,-0.3042109013,-0.428827405,-6.291962147,-4.335899353,7.891288757,-556.8651685393259,-192.96629213483143,-152.42696629213484,-8018.168539325843,1809.415730337079,-1185.9550561797753,0
2024-06-15 11:46:02,0.7806857824,0.5290092826,-0.2272418737,-3.428496838,-5.085284233,7.35977602,-891.0,107.1818181818182,-104.29292929292929,-7827.868686868687,1833.3434343434344,-1200.0,0
2024-06-15 11:46:02,0.7806857824,0.5290092826,-0.2272418737,-3.428496838,-5.085284233,7.35977602,-891.0,95.06060606060606,-106.986531986532,-7825.511784511785,1921.5589225589224,-1200.0,0
2024-06-15 11:46:02,0.3677408695,-0.1136209369,0.228463605,-2.351106167,-5.437232018,5.978321552,-891.0,82.93939393939394,-109.68013468013469,-7823.154882154882,2009.7744107744109,-1200.0,0
2024-06-15 11:46:02,0.3677408695,-0.1136209369,0.228463605,-2.351106167,-5.437232018,5.978321552,-479.7142857142857,-81.14285714285714,-191.57142857142856,-7867.571428571428,1677.428571428571,-1334.7142857142858,0
2024-06-15 11:46:03,-0.07819075137,-0.574213326,-0.06352998316,-3.694253206,-5.001487255,7.582436562,403.0769230769231,-25.75824175824176,-344.46153846153845,-7852.340659340659,1489.9450549450548,-1399.0879120879122,0
2024-06-15 11:46:03,-1.215621829,0.5363397002,0.3433062732,-4.192247391,-6.818686485,8.264783859,-26.16867469879518,-59.98795180722892,87.40963855421687,-7856.409638554217,1793.5903614457832,-1218.8313253012047,0
2024-06-15 11:46:03,-1.215621829,0.5363397002,0.3433062732,-4.192247391,-6.818686485,8.264783859,-299.9310344827586,42.95402298850574,-33.80459770114942,-7818.0,1516.7241379310344,-1239.8275862068965,0
2024-06-15 11:46:03,0.5632177591,-0.2956587672,-0.04886921868,-2.264914751,-4.458003521,6.871358871,-156.1829268292683,289.6341463414634,-272.0060975609756,-7826.451219512195,1481.1524390243903,-1253.1829268292684,0
2024-06-15 11:46:03,-0.228463605,0.01466076635,0.05864306539,-3.040636063,-5.906495571,7.922413349,-147.64634146341464,306.7073170731707,-275.0548780487805,-7852.0609756097565,1457.371951219512,-1244.6463414634147,0
2024-06-15 11:46:03,-0.228463605,0.01466076635,0.05864306539,-3.040636063,-5.906495571,7.922413349,-147.1123595505618,-9.966292134831464,76.82022471910112,-7925.112359550561,1518.752808988764,-1231.3258426966293,0
2024-06-15 11:46:03,1.0726794,0.5082398653,-0.1881465018,-3.560178041,-4.345476151,7.682993412,-313.77272727272725,-36.28409090909091,11.829545454545457,-7838.477272727273,1456.090909090909,-1225.5454545454545,0
2024-06-15 11:46:03,1.0726794,0.5082398653,-0.1881465018,-3.560178041,-4.345476151,7.682993412,-21.5,46.25,54.5,-8023.75,1452.0,-1211.5,0
2024-06-15 11:46:03,0.4141666293,-0.1087340117,0.283441484,-3.639186621,-6.818686485,7.69017601,-92.52439024390245,342.6829268292683,37.02439024390244,-8035.207317073171,1446.4512195121952,-1554.4268292682927,0
2024-06-15 11:46:03,0.003665191587,-0.6719517708,0.7110471725,-2.999934673,-4.86980629,8.157045364,319.2916666666667,-8.354166666666666,-119.625,-7886.645833333333,1833.625,-1432.6041666666667,0
2024-06-15 11:46:04,0.003665191587,-0.6719517708,0.7110471725,-2.999934673,-4.86980629,8.157045364,-134.51190476190476,-51.45238095238095,-185.1309523809524,-8032.940476190476,1482.0,-1462.4642857142858,0
2024-06-15 11:46:04,0.4691445231,0.1502728462,-0.02443460934,-2.707842112,-5.224148273,6.983886242,-196.9,-66.8,-259.5,-7872.833333333333,1624.6,-1494.6,0
2024-06-15 11:46:04,0.4691445231,0.1502728462,-0.02443460934,-2.707842112,-5.224148273,6.983886242,195.3720930232558,-278.93023255813955,84.97674418604652,-7887.906976744186,1440.1162790697674,-1598.2325581395348,0
2024-06-15 11:46:04,0.05131268129,0.0720821023,-0.58276546,-4.606443882,-4.304774761,8.367734909,-245.92307692307693,-135.0,-98.0,-8051.615384615385,1552.2307692307693,-1603.3076923076924,0
2024-06-15 11:46:04,0.2895501256,-0.6536257863,0.1148426682,-2.882618904,-4.292803764,7.910442352,-292.2068965517241,-73.24137931034483,-117.58620689655172,-7855.206896551724,1607.7931034482758,-1589.0689655172414,0
2024-06-15 11:46:04,0.2895501256,-0.6536257863,0.1148426682,-2.882618904,-4.292803764,7.910442352,90.95348837209302,43.24418604651163,-96.86046511627907,-7864.6511627906975,1437.313953488372,-1582.3372093023256,0
2024-06-15 11:46:04,-0.1918116808,0.5546656251,0.08063421398,-4.13239193,-5.073313236,5.961562157,-94.183908045977,42.310344827586206,-214.02298850574712,-8049.977011494253,1510.1609195402298,-1573.3103448275865,0
2024-06-15 11:46:04,0.7024950385,0.003665191587,0.07086037099,-3.960009575,-4.853046894,7.177816868,-537.9310344827586,-63.40229885057471,-247.19540229885047,-7839.793103448276,1446.3793103448277,-1568.287356321839,0
2024-06-15 11:46:04,0.7024950385,0.003665191587,0.07086037099,-3.960009575,-4.853046894,7.177816868,-304.31067961165047,65.7378640776699,-259.873786407767,-7933.067961165048,1267.0582524271845,-1234.378640776699,0
2024-06-15 11:46:04,-1.290147424,0.196698606,0.07696902007,-2.121262789,-6.107608318,6.464344501,83.25,2.25,99.3586956521739,-7886.326086956522,1269.945652173913,-1203.0978260869565,0
2024-06-15 11:46:05,-1.290147424,0.196698606,0.07696902007,-2.121262789,-6.107608318,6.464344501,22.23333333333333,272.0333333333333,56.2,-8002.933333333333,1447.8666666666666,-1593.4,0
2024-06-15 11:46:05,-0.7965682745,0.1209513173,-0.06475171447,-3.871424198,-5.470750809,7.987056732,-36.96629213483146,65.62921348314607,163.1123595505618,-7873.213483146067,1618.0786516853932,-1496.2359550561798,0
2024-06-15 11:46:05,0.1136209369,-0.2199114859,0.1429424733,-3.394978046,-5.245696068,6.634333134,-4.31460674157303,-220.2134831460674,-15.606741573033702,-7977.438202247191,1689.4044943820224,-1561.584269662921,0
2024-06-15 11:46:05,0.1136209369,-0.2199114859,0.1429424733,-3.394978046,-5.245696068,6.634333134,-101.375,-304.625,61.79545454545455,-8038.068181818182,1619.6022727272727,-1563.6136363636365,0
2024-06-15 11:46:05,-0.6414085031,-0.07452555746,0.2186897546,-4.359841347,-7.022193432,9.897629738,-274.8089887640449,-66.0561797752809,-30.42696629213484,-7849.134831460674,1428.561797752809,-1243.741573033708,0
2024-06-15 11:46:05,0.3054326177,-0.1331686229,0.5607742667,-3.124433279,-3.576937437,6.845022678,-84.0,-77.19999999999999,338.4,-8062.4,1503.2,-1238.6,0
2024-06-15 11:46:05,0.3054326177,-0.1331686229,0.5607742667,-3.124433279,-3.576937437,6.845022678,89.27906976744185,-75.27906976744185,2.0348837209302246,-8009.627906976744,1889.186046511628,-1526.9418604651164,0
2024-06-15 11:46:05,-1.568701982,0.5534439087,-0.1527163088,-1.541865945,-4.108449936,7.539340973,-54.141304347826086,298.9130434782609,94.09782608695652,-7818.663043478261,1839.5869565217392,-1542.7065217391305,0
2024-06-15 11:46:05,-1.568701982,0.5534439087,-0.1527163088,-1.541865945,-4.108449936,7.539340973,254.4470588235294,-52.23529411764706,-334.6,-7812.411764705882,1877.5176470588235,-1443.7411764705882,0
2024-06-15 11:46:05,0.2675589919,-0.3750712574,-0.2614503205,-4.570530891,-5.386953831,6.698976517,-91.67441860465117,93.44186046511628,75.32558139534883,-8046.906976744186,1498.6744186046512,-1647.4418604651162,0
2024-06-15 11:46:06,-0.1246165112,0.2394591719,-0.02565634064,-4.13239193,-5.154716492,7.12993288,222.8571428571429,46.26373626373626,38.54945054945055,-8018.813186813187,1842.692307692308,-1448.5384615384614,0
2024-06-15 11:46:06,-0.1246165112,0.2394591719,-0.02565634064,-4.13239193,-5.154716492,7.12993288,-117.41379310344828,-83.44827586206897,-283.2068965517241,-8048.827586206897,1709.103448275862,-1472.103448275862,0
2024-06-15 11:46:06,0.4068362415,0.04398229718,-0.2235766798,-1.388636947,-2.545036316,6.646304131,-173.68604651162792,-74.67441860465117,-352.7325581395349,-7826.697674418605,1497.5813953488373,-1480.7209302325582,0
2024-06-15 11:46:06,0.4068362415,0.04398229718,-0.2235766798,-1.388636947,-2.545036316,6.646304131,-558.75,51.10227272727273,-69.9659090909091,-7836.068181818182,1498.9204545454545,-1444.590909090909,0
2024-06-15 11:46:06,0.04031710699,0.5803219676,-0.735481739,-3.988739967,-4.604049683,7.680599213,-574.688622754491,-159.20359281437126,-325.0658682634731,-7953.622754491018,1611.3053892215569,-1628.3652694610778,0
2024-06-15 11:46:06,0.7086036801,-0.290771842,-0.2638937831,-4.199429989,-5.978321552,8.664615631,36.125,-290.625,74.25,-7869.125,1599.125,-1307.375,0
2024-06-15 11:46:06,0.7086036801,-0.290771842,-0.2638937831,-4.199429989,-5.978321552,8.664615631,-201.32954545454547,62.0,-347.1931818181818,-8033.704545454545,1823.9545454545453,-1270.840909090909,0
2024-06-15 11:46:06,-0.7843509912,-0.5351179838,0.8527678847,-3.406949043,-6.24168396,7.24485445,-225.25,368.25,-375.625,-8164.0,1633.625,-1194.125,0
2024-06-15 11:46:06,-0.08552113175,-0.09407325089,-0.3396410644,-1.273715258,-4.082113743,10.10113716,-91.25,56.0,-294.75,-8000.0,1588.5,-1625.75,0
2024-06-15 11:46:06,-0.08552113175,-0.09407325089,-0.3396410644,-1.273715258,-4.082113743,10.10113716,312.06666666666666,368.4666666666666,44.355555555555554,-8049.444444444444,1473.1555555555556,-1635.3777777777775,0
2024-06-15 11:46:07,0.1563815027,0.5448917747,-0.7501425147,-4.288015366,-5.817910194,7.534552574,-57.45454545454545,142.27272727272728,-158.0,-7829.090909090909,1679.6363636363635,-1886.909090909091,0
2024-06-15 11:46:07,0.1563815027,0.5448917747,-0.7501425147,-4.288015366,-5.817910194,7.534552574,-282.0919540229885,-211.5287356321839,-346.5057471264368,-7848.333333333333,1519.8045977011493,-1611.1264367816093,0
2024-06-15 11:46:07,-0.02443460934,-0.2773328125,0.216246292,-2.624045134,-5.94959116,7.10599041,-268.84090909090907,-363.6590909090909,-272.8863636363636,-7966.795454545455,1597.2272727272727,-1434.5454545454545,0
2024-06-15 11:46:07,-0.01343903504,-0.8869763613,0.7806857824,-3.82593441,-3.612850428,5.98789835,-91.6279069767442,-25.18604651162792,91.82558139534883,-7891.96511627907,1572.1976744186047,-1603.3488372093022,0
2024-06-15 11:46:07,-0.01343903504,-0.8869763613,0.7806857824,-3.82593441,-3.612850428,5.98789835,332.875,1.90909090909091,-88.92045454545455,-7881.636363636364,1492.1704545454545,-1431.8863636363635,0
2024-06-15 11:46:07,-0.1282816976,0.6450737119,0.3518583775,-4.656722069,-6.06211853,7.053318024,-608.5,-179.0,-525.5,-8057.5,1624.5,-1264.0,0
2024-06-15 11:46:07,0.2773328125,-0.2296853364,-0.1404990107,-0.7661445141,-5.123591423,8.204929352,-151.90697674418604,117.26744186046513,-68.70930232558139,-7872.96511627907,1569.5697674418604,-1221.360465116279,0
2024-06-15 11:46:07,0.2773328125,-0.2296853364,-0.1404990107,-0.7661445141,-5.123591423,8.204929352,38.34883720930233,97.76744186046513,-79.73255813953489,-7855.744186046511,1591.593023255814,-1219.686046511628,0
2024-06-15 11:46:07,-0.07574728876,0.1539380401,-0.6780604124,-3.064578056,-3.823540211,7.584830761,-83.63157894736842,176.2421052631579,-297.22105263157897,-7824.263157894737,1483.5157894736842,-1234.9684210526316,0
2024-06-15 11:46:07,-0.07574728876,0.1539380401,-0.6780604124,-3.064578056,-3.823540211,7.584830761,83.19871794871796,191.698717948718,-301.6923076923077,-7858.871794871795,1478.871794871795,-1567.5897435897436,0
2024-06-15 11:46:08,0.8234463334,-0.4043927789,-0.141720742,-2.288856745,-4.67827034,7.352593422,109.48076923076924,167.98076923076923,-309.38461538461536,-7887.076923076923,1307.076923076923,-1577.8461538461538,0
2024-06-15 11:46:08,-1.425759435,0.4557054639,-0.2712241709,-3.845088005,-6.277596951,9.514557838,-101.19875776397517,-14.273291925465838,-111.87577639751552,-7865.900621118012,1260.7391304347825,-1503.0993788819876,0
2024-06-15 11:46:08,-1.425759435,0.4557054639,-0.2712241709,-3.845088005,-6.277596951,9.514557838,-119.83229813664596,-14.8944099378882,-75.22981366459626,-7856.583850931677,1273.7826086956522,-1512.416149068323,0
2024-06-15 11:46:08,0.3750712574,0.7745771408,-0.7379252315,-2.906560898,-4.493916512,8.183381081,35.93181818181818,48.04545454545455,68.64772727272728,-7827.784090909091,1571.6363636363635,-1426.7954545454545,0
2024-06-15 11:46:08,0.0720821023,0.6426302195,-0.4508185387,-2.925714493,-6.184223175,7.235277653,-123.80898876404494,65.37078651685393,-54.71910112359551,-7870.5842696629215,1245.741573033708,-1451.8426966292134,0
2024-06-15 11:46:08,0.0720821023,0.6426302195,-0.4508185387,-2.925714493,-6.184223175,7.235277653,-65.22222222222223,-151.22222222222223,-61.22222222222222,-7869.111111111111,1632.888888888889,-1631.111111111111,0
2024-06-15 11:46:08,0.07086037099,-0.09529497474,0.1209513173,-3.303998232,-4.958391666,7.991845131,-298.4767441860465,-229.13953488372093,66.09302325581396,-8022.918604651163,1628.313953488372,-1599.0813953488373,0
2024-06-15 11:46:08,0.07086037099,-0.09529497474,0.1209513173,-3.303998232,-4.958391666,7.991845131,-217.1978021978022,-96.54945054945055,51.12087912087912,-7832.758241758242,1563.1978021978025,-1550.2087912087911,0
2024-06-15 11:46:08,-0.1380555481,0.09651670605,0.1368338168,-3.246537447,-6.028599739,7.39808321,119.3370786516854,-78.53932584269663,275.8988764044944,-8075.359550561798,1422.314606741573,-1611.426966292135,0
2024-06-15 11:46:08,-0.3530801237,-0.3762930036,0.4251621962,-3.600879431,-5.58088398,7.304709435,70.23076923076923,-320.46153846153845,124.0,-8049.384615384615,1475.6153846153843,-1575.6153846153843,0
2024-06-15 11:46:09,-0.3530801237,-0.3762930036,0.4251621962,-3.600879431,-5.58088398,7.304709435,-94.6860465116279,-34.97674418604652,327.3255813953488,-7922.186046511628,1576.7325581395348,-1379.6627906976744,0
2024-06-15 11:46:09,0.00244346098,-0.2406809032,-0.1038470939,-2.966415882,-5.05894804,8.520963669,-17.151162790697676,85.96511627906978,363.3255813953488,-7862.709302325581,1482.3720930232555,-1259.4302325581396,0
2024-06-15 11:46:09,0.1649336219,-0.1795943826,0.1844813079,-3.361459255,-5.932831764,7.319074631,268.01149425287355,-244.95402298850576,109.73563218390804,-7846.149425287356,1800.4022988505749,-1270.83908045977,0
2024-06-15 11:46:09,0.1649336219,-0.1795943826,0.1844813079,-3.361459255,-5.932831764,7.319074631,-360.258064516129,31.731182795698924,-94.6774193548387,-7829.89247311828,1906.903225806452,-1558.9462365591398,0
2024-06-15 11:46:09,0.2467895597,-0.2040289938,0.1551597714,-2.693476915,-4.469974518,8.0229702,-360.3375,-328.525,94.7625,-7851.25,1822.0375,-1165.925,0
2024-06-15 11:46:09,0.2467895597,-0.2040289938,0.1551597714,-2.693476915,-4.469974518,8.0229702,91.6346153846154,-278.36538461538464,-350.70512820512823,-7856.5,1861.2692307692307,-1358.6089743589744,0
2024-06-15 11:46:09,0.0293215327,-0.0109955743,-0.01832595654,-2.875436306,-5.305551052,7.496245384,89.71153846153847,-280.28846153846155,-359.6794871794872,-8006.5,1857.423076923077,-1361.8141025641023,0
2024-06-15 11:46:09,-1.042136073,0.235793978,0.4972442985,-3.766079187,-6.50744009,7.572859764,-30.98876404494382,99.57303370786516,70.88764044943821,-7829.932584269663,1490.876404494382,-1369.7078651685392,0
2024-06-15 11:46:09,-1.042136073,0.235793978,0.4972442985,-3.766079187,-6.50744009,7.572859764,-42.67816091954023,-19.367816091954023,-6.52873563218391,-7968.390804597701,1903.8850574712644,-1402.6666666666667,0
2024-06-15 11:46:09,0.3860668242,-0.4019493461,0.7024950385,-2.703053713,-4.601655483,7.812280178,-264.77272727272725,-39.81818181818182,-177.72727272727275,-7857.590909090909,1817.1818181818185,-1231.1818181818182,0
2024-06-15 11:46:10,0.3860668242,-0.4019493461,0.7024950385,-2.703053713,-4.601655483,7.812280178,-121.84269662921348,26.32584269662921,-368.1011235955056,-7860.29213483146,1584.808988764045,-1210.4831460674156,0
2024-06-15 11:46:10,-0.2345722616,0.3029891551,-0.05986479297,-1.800439715,-5.018246651,6.179434776,-226.26436781609195,-75.87356321839081,-323.51724137931035,-7883.517241379311,1615.5632183908046,-1343.6206896551723,0
2024-06-15 11:46:10,0.3836233616,-0.2981022298,-0.6572909951,-6.514622688,-3.60327363,8.300697327,89.89772727272727,-69.70454545454545,-286.28409090909093,-7869.5,1656.3636363636365,-1197.6363636363635,0
2024-06-15 11:46:10,0.3836233616,-0.2981022298,-0.6572909951,-6.514622688,-3.60327363,8.300697327,-318.8588235294118,279.3529411764706,55.8235294117647,-7838.835294117647,1451.8235294117646,-1277.2117647058824,0
2024-06-15 11:46:10,0.2296853364,0.676838696,-0.1820378453,-3.572149038,-4.94402647,6.91445446,-122.06666666666666,21.73333333333333,35.93333333333333,-7878.444444444444,1435.5111111111112,-1266.4888888888888,0
2024-06-15 11:46:10,0.8967501521,-0.03176499158,-0.1588249654,-2.293645144,-4.185064793,9.354146004,-51.230769230769226,80.43956043956044,77.3956043956044,-7830.021978021978,1504.0,-1231.2527472527472,0
2024-06-15 11:46:10,0.8967501521,-0.03176499158,-0.1588249654,-2.293645144,-4.185064793,9.354146004,-412.7865168539326,13.033707865168536,-110.59550561797752,-7865.70786516854,1468.494382022472,-1197.9325842696628,0
2024-06-15 11:46:10,-0.2101376504,-0.1368338168,-0.3433062732,-4.570530891,-5.549759388,8.497021675,-289.0574712643678,-19.18390804597701,-93.75862068965516,-7957.977011494253,1558.632183908046,-1248.735632183908,0
2024-06-15 11:46:10,-0.2101376504,-0.1368338168,-0.3433062732,-4.570530891,-5.549759388,8.497021675,35.38743455497382,293.6125654450262,10.670157068062828,-7829.633507853403,1622.6858638743456,-1251.738219895288,0
2024-06-15 11:46:10,-0.3017674387,-0.08185594529,0.762359798,-4.455609322,-4.927267075,6.713341713,152.1413612565445,276.8586387434555,-49.53926701570681,-7851.623036649215,1641.5340314136126,-1267.4450261780105,0
2024-06-15 11:46:11,0.3090978265,0.07941248268,0.4251621962,-0.8355764151,-5.164293289,10.83376312,59.57333333333334,287.72,-227.7866666666667,-7872.093333333333,1449.9066666666668,-1450.0,0
2024-06-15 11:46:11,0.3090978265,0.07941248268,0.4251621962,-0.8355764151,-5.164293289,10.83376312,-168.3780487804878,66.72560975609755,-277.6707317073171,-7863.707317073171,1274.9573170731708,-1280.8658536585365,0
2024-06-15 11:46:11,-0.334754169,-0.5131267905,-0.2651155293,-3.447650433,-3.895366192,6.598419666,-147.64634146341464,-42.420731707317074,-66.6951219512195,-7853.951219512195,1440.2012195121952,-1443.060975609756,0
2024-06-15 11:46:11,-0.5070181489,-0.1881465018,-0.3982841372,-3.943250179,-5.367800236,9.299078941,86.98823529411764,52.01176470588236,28.34117647058824,-7872.552941176471,1603.5764705882352,-1255.7882352941176,0
2024-06-15 11:46:11,-0.5070181489,-0.1881465018,-0.3982841372,-3.943250179,-5.367800236,9.299078941,-103.06451612903226,15.053763440860209,10.688172043010752,-7860.311827956989,1641.967741935484,-1272.4408602150538,0
2024-06-15 11:46:11,-0.04520402849,0.003665191587,0.4337143302,-4.137180328,-5.997475147,7.364564419,-231.4022988505747,30.40229885057471,-42.19540229885058,-7873.517241379311,1599.8390804597702,-1250.8850574712644,0
2024-06-15 11:46:11,-0.04520402849,0.003665191587,0.4337143302,-4.137180328,-5.997475147,7.364564419,2.8720930232558146,-16.558139534883722,73.44186046511628,-7911.279069767442,1558.2906976744189,-1244.0116279069769,0
2024-06-15 11:46:11,0.2614503205,-0.1331686229,0.37751472,-2.533065319,-4.472368717,8.190564156,-579.2758620689655,94.34482758620688,-190.3448275862069,-8059.137931034483,1457.3793103448277,-1248.5862068965516,0
2024-06-15 11:46:11,-1.837482691,0.428827405,-0.1343903542,-1.8602947,-4.580107689,7.354987621,-534.4090909090909,238.72727272727272,27.284090909090907,-7870.534090909091,1316.0795454545455,-1349.2386363636365,0
2024-06-15 11:46:11,-1.837482691,0.428827405,-0.1343903542,-1.8602947,-4.580107689,7.354987621,73.14606741573033,309.0,87.32584269662921,-7843.7191011235955,1584.3258426966293,-1212.415730337079,0
2024-06-15 11:46:12,0.0171042271,-0.07452555746,-0.3103195429,-4.42209053,-5.16189909,6.473921299,59.242105263157896,209.92631578947368,21.27368421052632,-8007.536842105263,1564.821052631579,-1512.7368421052631,0
2024-06-15 11:46:12,0.0171042271,-0.07452555746,-0.3103195429,-4.034229755,-5.202600479,8.65743351,135.77777777777777,123.1851851851852,321.1851851851852,-7933.555555555556,1472.7037037037037,-1906.2222222222224,0
2024-06-15 11:46:12,-1.237612963,0.283441484,0.1466076523,-4.034229755,-5.202600479,8.65743351,191.28205128205127,-301.03846153846155,63.16666666666666,-7857.423076923077,1510.1666666666667,-1882.128205128205,0
2024-06-15 11:46:12,0.2186897546,0.1404990107,-0.08552113175,-1.934514999,-6.775590897,8.765172005,-25.36956521739131,-275.9021739130435,-56.81521739130434,-8057.771739130435,1417.5760869565215,-1737.7065217391305,0
2024-06-15 11:46:12,0.2186897546,0.1404990107,-0.08552113175,-1.934514999,-6.775590897,8.765172005,18.34883720930233,-144.2093023255814,106.30232558139537,-7952.790697674419,1501.6279069767445,-1604.0697674418604,0
2024-06-15 11:46:12,0.6829473376,0.6108652353,-0.3310889602,-3.998316765,-3.749319792,7.891288757,-168.2840909090909,-152.61363636363637,-73.39772727272727,-7859.113636363636,1511.4204545454545,-1563.2272727272727,0
2024-06-15 11:46:12,0.3445279896,-0.1991420686,-0.5937610269,-4.608838081,-7.371747017,7.982268333,-210.6222222222222,-60.48888888888888,-81.3111111111111,-7838.911111111111,1175.7111111111112,-1175.2444444444443,0
2024-06-15 11:46:12,0.3445279896,-0.1991420686,-0.5937610269,-4.608838081,-7.371747017,7.982268333,27.875,-0.306818181818187,1.3636363636363598,-7991.5,1234.4772727272727,-1531.6931818181818,0
