Timestamp,Gyro_x_x,Gyro_y_x,Gyro_z_x,Acc_x_x,Acc_y_x,Acc_z_x,Gyro_x_y,Gyro_y_y,Gyro_z_y,Acc_x_y,Acc_y_y,Acc_z_y,combined_action_num
2024-06-15 14:12:39,0.2687807083,0.06108652428,0.669508338,10.27591324,-0.7374141216,2.521094322,-290.8235294117647,111.82352941176472,181.41176470588235,-7151.64705882353,-3695.8823529411766,2873.823529411765,10
2024-06-15 14:12:40,0.8271115422,-0.1319468915,0.2101376504,9.39484787,-0.7326257229,2.655169725,8.842696629213483,-75.80898876404494,471.43820224719104,-7425.078651685393,-3642.629213483146,2856.1011235955057,10
2024-06-15 14:12:40,-0.2138028294,-0.17715092,0.003665191587,9.203310966,-1.972822189,3.181894064,47.2,-73.0,871.6,-7497.0,-3220.4,2850.4,10
2024-06-15 14:12:40,-0.2138028294,-0.17715092,0.003665191587,9.203310966,-1.972822189,3.181894064,-286.989010989011,-40.03296703296704,472.5824175824176,-7382.461538461538,-2955.4065934065934,2842.703296703297,10
2024-06-15 14:12:40,-0.5681046844,0.719599247,1.254717231,10.05325317,-4.697423935,3.713406801,-861.6746987951807,237.132530120482,769.5180722891566,-7690.253012048192,-2824.7951807228915,2859.903614457832,10
2024-06-15 14:12:40,-0.5681046844,0.719599247,1.254717231,10.05325317,-4.697423935,3.713406801,-1579.0,297.53932584269666,975.2247191011236,-7719.516853932584,-2836.6404494382023,2581.8651685393256,10
2024-06-15 14:12:40,-2.783102036,1.080009699,1.345125318,7.469909191,-6.744466305,3.066972494,-1828.136363636364,207.20454545454544,706.8636363636364,-7581.590909090909,-2860.840909090909,2331.7727272727275,10
2024-06-15 14:12:40,-0.2956587672,0.287106663,0.8014551997,6.186617374,-7.659051418,2.8993783,-1932.76404494382,-328.2247191011236,775.5730337078652,-7606.943820224719,-2717.2921348314608,2330.94382022472,10
2024-06-15 14:12:40,-0.2956587672,0.287106663,0.8014551997,6.186617374,-7.659051418,2.8993783,-1754.6,78.66666666666666,888.4333333333333,-7568.3,-2935.766666666667,1983.733333333333,10
2024-06-15 14:12:40,0.9981538057,-0.02076941915,0.1722639948,6.088454723,-7.484274387,2.817975283,-1092.2673267326732,232.8118811881188,785.1386138613861,-7816.128712871287,-2668.6435643564355,2139.70297029703,10
2024-06-15 14:12:40,0.9981538057,-0.02076941915,0.1722639948,6.088454723,-7.484274387,2.817975283,-903.3214285714286,84.39285714285714,517.5714285714286,-7989.142857142857,-2491.785714285714,1974.107142857143,10
2024-06-15 14:12:41,0.4068362415,-0.1930334121,-0.2260201424,6.627150536,-6.641515732,2.494758129,-637.25,-51.91666666666666,572.3333333333334,-7915.333333333333,-2452.5,1768.75,10
2024-06-15 14:12:41,-0.1123992056,-0.1857030392,-0.09285151958,6.339846134,-7.347805023,3.438073635,424.2,-193.6,19.46666666666667,-8024.866666666667,-2329.133333333333,2003.8,10
2024-06-15 14:12:41,-0.1123992056,-0.1857030392,-0.09285151958,6.339846134,-7.347805023,3.438073635,107.03370786516854,39.12359550561798,40.8876404494382,-8011.561797752809,-2345.438202247191,2351.8426966292136,10
2024-06-15 14:12:41,-0.8234463334,0.04520402849,-0.04886921868,6.217741966,-6.287173748,3.256114244,57.91011235955056,-111.561797752809,-49.46067415730337,-8044.426966292135,-2370.887640449438,2346.7865168539324,10
2024-06-15 14:12:41,0.0232128799,0.1001819,-0.1331686229,6.485892296,-7.115567684,2.987963676,200.77272727272725,-57.59090909090909,143.47727272727272,-7967.590909090909,-2328.7272727272725,2337.1363636363635,10
2024-06-15 14:12:41,0.0232128799,0.1001819,-0.1331686229,6.485892296,-7.115567684,2.987963676,-117.37078651685394,64.0561797752809,209.06741573033707,-7931.61797752809,-2158.7078651685392,2174.6516853932585,10
2024-06-15 14:12:41,-0.3127630055,0.1356120855,-0.05009094998,6.775590897,-7.216124058,3.078943491,-253.123595505618,65.91011235955057,288.1573033707865,-7834.820224719101,-1975.1573033707864,2013.1573033707864,10
2024-06-15 14:12:41,0.3457497358,0.1295034289,0.1942551434,6.7612257,-7.287950039,3.636792421,-253.3333333333333,88.33333333333334,-27.666666666666668,-7813.0,-2027.3333333333333,2130.6666666666665,10
2024-06-15 14:12:41,0.3457497358,0.1295034289,0.1942551434,6.7612257,-7.287950039,3.636792421,47.241379310344826,70.37931034482759,217.24137931034485,-7851.758620689655,-1960.896551724138,2036.0344827586207,10
2024-06-15 14:12:41,0.2651155293,-0.03420845419,0.2638937831,7.242460251,-8.051700592,3.078943491,116.29545454545456,-88.79545454545453,344.52272727272725,-7874.954545454545,-2067.0227272727275,2040.590909090909,10
2024-06-15 14:12:42,0.01588249579,0.04398229718,1.067792416,6.234501362,-8.355764389,3.430891037,-96.75862068965516,-51.94252873563218,113.39080459770116,-7862.793103448276,-1692.8850574712644,2024.850574712644,10
2024-06-15 14:12:42,0.17715092,0.09651670605,1.363451242,3.912125587,-9.416395187,4.616020679,57.38636363636363,195.54545454545456,38.77272727272727,-7989.431818181818,-1706.4772727272727,2001.6136363636365,10
2024-06-15 14:12:42,0.17715092,0.09651670605,1.363451242,3.912125587,-9.416395187,4.616020679,88.08988764044943,-74.65168539325843,27.752808988764045,-7916.0,-1733.438202247191,2010.1797752808989,10
2024-06-15 14:12:42,-0.08307767659,0.4654793143,1.424537778,1.563413739,-9.466673851,4.189853191,92.561797752809,-45.25842696629213,-93.65168539325842,-7914.370786516853,-1796.494382022472,1997.3932584269664,10
2024-06-15 14:12:42,-0.08307767659,0.4654793143,1.424537778,1.563413739,-9.466673851,4.189853191,46.7037037037037,-24.14814814814815,-43.07407407407408,-7928.296296296296,-1891.5925925925928,1979.0,10
2024-06-15 14:12:42,0.2748893499,0.4703662395,1.200961113,-0.5985504389,-8.485051155,3.56736064,-413.52,111.52,221.0,-8206.853333333333,-1814.6933333333327,1976.253333333333,10
2024-06-15 14:12:42,-0.1478293836,0.1380555481,1.075122833,-2.916137695,-8.798690796,4.683058739,-819.2823529411764,83.61176470588235,435.1058823529412,-8206.788235294118,-1588.023529411765,1926.2941176470588,10
2024-06-15 14:12:42,-0.1478293836,0.1380555481,1.075122833,-2.916137695,-8.798690796,4.683058739,-1030.4545454545455,-31.454545454545453,857.4431818181818,-8249.5,-1444.7386363636365,2115.465909090909,10
2024-06-15 14:12:43,0.7574729323,-0.2089159191,0.8356636763,-4.604049683,-6.052541733,5.468356609,-182.9333333333333,-281.26666666666665,560.9333333333333,-8089.466666666666,-1183.5333333333333,2058.0666666666666,10
2024-06-15 14:12:43,0.7574729323,-0.2089159191,0.8356636763,-4.604049683,-6.052541733,5.468356609,-859.2159090909091,-237.375,300.6363636363636,-8274.806818181818,-1219.3295454545455,2107.579545454545,10
2024-06-15 14:12:43,0.428827405,-0.2883284092,0.6585127115,-5.075707436,-4.939238071,6.078877926,-692.056179775281,-347.1348314606741,413.2808988764045,-8296.314606741573,-1003.5168539325842,2100.0337078651687,10
2024-06-15 14:12:43,0.428827405,-0.2883284092,0.6585127115,-5.075707436,-4.939238071,6.078877926,-426.0337078651685,-169.34831460674158,616.9550561797753,-8460.494382022473,-1108.2247191011236,2127.078651685393,10
2024-06-15 14:12:43,0.2260201424,-0.3543018401,0.5241223574,-5.216965675,-4.50109911,6.943184853,-109.74157303370784,-408.1123595505618,827.0674157303371,-8370.044943820225,-857.1011235955057,2086.629213483146,10
2024-06-15 14:12:43,0.3567453027,-0.2443460971,0.381179899,-4.800374508,-3.062183857,7.491456985,190.8275862068965,-162.0,577.5172413793103,-8243.379310344828,-796.7586206896551,2187.896551724138,10
2024-06-15 14:12:43,0.3567453027,-0.2443460971,0.381179899,-4.800374508,-3.062183857,7.491456985,270.9021739130435,-190.1086956521739,733.1847826086956,-8144.130434782609,-539.2608695652174,2237.0652173913045,10
2024-06-15 14:12:43,0.3543018401,-0.1747074574,0.248011291,-4.809951305,-2.710236311,7.790732384,12.42857142857143,-749.25,513.8214285714286,-8094.357142857143,49.60714285714283,2584.1071428571427,10
2024-06-15 14:12:43,0.3237585723,-0.06230825558,0.2492330223,-4.809951305,-2.288856745,7.910442352,-607.375,-212.0,311.875,-8261.875,-136.625,2845.125,10
2024-06-15 14:12:44,0.1795943826,-0.02565634064,0.09040805697,-4.745307922,-1.541865945,8.109161377,-231.5315315315316,-173.06306306306303,-35.95495495495496,-8225.0990990991,-314.05405405405406,2868.900900900901,10
2024-06-15 14:12:44,0.3555235863,-0.03420845419,0.01466076635,-4.920084476,-1.259350061,8.231265068,132.25,-197.5,-234.75,-8168.0,22.5,2728.25,10
2024-06-15 14:12:44,0.3555235863,-0.03420845419,0.01466076635,-4.920084476,-1.259350061,8.231265068,287.5157894736842,-196.9368421052632,-119.30526315789471,-7898.715789473684,299.9368421052632,2761.810526315789,10
2024-06-15 14:12:44,0.3213151097,-0.02565634064,0.04276056588,-4.826710701,-1.11569798,8.50420475,150.05882352941177,235.2,-464.52941176470586,-8230.164705882353,-56.1764705882353,2842.9882352941177,10
2024-06-15 14:12:44,0.3213151097,-0.02565634064,0.04276056588,-4.826710701,-1.11569798,8.50420475,-57.13186813186813,279.7912087912088,-806.0989010989011,-8288.384615384615,25.89010989010989,2915.3076923076924,10
2024-06-15 14:12:44,0.1893682331,0.03665191308,0.06475171447,-5.023035049,-0.7110779285,8.32463932,-375.72093023255815,203.9651162790697,-564.3255813953489,-7935.558139534884,40.68604651162791,2751.360465116279,10
2024-06-15 14:12:44,0.3689626157,-0.009773843922,0.07086037099,-5.102043629,0.06224924326,8.429984093,-1049.551724137931,803.0459770114942,-775.7126436781609,-7881.735632183908,-491.0804597701149,2534.448275862069,10
2024-06-15 14:12:44,0.3689626157,-0.009773843922,0.07086037099,-5.102043629,0.06224924326,8.429984093,-513.6666666666666,730.0444444444445,-673.8222222222222,-8266.288888888888,-1093.3777777777775,2315.866666666667,10
2024-06-15 14:12:44,0.3616322279,-0.0232128799,0.06597344577,-4.912901878,0.5075707436,8.221688271,-323.6703296703297,710.8131868131868,-808.945054945055,-8091.10989010989,-939.89010989011,1961.901098901099,10
2024-06-15 14:12:44,0.3616322279,-0.0232128799,0.06597344577,-4.912901878,0.5075707436,8.221688271,-152.52272727272725,696.6022727272727,-526.0795454545455,-8106.431818181818,-1314.840909090909,2141.0,10
2024-06-15 14:12:45,0.2577851415,-0.03176499158,0.04276056588,-4.955997467,0.9983820915,8.166622162,1816.5238095238096,1081.8809523809523,-400.5952380952381,-8125.142857142857,-1476.1666666666667,1841.6666666666667,10
2024-06-15 14:12:45,0.2541199327,0.02076941915,0.04886921868,-4.960785866,1.393425345,8.250418663,3471.862068965517,927.2068965517242,-556.3793103448276,-8544.655172413793,-1177.103448275862,1652.0689655172414,10
2024-06-15 14:12:45,0.2541199327,0.02076941915,0.04886921868,-4.960785866,1.393425345,8.250418663,3849.119565217392,602.5,-542.6195652173913,-8155.804347826087,-1032.2282608695652,1522.836956521739,10
2024-06-15 14:12:45,0.2638937831,-0.02443460934,0.00244346098,-4.848258495,1.644816518,8.142680168,3725.14606741573,560.7865168539325,-591.8202247191011,-8158.595505617977,-860.0898876404494,1442.202247191011,10
2024-06-15 14:12:45,0.3274237812,0.0354301855,0.0293215327,-4.898536682,1.872265697,8.044517517,651.3614457831326,5.433734939759034,-283.9759036144578,-8233.77108433735,-678.3614457831325,1521.0722891566263,10
2024-06-15 14:12:45,0.3274237812,0.0354301855,0.0293215327,-4.898536682,1.872265697,8.044517517,38.39999999999998,-149.9111111111111,-284.26666666666665,-8292.422222222222,-1073.888888888889,1912.4888888888888,10
2024-06-15 14:12:45,0.1014036313,-0.02443460934,-0.00122173049,-4.991910458,2.358288765,7.750030994,-527.0,63.66666666666666,64.33333333333334,-8130.666666666667,-1078.3333333333333,1879.3333333333333,10
2024-06-15 14:12:45,0.01343903504,-0.02199114859,0.02809980139,-4.802768707,1.826775908,7.924807549,-931.7787610619469,18.513274336283185,261.0973451327434,-8184.699115044248,-1098.5398230088497,1831.699115044248,10
2024-06-15 14:12:45,0.01343903504,-0.02199114859,0.02809980139,-4.802768707,1.826775908,7.924807549,-1292.3255813953488,-294.7906976744186,72.63953488372093,-8133.023255813953,-1069.5,1827.953488372093,10
2024-06-15 14:12:45,-0.338419348,-0.04764748737,-0.05253441259,-4.872200489,2.456450939,7.479485989,-981.8539325842696,-558.2471910112359,-270.23595505617976,-8095.797752808989,-986.9887640449438,1677.191011235955,10
2024-06-15 14:12:46,-0.338419348,-0.04764748737,-0.05253441259,-4.872200489,2.456450939,7.479485989,-891.1704545454545,-547.7954545454545,-338.1136363636364,-8071.534090909091,-1285.3295454545455,1755.1022727272727,10
2024-06-15 14:12:46,-1.484402537,-0.07330382615,-0.1698205322,-4.647145271,0.5841852427,7.848193169,-696.876404494382,-557.8426966292135,-378.5730337078652,-8281.831460674157,-1327.1797752808989,2117.483146067416,10
2024-06-15 14:12:46,-1.797165513,0.1331686229,-0.09529497474,-4.862623692,-0.6799532771,7.982268333,-1086.655172413793,-193.0,-537.551724137931,-8255.103448275862,-1174.103448275862,1984.9310344827584,10
2024-06-15 14:12:46,-1.797165513,0.1331686229,-0.09529497474,-4.862623692,-0.6799532771,7.982268333,-1229.2272727272727,-332.9545454545455,-235.04545454545456,-8221.420454545454,-1514.215909090909,1984.2272727272727,10
2024-06-15 14:12:46,-2.072054863,0.3518583775,0.1368338168,-4.525041103,-3.543418407,6.081272125,-1215.685393258427,-9.853932584269671,132.47191011235955,-8229.134831460675,-1460.1573033707866,2117.247191011236,10
2024-06-15 14:12:46,-2.072054863,0.3518583775,0.1368338168,-4.525041103,-3.543418407,6.081272125,-788.3483146067416,265.08988764044943,773.629213483146,-8074.460674157303,-1561.4831460674156,2098.921348314607,10
2024-06-15 14:12:46,-0.6585127115,1.067792416,-0.235793978,-4.683058739,-4.252102375,4.096478939,-132.1264367816092,-311.735632183908,168.45977011494253,-8103.83908045977,-1300.448275862069,2153.712643678161,10
2024-06-15 14:12:46,0.1404990107,1.015258074,-1.588249683,-4.929661274,-5.705382824,3.34469986,-15.0,84.6,360.4,-8278.6,-1220.2,1958.6,10
2024-06-15 14:12:46,0.1404990107,1.015258074,-1.588249683,-4.929661274,-5.705382824,3.34469986,143.59550561797752,80.62921348314606,314.23595505617976,-8083.955056179775,-1226.7752808988764,2133.887640449438,10
2024-06-15 14:12:46,0.4080579877,0.1869247705,-2.010968447,-3.296815634,-10.9103775,3.912125587,-208.66666666666669,31.8,411.06666666666666,-8079.2,-945.1333333333332,2111.6666666666665,10
2024-06-15 14:12:47,-0.7012733221,-0.3665191531,-0.9688322544,-2.470816135,-9.804255486,4.647145271,-322.70786516853934,43.30337078651685,255.92134831460675,-8072.0,-749.0,1921.573033707865,10
2024-06-15 14:12:47,-0.7012733221,-0.3665191531,-0.9688322544,-2.470816135,-9.804255486,4.647145271,147.65168539325845,24.235955056179776,308.685393258427,-8072.539325842697,-1024.7640449438202,1938.5393258426968,10
2024-06-15 14:12:47,-0.1759291887,-0.06475171447,0.08552113175,-1.872265697,-10.07958889,3.462015629,742.8938053097345,224.20353982300884,216.83185840707964,-8180.442477876106,-848.433628318584,2097.1238938053098,10
2024-06-15 14:12:47,-0.1759291887,-0.06475171447,0.08552113175,-1.872265697,-10.07958889,3.462015629,367.44444444444446,-165.8888888888889,224.22222222222223,-8120.666666666667,-458.77777777777777,2130.555555555556,10
2024-06-15 14:12:47,0.1490511149,0.05497787148,0.1624901593,-1.714248419,-8.815450668,3.296815634,-559.4943820224719,-558.5280898876405,542.7865168539325,-8093.752808988764,-521.6629213483146,2082.2921348314608,10
2024-06-15 14:12:47,0.1490511149,0.05497787148,0.1624901593,-1.714248419,-8.815450668,3.296815634,-580.685393258427,-526.5393258426966,742.7191011235955,-8129.303370786517,-316.60674157303373,2216.5280898876404,10
2024-06-15 14:12:47,0.009773843922,0.007330383174,0.009773843922,-2.068590164,-8.997409821,3.366247654,-485.82022471910113,-797.1685393258427,510.5168539325842,-8159.011235955056,-167.03370786516854,2371.044943820225,10
2024-06-15 14:12:47,0.03665191308,-0.01588249579,0.1087340117,-2.224213362,-9.370905876,3.737348795,-186.68604651162792,-811.8953488372093,551.0813953488372,-7903.813953488372,100.96511627906978,2910.267441860465,10
2024-06-15 14:12:47,0.03665191308,-0.01588249579,0.1087340117,-2.224213362,-9.370905876,3.737348795,-230.2258064516129,-452.86021505376345,542.8924731182796,-8085.516129032258,317.55913978494624,2820.6774193548385,10
2024-06-15 14:12:48,0.09285151958,-0.02076941915,0.3567453027,-2.82036972,-9.332598686,4.012681961,-152.23529411764707,-530.5058823529412,303.8235294117647,-8229.482352941177,440.4,3124.070588235294,10
2024-06-15 14:12:48,0.09285151958,-0.02076941915,0.3567453027,-2.82036972,-9.332598686,4.012681961,-351.8426966292135,-176.53932584269663,-105.52808988764043,-7873.348314606742,476.46067415730334,2951.044943820225,10
2024-06-15 14:12:48,0.1637118906,-0.02199114859,0.7367035151,-3.45722723,-9.196128845,3.876212597,-779.978947368421,30.08421052631581,-740.0842105263158,-8017.021052631579,524.3894736842105,2954.863157894737,10
2024-06-15 14:12:48,-0.1380555481,-0.1600466967,0.8686503768,-4.398148537,-8.690952301,3.701435804,-435.6666666666667,178.03333333333333,-740.4666666666667,-8184.988888888889,-343.43333333333334,3090.6444444444446,10
2024-06-15 14:12:48,-0.08185594529,-0.4019493461,0.8503243923,-5.123591423,-7.481880188,3.653551817,-93.9090909090909,299.77272727272725,-744.4545454545455,-8050.136363636364,-421.04545454545456,3005.0,10
2024-06-15 14:12:48,-0.4190535545,-0.4911356568,0.48014009,-5.559336185,-7.204153061,3.505111217,309.03370786516854,759.7977528089888,-391.9213483146068,-7985.977528089887,-504.3932584269663,2643.741573033708,10
2024-06-15 14:12:48,-0.4190535545,-0.4911356568,0.48014009,-5.559336185,-7.204153061,3.505111217,277.5730337078652,699.5168539325842,-95.3370786516854,-8300.292134831461,-408.5505617977528,2510.5955056179773,10
2024-06-15 14:12:48,0.6218608022,-0.5009095073,0.5265658498,-5.705382824,-6.643909931,4.261679173,220.15533980582524,769.2038834951456,-365.8155339805825,-8280.786407766991,-364.2912621359224,2257.8155339805826,10
2024-06-15 14:12:48,0.6218608022,-0.5009095073,0.5265658498,-5.705382824,-6.643909931,4.261679173,256.1351351351351,809.7027027027027,-750.6216216216217,-8294.918918918918,-757.8108108108108,2311.5675675675675,10
2024-06-15 14:12:49,0.8014551997,-0.4019493461,0.3946189582,-5.710171223,-5.473145008,5.516240597,708.3846153846154,988.9010989010987,-744.7142857142857,-8098.285714285715,-1032.3406593406594,2064.1428571428573,10
2024-06-15 14:12:49,0.5632177591,-0.2663372457,0.2626720667,-5.691017628,-4.170699596,6.184223175,1222.7078651685392,927.8876404494382,-915.6067415730336,-8110.247191011236,-1280.876404494382,1788.2359550561798,10
2024-06-15 14:12:49,0.5632177591,-0.2663372457,0.2626720667,-5.691017628,-4.170699596,6.184223175,1857.511363636364,488.29545454545456,-793.4090909090909,-8506.96590909091,-1223.0681818181818,1213.0,10
2024-06-15 14:12:49,0.4508185387,-0.09651670605,0.2015855312,-5.547365189,-3.241749048,6.488286495,2110.4444444444443,166.66666666666666,-549.8888888888889,-8503.111111111111,-1219.4444444444443,1268.888888888889,10
2024-06-15 14:12:49,0.2895501256,-0.06475171447,0.08552113175,-5.832275391,-3.201047659,6.950367451,2013.4022988505749,-67.13793103448276,-536.0344827586207,-8142.712643678161,-1336.7701149425288,1596.7701149425288,10
2024-06-15 14:12:49,0.2895501256,-0.06475171447,0.08552113175,-5.832275391,-3.201047659,6.950367451,1802.3932584269664,-233.41573033707863,-451.6179775280899,-8356.606741573034,-944.0,1465.808988764045,10
2024-06-15 14:12:49,0.3469714522,-0.07819075137,0.1685988009,-6.042964935,-2.808398485,7.307103634,798.9782608695652,-535.8152173913044,-524.25,-8180.282608695652,-1134.8260869565215,1885.5108695652173,10
2024-06-15 14:12:49,0.2419026345,-0.07819075137,0.1038470939,-5.899312973,-2.066195965,7.390900612,363.09411764705885,-599.6941176470589,-619.4,-8281.176470588236,-1244.2823529411764,1843.3647058823528,10
2024-06-15 14:12:49,0.2419026345,-0.07819075137,0.1038470939,-5.899312973,-2.066195965,7.390900612,-169.35227272727275,-626.1363636363636,-422.0340909090909,-8256.693181818182,-1243.25,2115.943181818182,10
2024-06-15 14:12:49,0.2223549485,-0.08063421398,0.07696902007,-5.777208805,-1.575384736,7.501033783,-614.978021978022,-578.7362637362637,-719.5604395604396,-8262.967032967033,-1452.4175824175825,2159.043956043956,10
2024-06-15 14:12:50,0.2223549485,-0.08063421398,0.07696902007,-5.777208805,-1.575384736,7.501033783,-779.2068965517242,-424.1954022988506,-1090.344827586207,-8234.137931034482,-1778.735632183908,1965.2988505747128,10
2024-06-15 14:12:50,0.3408628106,-0.06597344577,0.1087340117,-5.841852188,-1.288080573,7.754819393,-668.0795454545455,-878.6477272727273,-1063.1704545454545,-7817.613636363636,-2149.1022727272725,2387.7954545454545,10
2024-06-15 14:12:50,0.2015855312,-0.03176499158,0.09040805697,-5.750872612,-0.7805097699,7.726089001,-862.7906976744187,-503.1627906976744,-1046.7441860465117,-7946.279069767442,-2343.813953488372,2253.906976744186,10
2024-06-15 14:12:50,0.2015855312,-0.03176499158,0.09040805697,-5.750872612,-0.7805097699,7.726089001,-450.9380530973451,-619.6548672566372,-990.6548672566372,-7652.008849557522,-2633.070796460177,2593.690265486726,10
2024-06-15 14:12:50,0.1808161139,-0.0293215327,0.05253441259,-5.679046631,-0.2753331959,7.807491779,-243.40449438202248,-628.4606741573034,-963.1797752808988,-7725.730337078651,-2917.179775280899,2460.449438202247,10
2024-06-15 14:12:50,0.1808161139,-0.0293215327,0.05253441259,-5.679046631,-0.2753331959,7.807491779,-414.1931818181818,-857.9886363636364,-857.8977272727273,-7759.829545454545,-2758.931818181818,2500.806818181818,10
2024-06-15 14:12:50,0.3396410644,-0.003665191587,0.05986479297,-5.679046631,0.2801215947,7.979874134,-546.2359550561798,-509.2022471910112,-718.8426966292135,-7082.528089887641,-3278.1011235955057,2757.9775280898875,10
2024-06-15 14:12:50,0.3396410644,-0.003665191587,0.05986479297,-5.679046631,0.2801215947,7.979874134,-398.0344827586207,-356.65517241379314,-730.7241379310345,-7107.862068965517,-3649.896551724138,2751.896551724138,10
2024-06-15 14:12:50,0.2602286041,0.00122173049,0.05742133409,-5.631162167,0.5003881454,7.721300602,-366.6705882352941,-374.2470588235294,-509.6,-7473.858823529412,-3595.9058823529413,2743.423529411765,10
2024-06-15 14:12:51,0.125838235,-0.00122173049,0.03298672289,-5.552153587,0.7374141216,7.697358608,-479.13483146067415,-207.6292134831461,-835.6179775280899,-7254.483146067416,-3545.38202247191,2798.966292134832,10
2024-06-15 14:12:51,0.125838235,-0.00122173049,0.03298672289,-5.552153587,0.7374141216,7.697358608,-413.6896551724138,-166.10344827586206,-703.4827586206897,-7162.827586206897,-3752.896551724138,2839.793103448276,10
2024-06-15 14:12:51,0.2101376504,0.004886921961,0.04520402849,-5.726930618,0.758961916,7.714118004,-180.8988764044944,-169.12359550561797,-730.5842696629213,-6922.449438202248,-4162.494382022472,3082.876404494382,10
2024-06-15 14:12:51,0.1820378453,0.003665191587,0.01588249579,-5.614402771,1.316810966,7.773972988,-229.75,-343.4021739130435,-848.0434782608696,-6954.130434782609,-4109.0,3105.467391304348,10
2024-06-15 14:12:51,0.1820378453,0.003665191587,0.01588249579,-5.614402771,1.316810966,7.773972988,34.576470588235296,-149.95294117647057,-698.9176470588235,-6612.635294117647,-4437.576470588236,3144.658823529412,10
2024-06-15 14:12:51,0.03176499158,0.0,0.009773843922,-5.748478413,1.146822572,7.781155586,-138.66666666666666,53.577777777777776,-782.2666666666667,-6618.155555555555,-4478.422222222222,3133.133333333333,10
2024-06-15 14:12:51,0.03176499158,0.0,0.009773843922,-5.748478413,1.146822572,7.781155586,-143.0108695652174,-367.19565217391306,-837.0,-6676.25,-4663.423913043478,3143.6304347826085,10
2024-06-15 14:12:51,0.08185594529,0.01221730467,0.02809980139,-5.600037575,1.261744261,7.800309181,-337.9767441860465,-145.74418604651163,-682.2325581395348,-6382.0,-4587.720930232558,3164.953488372093,10
2024-06-15 14:12:51,-0.05375614017,0.00122173049,-0.009773843922,-5.590460777,1.383848548,7.627926826,1.752808988764059,17.28089887640448,-763.9775280898876,-6302.820224719101,-4857.786516853933,3162.8988764044943,10
2024-06-15 14:12:51,-0.05375614017,0.00122173049,-0.009773843922,-5.590460777,1.383848548,7.627926826,12.376146788990829,-306.6330275229358,-1035.9449541284405,-6273.798165137615,-4968.504587155963,3181.02752293578,10
2024-06-15 14:12:52,-0.0109955743,-0.0171042271,-0.04764748737,-5.64313364,1.460463047,7.582436562,-250.7037037037037,-373.8888888888889,-1030.5185185185185,-6166.740740740741,-4803.888888888889,2967.333333333333,10
2024-06-15 14:12:52,-0.3469714522,-0.06108652428,-0.08552113175,-5.489904404,1.383848548,7.175422668,23.50588235294118,89.74117647058823,-890.6705882352941,-5876.941176470588,-5155.7411764705885,2997.788235294118,10
2024-06-15 14:12:52,-0.3469714522,-0.06108652428,-0.08552113175,-5.489904404,1.383848548,7.175422668,74.06593406593407,-72.5164835164835,-825.9230769230769,-6063.0989010989015,-5409.219780219781,2986.4065934065934,10
2024-06-15 14:12:52,-1.555262923,0.0415388383,-0.1673770845,-5.305551052,0.1005564705,6.892906666,-131.41379310344828,-266.0689655172414,-788.5862068965517,-5881.172413793103,-5474.724137931034,3006.3793103448274,10
2024-06-15 14:12:52,-1.555262923,0.0415388383,-0.1673770845,-5.305551052,0.1005564705,6.892906666,-294.4269662921348,-352.1123595505618,-684.2134831460673,-5621.573033707865,-5335.134831460674,3033.85393258427,10
2024-06-15 14:12:52,-1.665218711,0.125838235,-0.2186897546,-5.485116005,-2.363077164,6.931213856,-304.4831460674157,-304.08988764044943,-831.2528089887641,-5595.786516853933,-5657.449438202248,3048.0,10
2024-06-15 14:12:52,-1.197295904,0.7440338731,-0.283441484,-5.128379822,-3.653551817,5.549759388,-312.7333333333333,-166.9777777777778,-847.3,-5539.855555555556,-5683.144444444444,3048.0,10
2024-06-15 14:12:52,-1.197295904,0.7440338731,-0.283441484,-5.128379822,-3.653551817,5.549759388,-309.9166666666667,-218.0833333333333,-1077.0,-5392.666666666667,-5548.166666666667,3331.0,10
2024-06-15 14:12:52,-0.4239404798,0.8930850029,-1.027475357,-5.188235283,-6.387730122,3.981557369,-135.50574712643677,-392.41379310344826,-960.5862068965516,-5394.459770114942,-5766.413793103448,3354.2183908045977,10
2024-06-15 14:12:52,0.2150245607,0.09285151958,-1.96698606,-5.013458252,-8.492233276,5.104437828,28.46666666666667,-540.8666666666667,-960.0666666666668,-5164.866666666667,-6163.866666666667,3425.733333333333,10
2024-06-15 14:12:53,0.2150245607,0.09285151958,-1.96698606,-5.013458252,-8.492233276,5.104437828,-308.1847826086956,-557.7608695652174,-1102.5978260869565,-4795.782608695652,-6219.413043478261,3219.5978260869565,10
2024-06-15 14:12:53,-0.5925393105,-0.4581489265,-1.506393671,-3.289633036,-10.16817474,4.637568474,-334.54117647058825,-232.7764705882353,-705.9411764705883,-4760.164705882353,-6429.505882352942,3254.6823529411763,10
2024-06-15 14:12:53,-0.5925393105,-0.4581489265,-1.506393671,-3.289633036,-10.16817474,4.637568474,-309.38461538461536,-371.46153846153845,-860.2307692307693,-4669.692307692308,-6394.846153846154,3260.538461538461,10
2024-06-15 14:12:53,-0.216246292,-0.3335324228,-0.3677408695,-2.384624958,-10.38365269,3.706224203,-360.4318181818182,-526.8409090909091,-681.7727272727273,-4267.0,-6310.386363636364,3308.5454545454545,10
2024-06-15 14:12:53,0.03298672289,-0.3469714522,0.3787364662,-1.201889277,-9.514557838,3.440467834,-268.5964912280702,-558.3684210526316,-920.2982456140352,-4318.736842105263,-6506.350877192983,3461.561403508772,10
2024-06-15 14:12:53,0.03298672289,-0.3469714522,0.3787364662,-1.201889277,-9.514557838,3.440467834,-311.4761904761905,-295.25396825396825,-1351.111111111111,-4115.0,-6559.68253968254,3320.3809523809523,10
2024-06-15 14:12:53,-0.3445279896,-0.3567453027,0.2296853364,-1.012747288,-9.466673851,3.23456645,-286.0444444444444,-238.64444444444445,-1350.2888888888888,-3793.955555555556,-6609.155555555555,3600.7555555555555,10
2024-06-15 14:12:53,0.08796459436,-0.235793978,0.009773843922,-1.185129881,-9.749189377,2.695871115,-207.8901098901099,-464.2087912087912,-1099.3956043956043,-3670.3736263736255,-6803.989010989011,3615.395604395605,10
2024-06-15 14:12:53,0.08796459436,-0.235793978,0.009773843922,-1.185129881,-9.749189377,2.695871115,-314.55555555555554,-408.9259259259259,-984.7037037037036,-3386.814814814815,-7201.555555555556,3337.814814814815,10
2024-06-15 14:12:53,-0.2504547536,-0.6475171447,-0.1001819,-0.6943184733,-9.129091263,3.651157618,-239.9090909090909,-844.5454545454545,-928.181818181818,-3007.090909090909,-7253.454545454545,3671.545454545456,10
2024-06-15 14:12:54,-0.2504547536,-0.6475171447,-0.1001819,-0.6943184733,-9.129091263,3.651157618,-345.2758620689655,-492.4827586206897,-993.3793103448276,-2773.448275862069,-7127.758620689655,3700.689655172414,10
2024-06-15 14:12:54,0.1282816976,-0.1832595766,0.08307767659,-0.2202665508,-9.631873131,3.349488258,-300.5806451612903,-505.06451612903226,-829.258064516129,-2682.0,-7093.290322580645,3598.4193548387098,10
2024-06-15 14:12:54,-0.1685988009,-0.1942551434,-0.06963863969,-0.1580173075,-9.10036087,3.744531393,-346.5977011494253,-396.9770114942529,-780.7701149425287,-2572.620689655173,-7295.448275862069,3493.7816091954023,10
2024-06-15 14:12:54,-0.1685988009,-0.1942551434,-0.06963863969,-0.1580173075,-9.10036087,3.744531393,-366.6966292134832,-340.7415730337079,-583.0674157303371,-2343.258426966292,-7477.61797752809,3475.516853932584,10
2024-06-15 14:12:54,0.05375614017,-0.08429940045,-0.2113593817,-0.3112462163,-9.449913979,3.751713991,-38.79310344827587,-273.1379310344828,-324.1034482758621,-2079.137931034483,-7323.206896551724,3690.137931034483,10
2024-06-15 14:12:54,0.1404990107,0.1319468915,0.1282816976,-0.3854664862,-9.052476883,3.643975019,-298.55555555555554,91.05555555555554,-88.44444444444446,-2311.1666666666665,-7305.277777777777,3684.1111111111113,10
2024-06-15 14:12:54,0.1404990107,0.1319468915,0.1282816976,-0.3854664862,-9.052476883,3.643975019,40.02272727272727,153.01136363636363,585.1136363636364,-2416.840909090909,-7522.875,3682.806818181818,10
2024-06-15 14:12:54,-0.1466076523,0.1905899495,-0.02199114859,-0.6488286853,-9.313444138,3.706224203,117.0,833.6666666666666,1294.5,-2280.6666666666665,-7321.666666666667,3514.833333333333,10
2024-06-15 14:12:54,-0.1466076523,0.1905899495,-0.02199114859,-0.6488286853,-9.313444138,3.706224203,577.063829787234,2284.106382978724,3447.872340425532,-3355.276595744681,-7114.340425531915,3285.063829787234,10
2024-06-15 14:12:54,0.07574728876,0.07941248268,0.0232128799,-0.5841852427,-9.935936928,4.108449936,566.4069767441861,2295.5116279069766,4480.569767441861,-4011.046511627907,-6619.209302325581,3382.93023255814,10
2024-06-15 14:12:55,0.09651670605,0.1563815027,0.1282816976,-0.7565677166,-9.332598686,4.039018154,496.3333333333333,2092.6666666666665,3943.6666666666665,-4625.0,-6425.666666666667,3283.333333333333,10
2024-06-15 14:12:55,0.09651670605,0.1563815027,0.1282816976,-0.7565677166,-9.332598686,4.039018154,603.3703703703703,2057.6666666666665,5439.166666666667,-5987.351851851852,-5717.537037037037,2791.962962962963,10
2024-06-15 14:12:55,-0.1673770845,0.2394591719,0.2186897546,-1.223437071,-8.81066227,3.251325846,93.67391304347828,1289.7608695652175,5041.760869565217,-6593.826086956522,-4593.54347826087,2817.478260869565,10
2024-06-15 14:12:55,-0.1490511149,0.141720742,0.1893682331,-1.67115283,-9.181763649,3.476380825,-187.74157303370785,1044.3932584269662,4460.887640449439,-6839.876404494382,-3912.269662921348,2553.494382022472,10
2024-06-15 14:12:55,-0.1490511149,0.141720742,0.1893682331,-1.67115283,-9.181763649,3.476380825,325.65517241379314,1081.1494252873565,2485.2758620689656,-7346.643678160919,-3402.7241379310344,2581.5057471264367,10
2024-06-15 14:12:55,-0.06597344577,-0.04764748737,0.08796459436,-1.659181833,-9.071630478,2.784456491,6.666666666666664,705.3333333333334,1906.3333333333333,-7675.333333333333,-2926.333333333333,2412.6666666666665,10
2024-06-15 14:12:55,-0.06597344577,-0.04764748737,0.08796459436,-1.659181833,-9.071630478,2.784456491,-165.35555555555555,76.86666666666667,1838.2,-7849.622222222222,-2419.311111111111,2349.333333333333,10
2024-06-15 14:12:55,-0.04276056588,-0.1209513173,-0.04031710699,-1.752555609,-9.770736694,3.289633036,222.4578313253012,-294.8192771084337,1248.867469879518,-7871.975903614458,-2044.144578313253,2039.578313253012,10
2024-06-15 14:12:55,-0.01466076635,0.03420845419,0.109955743,-2.30561614,-9.744400978,3.871424198,685.3586956521739,45.80434782608695,1330.3478260869565,-7875.29347826087,-1712.445652173913,2317.6739130434785,10
2024-06-15 14:12:55,-0.01466076635,0.03420845419,0.109955743,-2.30561614,-9.744400978,3.871424198,264.12048192771084,-35.084337349397586,987.7590361445784,-8231.903614457831,-1234.6024096385545,2378.7831325301204,10
2024-06-15 14:12:56,0.2590068579,-0.05253441259,0.5913175344,-3.12203908,-9.720458984,2.815581083,-4.965517241379317,60.48275862068966,672.2068965517242,-8228.793103448275,-1188.9655172413793,2339.310344827586,10
2024-06-15 14:12:56,0.02565634064,-0.1588249654,1.088561893,-3.739742994,-10.11310768,4.074931145,396.7415730337078,-116.1685393258427,717.7415730337078,-8219.752808988764,-1227.426966292135,2226.955056179775,10
2024-06-15 14:12:56,0.02565634064,-0.1588249654,1.088561893,-3.739742994,-10.11310768,4.074931145,1000.375,-229.1136363636364,687.5681818181818,-8161.340909090909,-1003.7727272727273,2213.8636363636365,10
2024-06-15 14:12:56,0.967610538,-0.4178318381,1.093448758,-4.412513733,-7.706935406,4.108449936,1195.6222222222225,-523.4444444444445,1333.177777777778,-7948.577777777778,-476.8444444444444,2583.955555555556,10
2024-06-15 14:12:56,0.5400048494,-0.4373795092,0.7098253965,-5.185841084,-6.260837555,4.721365929,-10.384615384615383,152.3846153846154,158.53846153846155,-8156.461538461538,62.92307692307692,2236.769230769231,10
2024-06-15 14:12:56,1.058018565,-0.3885102868,0.4092797041,-4.881777287,-4.994304657,5.365406036,-134.83561643835617,256.1232876712329,196.56164383561645,-8148.904109589041,63.80821917808219,2221.72602739726,10
2024-06-15 14:12:56,1.058018565,-0.3885102868,0.4092797041,-4.881777287,-4.994304657,5.365406036,-563.3448275862069,-681.0,257.632183908046,-8128.9655172413795,-84.05747126436782,2381.6436781609195,10
2024-06-15 14:12:56,0.7733554244,-0.2370157093,0.3103195429,-5.406107426,-3.608062029,6.809109688,-478.1590909090909,-812.0909090909091,322.27272727272725,-8198.545454545454,129.38636363636363,2752.25,10
2024-06-15 14:12:56,0.5436700583,-0.1637118906,0.2138028294,-5.118803024,-2.882618904,7.304709435,-677.3483146067415,-724.629213483146,302.0224719101124,-8036.977528089887,348.685393258427,2788.696629213483,10
2024-06-15 14:12:57,0.5436700583,-0.1637118906,0.2138028294,-5.118803024,-2.882618904,7.304709435,-1066.1176470588234,-562.7058823529412,63.49411764705882,-7986.305882352941,289.7647058823529,3182.0,10
2024-06-15 14:12:57,0.232128799,-0.04398229718,0.1295034289,-5.169081688,-1.89620769,7.656657219,-975.451612903226,-159.7741935483871,215.3548387096774,-7904.451612903225,-78.41935483870968,3009.935483870968,10
2024-06-15 14:12:57,0.232128799,-0.04398229718,0.1295034289,-5.169081688,-1.89620769,7.656657219,-1095.6666666666667,-349.42857142857144,-32.47619047619048,-7871.190476190476,-126.57142857142856,3315.7619047619046,10
2024-06-15 14:12:57,0.2003637999,-0.009773843922,0.08674286306,-5.204994678,-1.692700624,7.960720539,-1294.6022727272727,-107.64772727272728,-245.9318181818182,-8060.272727272727,-71.94318181818181,3383.931818181818,10
2024-06-15 14:12:57,0.4593706727,-0.06352998316,0.009773843922,-5.322310448,-1.295263171,8.080430984,-944.8202247191012,343.86516853932585,-401.4494382022472,-7858.359550561798,47.7752808988764,3356.9101123595506,10
2024-06-15 14:12:57,0.4593706727,-0.06352998316,0.009773843922,-5.322310448,-1.295263171,8.080430984,-1031.3295454545455,206.22727272727275,-293.0340909090909,-7842.568181818182,-82.9090909090909,2988.75,10
2024-06-15 14:12:57,0.1722639948,-0.0720821023,0.02076941915,-5.23851347,-1.323993564,8.161833763,-1358.0232558139537,29.581395348837205,-427.6046511627907,-7906.232558139535,-322.62790697674416,3021.7906976744184,10
2024-06-15 14:12:57,0.1111774743,0.004886921961,0.04642575979,-5.19781208,-0.7038952708,8.037335396,-1164.6022727272727,830.1363636363636,-489.52272727272725,-7837.181818181818,-813.2386363636364,2763.568181818182,10
2024-06-15 14:12:57,0.1111774743,0.004886921961,0.04642575979,-5.19781208,-0.7038952708,8.037335396,-539.2022471910112,554.7303370786517,-926.1460674157304,-8235.460674157302,-967.4044943820224,2696.94382022472,10
2024-06-15 14:12:57,0.1869247705,-0.01954768784,0.08063421398,-5.164293289,-0.08858546615,8.195352554,59.03370786516854,228.68539325842696,-1278.797752808989,-8264.797752808989,-977.8539325842696,2501.3595505617977,10
2024-06-15 14:12:58,0.1869247705,-0.01954768784,0.08063421398,-5.164293289,-0.08858546615,8.195352554,784.2,493.97777777777776,-1021.9555555555556,-7943.366666666667,-1202.0111111111112,2622.866666666667,10
2024-06-15 14:12:58,0.1356120855,0.02809980139,0.07452555746,-5.293580055,0.5003881454,8.238448143,727.2307692307693,469.68131868131866,-777.1648351648352,-7895.593406593406,-1541.2747252747254,2650.5274725274726,10
2024-06-15 14:12:58,0.04398229718,-0.02076941915,0.0232128799,-5.152322292,0.3543418646,8.080430984,1370.8230088495577,870.070796460177,-445.3628318584071,-8235.256637168142,-1414.716814159292,2354.858407079646,10
2024-06-15 14:12:58,0.04398229718,-0.02076941915,0.0232128799,-5.152322292,0.3543418646,8.080430984,871.3186813186813,774.7032967032967,-502.94505494505495,-8232.439560439561,-1246.021978021978,2335.516483516484,10
2024-06-15 14:12:58,0.1148426682,0.01588249579,0.02687807009,-5.288791656,0.2777273953,8.042123795,512.4431818181819,475.4318181818182,-188.60227272727275,-8278.693181818182,-1311.034090909091,2321.9886363636365,10
2024-06-15 14:12:58,0.141720742,-0.03054326214,0.04642575979,-5.233725071,0.6823474765,8.183381081,606.4705882352941,344.1058823529412,-349.0,-7902.317647058823,-1264.8117647058823,2367.8117647058825,10
2024-06-15 14:12:58,0.141720742,-0.03054326214,0.04642575979,-5.233725071,0.6823474765,8.183381081,26.627906976744185,426.8837209302326,43.76744186046511,-8244.348837209302,-1247.8372093023256,1961.2325581395348,10
2024-06-15 14:12:58,0.1172861308,0.01221730467,0.03176499158,-5.27442646,1.213860273,8.06127739,-493.38461538461536,192.03296703296704,-64.96703296703296,-8305.527472527472,-1574.4395604395604,1726.6153846153843,10
2024-06-15 14:12:58,0.1172861308,0.01221730467,0.03176499158,-5.27442646,1.213860273,8.06127739,-728.4615384615385,134.8021978021978,297.0989010989011,-8331.065934065935,-1409.2087912087911,1783.8461538461538,10
2024-06-15 14:12:58,0.2638937831,-0.01466076635,0.01588249579,-5.19781208,1.261744261,7.982268333,-1205.2386363636365,-745.0681818181818,505.5568181818182,-8496.15909090909,-1059.875,1753.1363636363635,10
2024-06-15 14:12:59,0.08674286306,0.008552113548,0.0171042271,-5.190629482,1.33835876,8.003816605,-2510.436781609196,-1072.16091954023,80.5287356321839,-7927.057471264367,-1326.4482758620688,1995.0689655172407,10
2024-06-15 14:12:59,0.08674286306,0.008552113548,0.0171042271,-5.190629482,1.33835876,8.003816605,-2603.413043478261,-596.2065217391304,241.42391304347825,-8220.945652173914,-1815.0434782608693,2311.043478260869,10
2024-06-15 14:12:59,0.04520402849,-0.02809980139,-0.003665191587,-5.027823448,1.206677675,7.910442352,-2249.9166666666665,-607.4166666666666,561.9166666666666,-8225.166666666666,-1818.0833333333333,2288.1666666666665,10
2024-06-15 14:12:59,0.00122173049,0.04276056588,-0.0232128799,-5.137956619,1.446097851,7.687781811,-1878.3,-488.6333333333333,513.2666666666667,-7990.466666666666,-1510.7666666666669,2021.0333333333333,10
2024-06-15 14:12:59,0.00122173049,0.04276056588,-0.0232128799,-5.137956619,1.446097851,7.687781811,-1677.0337078651685,-198.8426966292135,732.7640449438202,-8236.629213483146,-1485.9550561797753,2012.5280898876404,10
2024-06-15 14:12:59,-0.8002334833,0.02199114859,-0.2394591719,-4.855441093,1.18991828,7.580042362,-914.896551724138,-379.8620689655172,769.6551724137931,-8254.793103448275,-1660.4137931034484,2335.862068965517,10
2024-06-15 14:12:59,-0.8002334833,0.02199114859,-0.2394591719,-4.855441093,1.18991828,7.580042362,-116.13793103448276,-217.17241379310343,1005.7931034482758,-8238.459770114943,-1288.9655172413793,2408.206896551724,10
2024-06-15 14:12:59,-1.115439892,0.1747074574,-0.1869247705,-5.7963624,-0.6895300746,7.61595583,338.6293103448276,-413.4741379310345,1294.7931034482758,-8198.672413793103,-791.9051724137931,2227.922413793104,10
2024-06-15 14:12:59,-1.375668526,0.2186897546,-0.3078760803,-5.422866821,-2.657563925,7.216124058,717.4285714285714,-472.2857142857143,895.2857142857142,-7976.714285714285,-617.4285714285714,2407.5714285714284,10
2024-06-15 14:12:59,-1.375668526,0.2186897546,-0.3078760803,-5.422866821,-2.657563925,7.216124058,736.8181818181818,-334.72727272727275,777.2727272727273,-7899.909090909091,-342.0,2799.6363636363635,10
2024-06-15 14:13:00,-0.5558874011,1.000597239,-1.215621829,-5.477933407,-5.374982834,4.139574528,840.5555555555555,316.8888888888889,112.77777777777776,-8282.222222222223,785.0,2519.6666666666665,10
2024-06-15 14:13:00,-0.5558874011,1.000597239,-1.215621829,-5.477933407,-5.374982834,4.139574528,497.367816091954,307.264367816092,-78.88505747126436,-8243.494252873563,702.0114942528736,2516.586206896552,10
2024-06-15 14:13:00,-0.4618141353,0.4764748812,-2.020742178,-4.630385876,-8.166622162,3.924096584,197.3636363636364,244.0909090909091,-575.0909090909091,-8246.636363636364,475.4545454545455,2461.181818181818,10
2024-06-15 14:13:00,0.02565634064,-0.290771842,-1.699427128,-2.97359848,-10.50815105,3.416525841,-82.0,382.0909090909091,-424.45454545454544,-8246.454545454546,206.63636363636363,2487.2727272727275,10
2024-06-15 14:13:00,0.02565634064,-0.290771842,-1.699427128,-2.97359848,-10.50815105,3.416525841,174.25842696629215,692.1910112359551,-404.876404494382,-8142.505617977528,116.25842696629212,2393.6853932584268,10
2024-06-15 14:13:00,-0.05864306539,-0.4398229718,-0.6072000265,-1.661576033,-10.32858658,3.706224203,231.03529411764703,827.3764705882353,-104.89411764705882,-8130.517647058824,-112.72941176470589,2391.3764705882354,10
2024-06-15 14:13:00,-0.05864306539,-0.4398229718,-0.6072000265,-1.661576033,-10.32858658,3.706224203,249.8588235294117,811.4941176470588,-98.4235294117647,-8139.929411764706,-85.08235294117648,2375.494117647059,10
2024-06-15 14:13:00,-0.1905899495,-0.2565633953,0.05619960278,-0.4955997467,-10.33816338,4.185064793,548.289156626506,808.2048192771084,330.48192771084337,-8161.289156626506,437.27710843373495,1700.1566265060242,10
2024-06-15 14:13:00,0.1490511149,0.01588249579,0.01343903504,0.07900865376,-9.454702377,3.60327363,-106.45054945054945,144.41758241758242,-587.6153846153846,-8462.912087912087,176.24175824175825,1514.7802197802198,10
2024-06-15 14:13:01,0.1490511149,0.01588249579,0.01343903504,0.07900865376,-9.454702377,3.60327363,262.7857142857143,339.6428571428572,-457.0,-8468.5,250.7142857142857,1496.142857142857,10
2024-06-15 14:13:01,0.01832595654,0.2052507252,-0.07819075137,-0.3615244627,-9.203310966,3.38061285,137.04545454545453,308.89772727272725,-450.625,-8456.28409090909,-74.19318181818181,1478.7954545454545,10
2024-06-15 14:13:01,0.01832595654,0.2052507252,-0.07819075137,-0.3615244627,-9.203310966,3.38061285,304.6,-28.11111111111111,-458.26666666666665,-8190.222222222223,69.4888888888889,1652.8666666666666,10
2024-06-15 14:13:01,-0.05009094998,0.09040805697,-0.009773843922,-0.6607996821,-9.634267807,3.64158082,259.04651162790697,-87.35658914728683,-467.4108527131783,-8496.356589147286,-288.7674418604651,1411.5891472868218,10
2024-06-15 14:13:01,0.1026253626,0.2089159191,0.07696902007,-0.423773706,-8.978256226,4.043806553,-77.36734693877551,26.93877551020408,-618.2244897959183,-8480.102040816326,-328.1224489795918,1431.1224489795918,10
2024-06-15 14:13:01,0.1026253626,0.2089159191,0.07696902007,-0.423773706,-8.978256226,4.043806553,106.0,-306.6666666666667,-343.0,-8273.0,-196.0,1490.6666666666667,10
2024-06-15 14:13:01,0.007330383174,0.4337143302,-0.2504547536,-0.6631938815,-8.839392662,3.682282209,12.22222222222222,-268.55555555555554,-290.0,-8459.666666666666,-175.66666666666666,1520.3333333333333,10
2024-06-15 14:13:01,0.3188716471,0.25167647,-0.7367035151,-0.05027823523,-8.635885239,3.189076662,-315.6896551724138,-319.17241379310343,-500.2413793103448,-8159.172413793103,-245.20689655172413,1811.6206896551723,10
2024-06-15 14:13:01,0.08674286306,-0.04276056588,-1.083674908,1.455674648,-8.815450668,4.058171749,109.25,-86.75,-347.25,-8185.375,-406.875,1865.5,10
2024-06-15 14:13:02,0.08674286306,-0.04276056588,-1.083674908,2.93768549,-9.928754807,3.766079187,77.92307692307692,39.57142857142857,-200.0,-8391.45054945055,-470.0769230769231,1862.824175824176,10
2024-06-15 14:13:02,0.1209513173,-0.08552113175,-0.813672483,2.93768549,-9.928754807,3.766079187,158.55172413793105,-287.9310344827586,-177.86206896551724,-8176.379310344828,-791.0,1873.0689655172407,10
2024-06-15 14:13:02,-0.17715092,-0.1380555481,-0.5167919993,3.988739967,-9.030928612,4.288015366,250.2340425531915,-307.5744680851064,-172.74468085106383,-8155.425531914893,-835.8617021276596,1882.031914893617,10
2024-06-15 14:13:02,-0.17715092,-0.1380555481,-0.5167919993,3.988739967,-9.030928612,4.288015366,1356.5185185185185,-269.48148148148147,-497.9506172839506,-8137.740740740741,-875.4567901234568,1703.0864197530864,10
2024-06-15 14:13:02,-0.1685988009,-0.216246292,-0.5180137157,5.250484467,-8.446743965,3.517082214,1522.1011235955057,-209.438202247191,-591.4269662921348,-8148.269662921349,-759.6966292134831,1768.6741573033707,10
2024-06-15 14:13:02,-0.06230825558,-0.06597344577,-0.3127630055,5.791574001,-8.530540466,3.440467834,2054.8705882352942,-372.36470588235295,-678.8117647058823,-8105.764705882353,-1086.0941176470587,2105.6823529411763,10
2024-06-15 14:13:02,-0.06230825558,-0.06597344577,-0.3127630055,5.791574001,-8.530540466,3.440467834,2358.1075268817203,-328.89247311827955,-835.1397849462365,-8072.827956989247,-1074.47311827957,1949.8494623655915,10
2024-06-15 14:13:02,-0.06841690838,0.07330382615,-0.4190535545,5.760449409,-7.407660007,3.64158082,1523.603448275862,1.3965517241379306,-510.6551724137931,-8069.137931034483,-670.948275862069,2320.551724137931,10
2024-06-15 14:13:02,-0.06841690838,0.07330382615,-0.4190535545,5.760449409,-7.407660007,3.64158082,1553.7758620689656,-228.77586206896552,-193.41379310344823,-8276.034482758621,-868.3620689655172,2348.137931034483,10
2024-06-15 14:13:02,-0.1123992056,0.09773843735,-0.2809980214,5.777208805,-7.723694801,3.134010077,506.4878048780488,-13.365853658536588,-148.0487804878049,-8096.463414634146,-702.3536585365854,2222.634146341464,10
2024-06-15 14:13:03,-0.04276056588,0.03298672289,-0.07330382615,6.421248913,-7.642292023,3.287238836,171.37777777777777,-297.2888888888889,-352.7555555555556,-8303.266666666666,-705.8222222222222,2348.133333333333,10
2024-06-15 14:13:03,-0.04276056588,0.03298672289,-0.07330382615,6.421248913,-7.642292023,3.287238836,-111.67441860465117,-163.09302325581396,-565.4651162790698,-8246.441860465116,-1006.3720930232558,2232.093023255814,10
2024-06-15 14:13:03,-0.1820378453,-0.01343903504,-0.03909537569,6.385335922,-7.577648163,3.490746021,-107.2391304347826,-403.4565217391304,-472.3478260869565,-8156.391304347826,-939.8478260869564,2231.913043478261,10
2024-06-15 14:13:03,0.08307767659,-0.09651670605,-0.2590068579,6.404489517,-6.50744009,3.241749048,27.306818181818183,-732.25,-411.32954545454544,-8246.318181818182,-1215.090909090909,2503.693181818182,10
2024-06-15 14:13:03,0.08307767659,-0.09651670605,-0.2590068579,6.404489517,-6.50744009,3.241749048,-186.6818181818182,-1047.0,-893.9090909090909,-7999.954545454545,-1198.1363636363635,2770.1363636363635,10
2024-06-15 14:13:03,0.05742133409,-0.08674286306,-0.1588249654,7.390900612,-6.358999729,2.667140722,-603.8901098901099,-685.2747252747253,-1389.637362637363,-8000.615384615385,-1538.8791208791208,2810.043956043956,10
2024-06-15 14:13:03,0.0,-0.2528982162,-0.4349360466,7.189787865,-5.655104637,2.863465309,-730.6739130434783,-661.4782608695652,-1922.4130434782608,-7619.304347826087,-2134.717391304348,3144.804347826087,10
2024-06-15 14:13:03,0.0,-0.2528982162,-0.4349360466,7.189787865,-5.655104637,2.863465309,-768.5176470588235,-1101.3647058823528,-1911.7529411764704,-7797.117647058823,-2324.2,2983.0941176470587,10
2024-06-15 14:13:03,0.6133087277,-0.6157521605,-0.6365215778,6.868964672,-5.446808815,3.148375273,-1183.5955056179776,-1367.2134831460671,-1785.9775280898875,-7668.191011235955,-2588.3932584269664,3368.5730337078653,10
2024-06-15 14:13:03,0.6133087277,-0.6157521605,-0.6365215778,6.868964672,-5.446808815,3.148375273,-1587.909090909091,-1636.9431818181818,-1581.75,-7151.204545454545,-3087.590909090909,3584.4204545454545,10
2024-06-15 14:13:04,2.60961628,-1.403768301,-1.948660135,8.341399193,-4.328716755,1.632845521,-1417.6363636363635,-1303.6363636363635,-1639.8181818181818,-6810.636363636364,-3615.0,3704.727272727273,10
2024-06-15 14:13:04,-0.4300491214,0.02809980139,-0.6475171447,10.24957752,-0.05746084079,3.330334663,-852.9213483146068,-637.6179775280899,-1581.3483146067415,-6670.393258426966,-3971.977528089888,3854.426966292135,10
2024-06-15 14:13:04,-0.4300491214,0.02809980139,-0.6475171447,10.24957752,-0.05746084079,3.330334663,-504.4157303370786,-437.1123595505618,-962.4044943820224,-6696.247191011236,-3988.460674157304,3852.5842696629215,10
2024-06-15 14:13:04,-0.6719517708,0.4569272101,0.0232128799,9.569623947,-2.346317768,2.49236393,-851.1034482758621,-574.3448275862069,-1389.8620689655172,-6515.793103448276,-4305.172413793103,3892.0689655172414,10
2024-06-15 14:13:04,-0.6719517708,0.4569272101,0.0232128799,9.569623947,-2.346317768,2.49236393,-452.655462184874,-247.65546218487395,-1324.9495798319329,-6441.882352941177,-4656.084033613445,3918.672268907563,10
2024-06-15 14:13:04,-0.7342600226,0.3286454976,0.04031710699,9.500192642,-2.114080191,2.135627985,-797.370786516854,-391.2921348314607,-1070.584269662921,-6215.191011235955,-4959.876404494382,3961.9438202247193,10
2024-06-15 14:13:04,0.1270599663,-0.1050688252,-0.006108652335,9.30386734,-2.11647439,2.382230759,-494.6179775280899,-421.438202247191,-1128.6067415730338,-5976.640449438202,-5146.606741573034,3927.078651685393,10
2024-06-15 14:13:04,0.1270599663,-0.1050688252,-0.006108652335,9.30386734,-2.11647439,2.382230759,-315.17241379310343,-436.44827586206895,-746.3103448275862,-5577.379310344828,-5237.172413793103,3749.1724137931033,10
2024-06-15 14:13:04,0.3726277947,-0.2858849466,-0.1270599663,9.844957352,-1.824381709,2.846705914,-207.69230769230768,-326.8901098901099,-441.45054945054943,-5726.131868131868,-5418.054945054945,3753.153846153846,10
2024-06-15 14:13:04,0.2272418737,-0.04764748737,0.06475171447,9.806650162,-1.699883223,3.052607059,-238.2183908045977,-278.04597701149424,-264.2758620689655,-5689.6551724137935,-5399.643678160919,3722.919540229885,10
2024-06-15 14:13:05,0.2272418737,-0.04764748737,0.06475171447,9.806650162,-1.699883223,3.052607059,55.6,87.7,-51.7,-5657.9,-5392.633333333333,3726.9,10
2024-06-15 14:13:05,-0.8979719281,1.136209369,1.28159523,9.969455719,-2.875436306,3.284844637,-111.72527472527472,225.83516483516485,473.8351648351649,-5731.7032967032965,-5090.219780219781,3726.5824175824177,10
2024-06-15 14:13:05,-0.8979719281,1.136209369,1.28159523,9.969455719,-2.875436306,3.284844637,63.636363636363626,580.9545454545455,574.4545454545455,-5729.818181818182,-5041.363636363636,3906.636363636364,10
2024-06-15 14:13:05,-0.2602286041,0.283441484,1.815491557,6.335057735,-5.999869347,2.549824715,31.25581395348837,506.0813953488372,198.0813953488372,-5859.139534883721,-5165.883720930233,3542.7906976744184,10
2024-06-15 14:13:05,0.2406809032,-0.2614503205,0.5705481172,6.562506676,-5.494692802,1.924938202,-35.12903225806452,-17.774193548387096,977.7204301075268,-6144.204301075269,-4920.860215053764,3863.043010752688,10
2024-06-15 14:13:05,-0.3433062732,-0.1026253626,-0.1539380401,7.558494568,-6.02381134,2.516305923,-1023.3793103448276,-236.9655172413793,1233.9655172413793,-6081.379310344828,-4561.586206896552,3527.1264367816093,10
2024-06-15 14:13:05,0.08918632567,0.004886921961,-0.2064724565,6.39251852,-7.357381821,2.331952572,-1367.6741573033707,572.1797752808989,1337.797752808989,-6429.820224719101,-4270.303370786517,3347.94382022472,10
2024-06-15 14:13:05,0.08918632567,0.004886921961,-0.2064724565,6.39251852,-7.357381821,2.331952572,-1209.4545454545455,402.0909090909091,914.5454545454544,-6632.0,-4651.727272727273,3375.0,10
2024-06-15 14:13:05,-0.106290549,0.2345722616,-0.2406809032,6.830657482,-7.699752808,2.056619167,-910.9226519337016,174.37016574585635,694.2265193370166,-6598.574585635359,-4575.690607734807,3271.8342541436464,10
2024-06-15 14:13:06,-0.1466076523,0.09651670605,-0.0171042271,7.237671852,-7.287950039,1.836352706,-761.7513812154696,2.5469613259668336,702.5138121546961,-6578.132596685083,-4379.005524861878,3095.038674033149,10
2024-06-15 14:13:06,-0.1466076523,0.09651670605,-0.0171042271,7.237671852,-7.287950039,1.836352706,-548.3636363636364,230.20454545454544,685.9090909090909,-6587.909090909091,-4279.431818181818,3065.068181818182,10
2024-06-15 14:13:06,-0.9871582389,-0.07452555746,-0.1930334121,7.254431248,-7.125144482,1.695094824,-484.7977528089888,282.0674157303371,-396.4606741573034,-6588.112359550561,-4344.224719101124,3098.887640449438,10
2024-06-15 14:13:06,-0.9871582389,-0.07452555746,-0.1930334121,7.254431248,-7.125144482,1.695094824,522.2065217391304,1037.6630434782608,-576.5869565217391,-6634.20652173913,-4606.130434782609,2938.010869565217,10
2024-06-15 14:13:06,0.06475171447,0.06963863969,-0.0171042271,7.24485445,-7.419631004,1.764526606,729.2298850574713,1001.574712643678,-324.4712643678161,-6945.103448275862,-4301.045977011494,2907.632183908046,10
2024-06-15 14:13:06,1.159422278,0.1685988009,-0.01832595654,7.223306656,-6.31829834,1.826775908,1230.2325581395348,1337.4418604651162,-58.47674418604651,-6923.453488372093,-4433.941860465116,2882.8023255813955,10
2024-06-15 14:13:06,1.159422278,0.1685988009,-0.01832595654,7.223306656,-6.31829834,1.826775908,999.967032967033,1306.824175824176,-22.46153846153846,-6724.780219780219,-4368.252747252747,2537.230769230769,10
2024-06-15 14:13:06,0.2712241709,0.009773843922,0.3286454976,7.824251175,-7.429207802,2.391807556,814.9666666666667,1241.7333333333331,400.3666666666667,-7231.633333333333,-4122.2,2424.333333333333,10
2024-06-15 14:13:06,0.2712241709,0.009773843922,0.3286454976,6.531382084,-9.279925346,1.912967205,455.53333333333336,1372.1333333333332,706.5333333333333,-7106.8,-4029.133333333333,2001.733333333333,10
2024-06-15 14:13:06,-0.3909537494,-0.283441484,1.43064642,6.531382084,-9.279925346,1.912967205,69.64367816091954,1613.471264367816,1325.896551724138,-7410.333333333333,-3801.126436781609,1645.5517241379312,10
2024-06-15 14:13:07,-0.4166100919,-0.3640756905,1.540602207,2.923320293,-9.768342972,2.133233786,76.42682926829269,774.6463414634146,795.7926829268292,-7725.719512195122,-3766.5853658536585,1218.0975609756097,10
2024-06-15 14:13:07,-0.4166100919,-0.3640756905,1.540602207,2.923320293,-9.768342972,2.133233786,95.65217391304348,-432.2934782608696,502.2173913043478,-7353.663043478261,-3898.5,1254.3804347826087,10
2024-06-15 14:13:07,0.9334021211,-0.2260201424,1.420872569,1.216254473,-9.263166428,1.829170108,185.66666666666663,-536.0,454.6666666666667,-7577.0,-3504.0,1620.3333333333333,10
2024-06-15 14:13:07,0.1881465018,-0.2223549485,1.005484223,-0.01197100803,-9.497797966,2.387019157,448.8,-280.6,1179.9176470588236,-7965.694117647059,-2961.164705882353,1636.8235294117646,10
2024-06-15 14:13:07,0.1881465018,-0.2223549485,1.005484223,-0.01197100803,-9.497797966,2.387019157,215.80851063829783,-763.8297872340426,1480.329787234043,-7910.468085106383,-2737.7978723404253,1826.1808510638296,10
2024-06-15 14:13:07,-0.3824016452,-0.5510004759,1.153313637,-1.927332401,-10.31182671,2.700659513,436.219512195122,-350.4146341463415,1677.780487804878,-7988.341463414634,-2502.1463414634145,2116.243902439024,10
2024-06-15 14:13:07,-0.3824016452,-0.5510004759,1.153313637,-2.619256735,-9.390059471,2.772485495,753.7299270072992,-593.1751824817518,2738.8613138686133,-7924.204379562044,-1649.7153284671533,2306.3284671532847,10
2024-06-15 14:13:07,-0.1172861308,-0.5619960427,0.8038986921,-2.619256735,-9.390059471,2.772485495,732.3488372093024,-697.9302325581396,2395.116279069768,-7969.395348837209,-1428.0232558139537,2194.0697674418607,10
2024-06-15 14:13:07,0.3921754956,-0.7257078886,0.8417723179,-3.541024208,-9.064447403,2.521094322,-130.46511627906978,-1038.4186046511627,789.3255813953489,-7326.0,-846.6279069767442,2467.1627906976746,10
2024-06-15 14:13:07,0.3921754956,-0.7257078886,0.8417723179,-3.541024208,-9.064447403,2.521094322,-806.7528089887641,-755.1573033707865,786.8089887640449,-7785.303370786517,-957.7752808988764,3287.191011235955,10
2024-06-15 14:13:08,0.5778785348,-0.6829473376,0.6475171447,-3.773261786,-7.292738438,3.960009575,-644.5280898876405,-211.3258426966292,1056.4831460674156,-8693.157303370786,-713.6966292134832,3651.5393258426966,10
2024-06-15 14:13:08,0.6548475623,-0.4703662395,0.4080579877,-4.13239193,-6.567295074,5.207388878,255.7142857142857,-687.6593406593406,1151.043956043956,-7642.219780219781,-743.4505494505495,3927.472527472528,10
2024-06-15 14:13:08,0.5632177591,-0.3628539443,0.3176499307,-4.311957359,-5.863399982,6.521805286,1065.5813953488373,-739.5813953488372,1285.4883720930234,-7602.302325581395,-304.0232558139535,3820.0,10
2024-06-15 14:13:08,0.5632177591,-0.3628539443,0.3176499307,-4.156333923,-4.721365929,6.856993675,695.0,283.33333333333337,322.0,-7687.0,223.0,3879.6666666666665,10
2024-06-15 14:13:08,0.4899139404,-0.1356120855,0.1832595766,-4.156333923,-4.721365929,6.856993675,724.2,412.5333333333333,-311.7333333333333,-8238.333333333334,120.33333333333331,3797.866666666667,10
2024-06-15 14:13:08,0.4361577928,-0.05375614017,0.06475171447,-4.398148537,-4.843470097,7.139509678,268.9347826086956,386.1739130434783,-886.554347826087,-7561.869565217391,-138.19565217391303,3263.043478260869,10
2024-06-15 14:13:08,0.4361577928,-0.05375614017,0.06475171447,-4.398148537,-4.843470097,7.139509678,90.8641975308642,1091.3703703703704,-651.5555555555555,-7670.185185185185,-592.9753086419753,2802.604938271605,10
2024-06-15 14:13:08,0.6230825782,-0.0232128799,0.05009094998,-4.527435303,-3.840299606,7.558494568,-109.55555555555556,837.8888888888889,-557.2222222222222,-8152.222222222223,-422.1111111111111,2887.333333333333,10
2024-06-15 14:13:08,0.5265658498,-0.04642575979,0.03665191308,-4.491522312,-3.303998232,8.173804283,38.721518987341774,600.9873417721519,-16.063291139240505,-8241.569620253165,-213.493670886076,2452.278481012658,10
2024-06-15 14:13:09,0.5265658498,-0.04642575979,0.03665191308,-4.491522312,-3.303998232,8.173804283,-377.3577235772358,599.4634146341464,133.9349593495935,-8081.731707317073,-519.7886178861788,2587.918699186992,10
2024-06-15 14:13:09,0.5375614166,-0.01588249579,0.03420845419,-4.496310711,-2.396595955,7.982268333,-213.130081300813,245.8048780487805,-72.5691056910569,-8254.90243902439,-598.650406504065,2579.788617886179,10
2024-06-15 14:13:09,0.2235766798,-0.02443460934,0.0415388383,-4.410119534,-1.843535304,8.489839554,-172.7,258.7,43.46666666666667,-8248.966666666667,-523.0,2269.233333333333,10
2024-06-15 14:13:09,0.2235766798,-0.02443460934,0.0415388383,-4.410119534,-1.843535304,8.489839554,-564.6590909090909,-45.72727272727273,90.61363636363636,-8105.954545454545,-546.7954545454545,2266.8636363636365,10
2024-06-15 14:13:09,0.2761110961,0.01588249579,0.03787364438,-4.417302132,-1.680729628,8.434772491,-569.7931034482758,92.7471264367816,112.6206896551724,-8189.586206896552,-612.2528735632184,2288.758620689656,10
2024-06-15 14:13:09,0.2761110961,0.01588249579,0.03787364438,-4.417302132,-1.680729628,8.434772491,-172.29545454545456,28.454545454545453,61.11363636363636,-8296.75,-392.95454545454544,2581.931818181818,10
2024-06-15 14:13:09,0.2528982162,-0.0293215327,0.0293215327,-4.589684486,-1.438915253,8.614337921,-39.65934065934066,-183.4065934065934,28.285714285714285,-8284.505494505494,-399.68131868131866,2596.4505494505493,10
2024-06-15 14:13:09,0.2675589919,0.1001819,0.09529497474,-4.443638325,-0.806845963,8.384494781,264.6627906976744,-7.267441860465112,-80.32558139534883,-8281.96511627907,-552.3953488372093,2621.0116279069766,10
2024-06-15 14:13:09,0.2675589919,0.1001819,0.09529497474,-4.443638325,-0.806845963,8.384494781,369.45454545454544,60.72727272727273,71.27272727272728,-8285.90909090909,-198.45454545454547,2651.090909090909,10
2024-06-15 14:13:09,0.1380555481,-0.00244346098,0.03909537569,-4.802768707,-0.6823474765,8.444349289,315.5806451612903,79.52688172043011,-311.8817204301075,-8279.870967741936,-213.8494623655914,2676.569892473118,10
2024-06-15 14:13:10,0.1869247705,0.07941248268,0.09162978828,-4.592078686,-0.423773706,8.355764389,165.98876404494382,116.47191011235957,-543.876404494382,-8282.202247191011,-537.9887640449438,2636.325842696629,10
2024-06-15 14:13:10,0.1869247705,0.07941248268,0.09162978828,-4.592078686,-0.423773706,8.355764389,543.7011494252873,-48.55172413793103,-837.7931034482758,-8124.793103448276,-405.6896551724138,2655.0344827586205,10
2024-06-15 14:13:10,0.1343903542,-0.00122173049,-0.02565634064,-4.730942726,0.1316810995,8.358158112,1028.4175824175825,-308.7032967032967,-755.8241758241759,-8303.351648351649,-602.6263736263736,2578.3736263736264,10
2024-06-15 14:13:10,0.1343903542,-0.00122173049,-0.02565634064,-4.730942726,0.1316810995,8.358158112,1583.264367816092,-192.20689655172413,-938.0574712643678,-8277.83908045977,-670.1954022988506,2528.8275862068967,10
2024-06-15 14:13:10,0.1918116808,-0.00244346098,-0.0354301855,-4.654327869,0.1891419291,8.51617527,1531.0,-215.28571428571428,-701.1428571428571,-8034.714285714285,-1056.0,2915.5714285714284,10
2024-06-15 14:13:10,-0.02687807009,-0.04764748737,-0.1600466967,-4.503493309,-0.009576806799,8.137891769,1373.3103448275865,-330.1724137931035,-1356.7586206896551,-8012.620689655172,-1078.2758620689656,3029.448275862069,10
2024-06-15 14:13:10,-0.02687807009,-0.04764748737,-0.1600466967,-4.503493309,-0.009576806799,8.137891769,781.9560439560439,-29.97802197802196,-1348.637362637363,-7981.923076923077,-1143.9450549450548,3039.5714285714284,10
2024-06-15 14:13:10,-0.4825835526,-0.00122173049,-0.2309070677,-4.443638325,0.5650315881,7.867346764,393.1578947368421,124.37593984962406,-968.2105263157896,-7903.729323308271,-937.4436090225564,2948.466165413534,10
2024-06-15 14:13:10,-1.952325344,0.09040805697,-0.3274237812,-4.781220913,-2.262520552,7.603984833,-596.2,-320.3333333333333,-975.6666666666666,-7872.833333333333,-1213.1333333333334,3159.333333333333,10
2024-06-15 14:13:10,-1.952325344,0.09040805697,-0.3274237812,-4.781220913,-2.262520552,7.603984833,-665.2183908045977,-249.3563218390805,-1367.9080459770114,-7669.045977011494,-1725.1379310344828,2957.1264367816093,10
2024-06-15 14:13:11,-1.536936998,0.1331686229,-0.2113593817,-4.343081951,-4.979939461,6.955155849,-451.06666666666666,-532.6888888888889,-1531.6444444444444,-7626.333333333333,-2081.866666666667,3044.0222222222224,10
2024-06-15 14:13:11,-1.536936998,0.1331686229,-0.2113593817,-4.343081951,-4.979939461,6.955155849,-539.7802197802198,-585.1978021978022,-1713.9120879120878,-7614.912087912088,-2499.8901098901097,3047.3296703296705,10
2024-06-15 14:13:11,-1.080009699,0.7660250068,-0.1001819,-3.90254879,-5.453991413,4.979939461,-161.54117647058823,-188.67058823529413,-1476.7529411764706,-7364.894117647059,-2723.3529411764707,3057.494117647059,10
2024-06-15 14:13:11,-0.6157521605,1.616349459,-0.7208209634,-4.474762917,-7.323863029,2.722207308,-281.2659574468085,-384.7872340425532,-1261.404255319149,-7398.989361702128,-3038.5106382978724,3408.351063829787,10
2024-06-15 14:13:11,-0.6157521605,1.616349459,-0.7208209634,-4.474762917,-7.323863029,2.722207308,-33.66666666666667,-216.66666666666663,-1077.0,-7251.666666666667,-3311.0,3297.0,10
2024-06-15 14:13:11,-0.5803219676,1.639562368,-1.960877419,-3.821146011,-10.45787334,1.44849205,164.03529411764706,61.83529411764706,-571.0588235294117,-7186.376470588235,-3258.0235294117647,3590.576470588235,10
2024-06-15 14:13:11,-0.5803219676,1.639562368,-1.960877419,-2.796427488,-12.30859089,2.545036316,-29.87912087912088,69.80219780219781,-193.4945054945055,-7236.516483516483,-3220.5824175824177,3607.6703296703295,10
2024-06-15 14:13:11,-0.02199114859,0.5155702829,-1.745852828,-2.796427488,-12.30859089,2.545036316,0.8555555555555552,-334.02222222222224,-225.0222222222222,-7185.311111111111,-3278.988888888889,3587.6,10
2024-06-15 14:13:11,0.1698205322,0.1624901593,0.09651670605,-2.276885748,-10.76193619,0.8882488012,-387.94505494505495,-315.9340659340659,-540.6923076923077,-7207.923076923077,-3632.6703296703295,3646.56043956044,10
2024-06-15 14:13:11,0.1698205322,0.1624901593,0.09651670605,-2.276885748,-10.76193619,0.8882488012,-604.3953488372093,-220.4186046511628,-491.5697674418605,-6849.279069767442,-3623.616279069768,3676.093023255814,10
2024-06-15 14:13:12,0.02809980139,-0.02076941915,0.3946189582,-1.027112484,-9.617507935,1.290474772,-511.9550561797753,-272.4719101123595,-813.7191011235955,-6637.157303370786,-3935.550561797753,3482.0561797752807,10
2024-06-15 14:13:12,-0.06963863969,-0.08307767659,-0.05864306539,-1.458068848,-9.773131371,1.546654344,-142.664,-150.016,-993.4,-6707.68,-4040.464,3488.064,10
2024-06-15 14:13:12,-0.06963863969,-0.08307767659,-0.05864306539,-1.458068848,-9.773131371,1.546654344,296.3333333333333,288.0,-683.5925925925926,-6919.259259259259,-3792.962962962963,3475.851851851852,10
2024-06-15 14:13:12,-0.07086037099,-0.1319468915,-0.1075122803,-1.944091797,-9.919178009,1.18752408,729.2666666666667,292.93333333333334,-208.44444444444449,-6922.866666666667,-4006.844444444445,3489.4222222222224,10
2024-06-15 14:13:12,0.1014036313,-0.2455678284,0.1392772794,-1.417367458,-9.782708168,0.9457096457,1073.7865168539329,110.42696629213484,-582.7078651685393,-6926.202247191011,-3882.123595505618,3550.7977528089887,10
2024-06-15 14:13:12,0.1014036313,-0.2455678284,0.1392772794,-1.417367458,-9.782708168,0.9457096457,814.6404494382023,86.9438202247191,-13.25842696629212,-6936.887640449439,-3549.1573033707864,3883.85393258427,10
2024-06-15 14:13:12,-0.1404990107,-0.2761110961,0.04398229718,-1.398213744,-9.801861763,1.15161097,369.0,-279.47727272727275,-357.46590909090907,-6913.943181818182,-3528.931818181818,3964.375,10
2024-06-15 14:13:12,-0.1404990107,-0.2761110961,0.04398229718,-1.398213744,-9.801861763,1.15161097,-75.64835164835165,-368.1538461538461,-328.4725274725275,-6762.153846153846,-3777.538461538461,4129.142857142857,10
2024-06-15 14:13:12,-0.05253441259,-0.2199114859,0.00122173049,-1.537077546,-10.03888798,1.302445769,-76.73563218390805,-339.0344827586207,-356.58620689655174,-6537.218390804598,-3846.689655172414,4159.183908045977,10
2024-06-15 14:13:12,0.05742133409,-0.09285151958,0.1209513173,-1.218648672,-9.940725327,1.146822572,-312.60227272727275,-330.875,-277.79545454545456,-6708.295454545455,-3943.909090909091,4200.0,10
2024-06-15 14:13:13,0.05742133409,-0.09285151958,0.1209513173,-1.218648672,-9.940725327,1.146822572,-299.96629213483146,-275.9325842696629,-321.5056179775281,-6713.08988764045,-3770.6516853932585,4003.078651685393,10
2024-06-15 14:13:13,0.03665191308,0.06475171447,0.03909537569,-1.094150186,-9.715670586,1.333570361,-27.863636363636367,-431.8181818181818,156.02272727272728,-6701.068181818182,-3992.295454545456,4071.159090909091,10
2024-06-15 14:13:13,0.07819075137,0.1954768747,-0.1331686229,-1.484405041,-9.787496567,1.331176162,595.1333333333333,-423.1333333333333,268.2111111111111,-6315.288888888889,-3613.6,4278.844444444445,10
2024-06-15 14:13:13,0.07819075137,0.1954768747,-0.1331686229,-1.484405041,-9.787496567,1.331176162,77.68181818181819,-305.625,-3.5795454545454533,-6697.681818181818,-3662.022727272728,4419.647727272727,10
2024-06-15 14:13:13,0.02199114859,0.2223549485,-0.06230825558,-1.704671621,-9.971850395,1.242590666,-226.1,-343.1,-180.1,-6697.5,-3572.6,4454.1,10
2024-06-15 14:13:13,0.02199114859,0.2223549485,-0.06230825558,-1.704671621,-9.971850395,1.242590666,-563.2826086956521,-153.08695652173913,-777.4565217391304,-6328.413043478261,-3905.413043478261,4458.934782608696,10
2024-06-15 14:13:13,0.08552113175,0.109955743,0.004886921961,-1.692700624,-9.662998199,1.314416766,-587.6235294117647,-201.68235294117648,-623.7176470588236,-6391.823529411765,-4131.117647058823,4242.788235294118,10
2024-06-15 14:13:13,-0.2981022298,0.05375614017,0.0171042271,-1.70946002,-9.646238327,0.8810662031,-507.8110236220472,11.787401574803148,-233.2125984251969,-6079.63779527559,-3991.4015748031497,4253.952755905511,10
2024-06-15 14:13:13,-0.2981022298,0.05375614017,0.0171042271,-1.70946002,-9.646238327,0.8810662031,-266.86614173228344,-84.2755905511811,-229.2755905511811,-6067.826771653543,-4028.4094488188975,4243.716535433071,10
2024-06-15 14:13:13,-0.02076941915,-0.1490511149,-0.009773843922,-1.697489023,-10.15859795,0.3878606856,-220.9375,150.54166666666666,-206.3958333333333,-6087.666666666667,-4257.041666666667,4359.895833333333,10
2024-06-15 14:13:14,0.01832595654,-0.109955743,0.009773843922,-1.467645645,-9.722852707,0.8978256583,-281.2926829268293,-117.1951219512195,-320.6585365853659,-6100.829268292683,-4425.0,4368.951219512195,10
2024-06-15 14:13:14,0.01832595654,-0.109955743,0.009773843922,-1.467645645,-9.722852707,0.8978256583,-272.0,-57.872093023255815,80.73255813953489,-6086.802325581395,-4426.860465116279,4176.0,10
2024-06-15 14:13:14,-0.7049384713,-0.08307767659,0.05864306539,-1.422155857,-9.797073364,0.1843535304,-236.5217391304348,338.0869565217391,273.0,-6125.260869565217,-4365.826086956522,4019.130434782609,10
2024-06-15 14:13:14,-0.7049384713,-0.08307767659,0.05864306539,-1.59693253,-9.993397713,-0.05506663769,-180.41666666666663,377.4166666666667,-115.83333333333331,-6310.583333333333,-3979.6666666666665,4198.75,10
2024-06-15 14:13:14,0.05742133409,0.0232128799,0.2040289938,-2.121262789,-10.09156036,0.05267243832,-532.7582417582418,128.71428571428572,1262.7032967032967,-6492.175824175824,-4055.230769230769,4047.593406593407,10
2024-06-15 14:13:14,0.05742133409,0.0232128799,0.2040289938,-2.121262789,-10.09156036,0.05267243832,-586.7764705882353,470.56470588235294,1304.3411764705882,-6687.082352941176,-3514.5529411764705,3788.658823529412,10
2024-06-15 14:13:14,0.1111774743,-0.07452555746,0.2076941878,-2.45166254,-9.691728592,-0.1029506698,-1817.730337078652,103.65168539325845,963.1573033707864,-6705.3707865168535,-3756.2921348314608,3753.280898876405,10
2024-06-15 14:13:14,0.1148426682,-0.04520402849,0.3323107064,-2.810792685,-9.844957352,0.3615244627,-2792.3888888888887,-293.8222222222222,994.9,-6928.055555555556,-3749.8888888888887,3534.9,10
2024-06-15 14:13:14,0.1148426682,-0.04520402849,0.3323107064,-2.810792685,-9.844957352,0.3615244627,-2417.224719101124,-356.8314606741573,1420.5505617977528,-6928.70786516854,-3866.9438202247193,3226.9775280898875,10
2024-06-15 14:13:15,0.3213151097,-0.1490511149,0.5522221923,-4.062960148,-10.23281765,0.8786720037,-2328.181818181818,170.9659090909091,1328.2272727272727,-6864.579545454545,-3920.670454545456,3094.465909090909,10
2024-06-15 14:13:15,0.3213151097,-0.1490511149,0.5522221923,-4.939238071,-9.658209801,1.101332784,-1654.4137931034484,419.5172413793104,1426.2758620689656,-7160.793103448276,-3923.379310344827,2728.310344827586,10
2024-06-15 14:13:15,0.2565633953,-0.6462954283,0.8759807348,-4.939238071,-9.658209801,1.101332784,-543.1182795698925,474.0,1751.505376344086,-7621.236559139785,-3359.1612903225805,2839.258064516129,10
2024-06-15 14:13:15,0.08796459436,-0.8906415105,0.9150761366,-5.549759388,-7.872135162,1.213860273,243.6805555555556,731.3611111111111,1513.4583333333333,-7680.291666666667,-2485.0,2461.152777777778,10
2024-06-15 14:13:15,0.08796459436,-0.8906415105,0.9150761366,-5.549759388,-7.872135162,1.213860273,477.70833333333337,849.4166666666666,1136.375,-7944.875,-2285.0,2568.7916666666665,10
2024-06-15 14:13:15,0.1429424733,-1.001819015,0.625526011,-5.633556366,-7.098807812,2.7509377,94.89655172413794,702.5172413793103,458.4712643678161,-7674.597701149425,-2345.0344827586205,1983.436781609196,10
2024-06-15 14:13:15,0.5681046844,-0.8417723179,0.3567453027,-5.492298603,-6.052541733,4.077325344,-2.431818181818187,405.6363636363636,213.45454545454547,-7600.704545454545,-2386.2272727272725,2131.7727272727275,10
2024-06-15 14:13:15,0.5681046844,-0.8417723179,0.3567453027,-5.492298603,-6.052541733,4.077325344,-5.200000000000003,521.6,239.26666666666665,-8098.533333333334,-2229.133333333333,2115.333333333333,10
2024-06-15 14:13:15,0.5583308339,-0.5705481172,0.05375614017,-5.243301868,-5.291185856,5.449203014,211.72527472527472,530.1758241758241,651.5714285714286,-8003.076923076923,-1900.6593406593408,1799.6813186813188,10
2024-06-15 14:13:15,0.444709897,-0.3371976018,-0.0415388383,-4.726154327,-5.214571476,6.224924564,487.2941176470589,838.6,414.5176470588235,-8090.15294117647,-1705.4117647058824,1578.9529411764706,10
2024-06-15 14:13:16,0.444709897,-0.3371976018,-0.0415388383,-4.726154327,-5.214571476,6.224924564,396.14606741573033,432.8876404494382,-9.584269662921372,-8231.38202247191,-1702.573033707865,1414.865168539326,10
2024-06-15 14:13:16,0.5497786999,-0.07574728876,-0.03176499158,-4.71657753,-4.795586109,6.617573261,626.2045454545455,224.51136363636363,45.43181818181819,-8266.931818181818,-1753.534090909091,1630.3068181818182,10
2024-06-15 14:13:16,0.5497786999,-0.07574728876,-0.03176499158,-4.71657753,-4.795586109,6.617573261,392.6195652173913,373.5108695652174,-48.42391304347826,-8242.402173913044,-1667.4891304347825,1535.0434782608695,10
2024-06-15 14:13:16,0.3958406746,-0.0293215327,0.003665191587,-4.879383087,-4.288015366,7.539340973,431.0,232.66666666666663,-73.0,-8295.666666666666,-1808.6666666666667,1272.6666666666667,10
2024-06-15 14:13:16,0.3714060783,-0.04764748737,0.05742133409,-4.967968464,-3.811569214,7.441178799,587.4634146341464,183.2682926829268,79.60975609756098,-8099.5609756097565,-1876.8292682926829,1270.5853658536585,10
2024-06-15 14:13:16,0.3714060783,-0.04764748737,0.05742133409,-4.967968464,-3.811569214,7.441178799,570.1648351648352,193.05494505494505,51.472527472527474,-8006.065934065934,-1706.6483516483515,1271.7252747252746,10
2024-06-15 14:13:16,0.3042109013,-0.05497787148,0.07452555746,-4.730942726,-3.366247654,7.778761387,950.5333333333332,263.53333333333336,421.33333333333337,-7869.533333333334,-1614.0666666666666,1324.8,10
2024-06-15 14:13:16,0.2675589919,-0.06108652428,0.02687807009,-4.975151062,-2.743755102,7.888894558,1170.2954545454545,903.9318181818182,907.2045454545456,-8622.022727272728,-1372.8636363636365,1071.2272727272727,10
2024-06-15 14:13:16,0.2675589919,-0.06108652428,0.02687807009,-4.975151062,-2.743755102,7.888894558,286.6629213483146,436.0,267.59550561797755,-8230.932584269663,-1315.3370786516855,810.9775280898876,10
2024-06-15 14:13:16,0.3640756905,-0.03054326214,0.0415388383,-4.783615112,-2.164358377,8.418013573,-427.93125,551.93125,-17.1875,-8641.875,-1570.85625,806.16875,10
2024-06-15 14:13:17,0.3640756905,-0.03054326214,0.0415388383,-4.783615112,-2.164358377,8.418013573,-199.7,105.45,219.9,-8082.6,-1313.6,710.7,10
2024-06-15 14:13:17,0.3995058835,-0.06230825558,0.04764748737,-4.807557106,-2.087743998,8.173804283,5.235955056179775,62.13483146067416,566.9775280898876,-8447.966292134832,-1077.1460674157304,702.6966292134831,10
2024-06-15 14:13:17,0.196698606,-0.007330383174,0.05864306539,-4.740519524,-1.52510643,8.310274124,356.61290322580646,-149.2258064516129,446.8387096774194,-8539.354838709678,-787.4193548387096,1048.6774193548388,10
2024-06-15 14:13:17,0.196698606,-0.007330383174,0.05864306539,-4.740519524,-1.52510643,8.310274124,299.4,-184.8,-48.2,-8264.8,-1046.2,1091.4,10
2024-06-15 14:13:17,0.1319468915,-0.004886921961,0.05864306539,-4.817133904,-1.010353088,8.451532364,500.5,-255.7888888888889,272.7111111111111,-8481.522222222222,-750.2222222222222,1071.8666666666666,10
2024-06-15 14:13:17,0.1319468915,-0.004886921961,0.05864306539,-4.817133904,-1.010353088,8.451532364,1050.896551724138,-587.8620689655172,-104.72413793103448,-8500.689655172413,-756.3103448275862,1361.2068965517242,10
2024-06-15 14:13:17,0.2809980214,-0.04398229718,0.05619960278,-5.030217648,-0.8643068075,8.537723541,1109.715909090909,-405.9886363636364,-198.8068181818182,-8156.5,-665.2727272727273,1429.2386363636365,10
2024-06-15 14:13:17,0.2101376504,-0.03176499158,0.06475171447,-4.788403511,-0.4812345505,8.410830498,1041.421052631579,-309.52631578947364,-347.2105263157895,-8103.842105263157,-728.0,1496.6842105263158,10
2024-06-15 14:13:17,0.2101376504,-0.03176499158,0.06475171447,-4.788403511,-0.4812345505,8.410830498,791.5243902439024,-203.4390243902439,-843.5121951219512,-8159.609756097561,-1061.1341463414635,1493.7560975609756,10
2024-06-15 14:13:17,0.106290549,-0.008552113548,0.00122173049,-4.695029736,0.02394201607,8.506598473,255.3636363636364,-517.6363636363636,-994.090909090909,-8106.0,-987.3636363636364,1794.8181818181818,10
2024-06-15 14:13:18,0.1661553532,0.01588249579,0.04520402849,-4.795586109,0.1292868853,8.305485725,192.3033707865169,-236.3258426966292,-1866.6741573033707,-8260.719101123595,-1614.0337078651685,1913.191011235955,10
2024-06-15 14:13:18,0.1661553532,0.01588249579,0.04520402849,-4.795586109,0.1292868853,8.305485725,561.3085106382979,-534.1382978723404,-1650.8617021276596,-8303.91489361702,-1917.308510638297,1781.968085106383,10
2024-06-15 14:13:18,0.1527163088,0.007330383174,0.006108652335,-4.79319191,0.4692635238,8.288725853,508.2,-621.4,-1398.0,-8187.6,-2083.2,2058.4,10
2024-06-15 14:13:18,0.1527163088,0.007330383174,0.006108652335,-4.79319191,0.4692635238,8.288725853,-22.52910052910053,-987.2169312169312,-1591.867724867725,-7846.9047619047615,-2085.322751322751,2341.015873015873,10
2024-06-15 14:13:18,0.06352998316,-0.006108652335,-0.00244346098,-4.845864296,0.3423708379,8.32463932,49.95767195767196,-1010.4973544973544,-1484.989417989418,-7965.952380952381,-2254.10582010582,2237.84126984127,10
2024-06-15 14:13:18,0.07330382615,0.01466076635,0.03787364438,-4.786009312,0.5530605912,8.185775757,-191.265625,-1215.5625,-1547.4765625,-7365.296875,-2767.6015625,2908.0859375,10
2024-06-15 14:13:18,0.07330382615,0.01466076635,0.03787364438,-4.786009312,0.5530605912,8.185775757,-251.1875,-753.3125,-1579.125,-7487.8125,-2998.03125,3085.5625,10
2024-06-15 14:13:18,-0.2076941878,0.01466076635,-0.07086037099,-4.879383087,1.082179189,8.090007782,-217.4651162790697,-778.0232558139535,-1344.1162790697674,-7441.581395348837,-3261.6744186046512,3162.232558139535,10
2024-06-15 14:13:18,-0.9834930301,-0.0354301855,-0.1747074574,-4.582501888,0.03351882473,8.006210327,-501.31111111111113,-834.9555555555555,-1001.5777777777778,-7078.466666666666,-3634.1111111111113,3000.177777777778,10
2024-06-15 14:13:19,-1.634675384,-0.03176499158,-0.290771842,-4.570530891,-2.310404539,7.69017601,-224.8571428571429,-884.4285714285714,-1128.857142857143,-6905.571428571428,-3829.857142857143,3421.5714285714284,10
2024-06-15 14:13:19,-1.651779652,0.248011291,0.03909537569,-4.357447147,-4.398148537,6.351817131,-246.1379310344828,-441.4942528735632,-741.5172413793103,-6582.770114942528,-4373.816091954023,3312.1494252873563,10
2024-06-15 14:13:19,-1.651779652,0.248011291,0.03909537569,-4.357447147,-4.398148537,6.351817131,-573.4545454545455,-452.95454545454544,-439.3409090909091,-6578.659090909091,-4411.568181818182,3661.045454545456,10
2024-06-15 14:13:19,-1.312138557,1.154535294,-0.003665191587,-3.833117008,-4.656722069,4.261679173,-486.4606741573034,-384.6067415730337,-218.56179775280896,-6310.91011235955,-4272.876404494382,3710.0,10
2024-06-15 14:13:19,-1.312138557,1.154535294,-0.003665191587,-3.833117008,-4.656722069,4.261679173,-395.9130434782609,-167.47826086956522,-213.5652173913044,-6311.652173913043,-4309.913043478261,3698.130434782609,10
2024-06-15 14:13:19,0.1514945775,1.781283021,-1.048244715,-4.67827034,-7.752425194,2.023100376,-198.81395348837208,-297.3255813953488,-363.7325581395349,-6288.290697674419,-4683.674418604651,3709.6627906976746,10
2024-06-15 14:13:19,0.8087855577,0.9749409556,-2.45690012,-3.904942989,-10.76433086,3.490746021,-214.75,-310.22727272727275,-353.97727272727275,-6483.159090909091,-4678.727272727273,3696.590909090909,10
2024-06-15 14:13:19,0.8087855577,0.9749409556,-2.45690012,-3.904942989,-10.76433086,3.490746021,-197.38636363636363,-276.875,-306.15909090909093,-6449.795454545455,-4507.090909090909,3683.318181818182,10
2024-06-15 14:13:19,-0.1649336219,0.228463605,-1.459967971,-1.881842494,-12.12663174,3.088520288,-334.52272727272725,-27.5,-329.04545454545456,-6434.681818181818,-4578.863636363636,3664.909090909091,10
2024-06-15 14:13:20,-0.2345722616,0.1514945775,-0.2858849466,-1.711854219,-11.07078838,1.537077546,-282.46067415730334,-368.0674157303371,-115.76404494382022,-6135.808988764045,-4580.76404494382,3700.123595505618,10
2024-06-15 14:13:20,0.02443460934,0.008552113548,0.3616322279,-0.8451532125,-10.39562416,2.250549555,-46.66906474820144,-335.41007194244605,60.89928057553957,-6098.769784172662,-4542.438848920863,3500.0,10
2024-06-15 14:13:20,0.02443460934,0.008552113548,0.3616322279,-0.8451532125,-10.39562416,2.250549555,-248.8273381294964,-304.47482014388487,70.25179856115108,-6091.575539568345,-4537.402877697842,3500.0,10
2024-06-15 14:13:20,0.1661553532,-0.06597344577,0.1148426682,-0.4046200812,-9.263166428,2.456450939,-308.4767441860465,38.627906976744185,-17.127906976744185,-6096.790697674419,-4575.0,3527.9186046511627,10
2024-06-15 14:13:20,0.2260201424,-0.004886921961,-0.1918116808,-0.7469909191,-9.634267807,1.788468719,-301.55056179775283,52.82022471910112,-89.06741573033707,-6087.056179775281,-4570.887640449439,3503.213483146068,10
2024-06-15 14:13:20,0.2260201424,-0.004886921961,-0.1918116808,-0.7469909191,-9.634267807,1.788468719,-38.35955056179776,-81.38202247191012,-23.17977528089888,-6105.797752808989,-4532.595505617977,3488.38202247191,10
2024-06-15 14:13:20,0.1087340117,-0.05497787148,-0.0720821023,-0.3782838583,-10.09395409,2.863465309,-284.32954545454544,304.5681818181818,531.2272727272727,-6447.647727272727,-4688.386363636364,3461.875,10
2024-06-15 14:13:20,0.1087340117,-0.05497787148,-0.0720821023,-0.3782838583,-10.09395409,2.863465309,-558.0280898876405,528.6179775280899,1289.8988764044943,-6281.601123595506,-4279.741573033708,3605.977528089888,10
2024-06-15 14:13:20,0.1673770845,0.004886921961,-0.01466076635,-0.5482721925,-9.255983353,2.865859509,-415.52222222222224,432.26666666666665,1623.7666666666669,-6677.811111111111,-4430.788888888889,3579.8,10
2024-06-15 14:13:20,0.1038470939,0.1148426682,-0.1563815027,-0.356736064,-9.48343277,2.782062292,-539.4578313253012,962.421686746988,2015.301204819277,-6903.987951807229,-3799.807228915663,3041.6506024096384,10
2024-06-15 14:13:21,0.1038470939,0.1148426682,-0.1563815027,-0.356736064,-9.48343277,2.782062292,-810.3928571428571,370.6428571428572,1196.857142857143,-7226.821428571428,-3519.035714285714,2762.8571428571427,10
2024-06-15 14:13:21,0.3506366611,-0.03665191308,-0.08063421398,0.04788403213,-9.236829758,3.852270603,-1226.3763440860216,127.10752688172045,911.2150537634408,-7456.129032258064,-3350.032258064516,2807.860215053764,10
2024-06-15 14:13:21,0.3946189582,0.2541199327,-0.1075122803,0.107739076,-8.863334656,4.031835556,-2482.6976744186045,2.279069767441854,1342.9302325581396,-7283.186046511628,-3397.953488372093,2672.2441860465115,10
2024-06-15 14:13:21,0.3946189582,0.2541199327,-0.1075122803,0.107739076,-8.863334656,4.031835556,-2434.090909090909,502.77272727272725,1034.909090909091,-7352.272727272727,-3296.090909090909,2337.181818181818,10
2024-06-15 14:13:21,-0.2528982162,0.1050688252,-0.05619960278,-1.170764685,-8.971074104,4.264073372,-1280.5581395348836,494.13953488372096,1040.0697674418604,-7610.0,-3271.3255813953488,2079.4651162790697,10
2024-06-15 14:13:21,-0.2528982162,0.1050688252,-0.05619960278,-1.170764685,-8.971074104,4.264073372,-237.10112359550567,789.2022471910112,1096.3820224719102,-7630.426966292135,-3076.8988764044943,1703.0,10
2024-06-15 14:13:21,0.1123992056,-0.2382374406,0.1343903542,-0.04548983276,-10.25436592,4.084507942,395.61290322580646,412.6559139784946,1013.537634408602,-7843.118279569892,-2908.763440860216,1873.1827956989248,10
2024-06-15 14:13:21,-0.5204572082,-0.1246165112,0.2577851415,-0.2801215947,-9.311050415,3.447650433,1287.2773722627735,152.55474452554745,1166.2992700729926,-7914.204379562044,-2594.2408759124087,1713.912408759124,10
2024-06-15 14:13:21,-0.5204572082,-0.1246165112,0.2577851415,-0.2801215947,-9.311050415,3.447650433,1253.7974683544303,-98.16455696202532,387.1012658227848,-7890.7594936708865,-2094.5696202531644,2087.126582278481,10
2024-06-15 14:13:21,0.00122173049,-0.2565633953,0.09285151958,-1.051054597,-9.380482674,4.175487995,1197.8636363636365,-1.3636363636363598,334.82954545454544,-7905.363636363636,-1957.090909090909,1968.5681818181813,10
2024-06-15 14:13:22,-0.389732033,0.05375614017,0.7819074988,-1.699883223,-10.39562416,3.246537447,729.0,68.06741573033707,-35.38202247191011,-7835.853932584269,-1682.4606741573034,1993.76404494382,10
2024-06-15 14:13:22,-0.389732033,0.05375614017,0.7819074988,-1.699883223,-10.39562416,3.246537447,300.7977528089888,48.64044943820225,154.67415730337078,-7893.696629213483,-1912.123595505618,1974.3820224719104,10
2024-06-15 14:13:22,-0.3433062732,-0.2296853364,1.127657294,-2.71502471,-10.3261919,2.26970315,304.02173913043475,-3.608695652173913,341.1521739130435,-8159.5,-1893.5217391304348,1943.804347826087,10
2024-06-15 14:13:22,-0.3433062732,-0.2296853364,1.127657294,-2.71502471,-10.3261919,2.26970315,183.9655172413793,-106.27586206896552,453.3793103448276,-8233.724137931034,-1838.2413793103449,1968.344827586207,10
2024-06-15 14:13:22,-0.2223549485,-0.6047565937,1.083674908,-4.005499363,-8.923190117,2.114080191,156.3,120.9,279.5,-8170.5,-1429.0,1987.9,10
2024-06-15 14:13:22,-0.05864306539,-0.6536257863,0.8515461683,-4.922478676,-7.927201748,2.312798738,88.1304347826087,-109.18478260869566,-2.8260869565217392,-8240.152173913044,-1190.25,1950.1521739130435,10
2024-06-15 14:13:22,-0.05864306539,-0.6536257863,0.8515461683,-4.922478676,-7.927201748,2.312798738,-314.1162790697674,90.65116279069768,100.65116279069768,-8286.279069767443,-1236.953488372093,1972.3953488372088,10
2024-06-15 14:13:22,0.4214970171,-0.7415903807,0.5497786999,-5.68383503,-7.570465565,3.038241863,-216.86666666666667,-52.23333333333333,-76.33333333333334,-8273.366666666667,-1346.3,2001.3,10
2024-06-15 14:13:22,0.2394591719,-0.7024950385,0.3029891551,-5.475539207,-6.208165169,4.295197964,-49.66666666666667,13.0,-87.33333333333333,-8227.666666666666,-1560.0,2123.6666666666665,10
2024-06-15 14:13:22,0.2394591719,-0.7024950385,0.3029891551,-5.475539207,-6.208165169,4.295197964,285.9714285714286,27.62857142857144,-333.4,-8220.485714285714,-1572.4857142857145,2336.2,10
2024-06-15 14:13:23,0.5852088928,-0.5009095073,0.08429940045,-5.137956619,-5.54018259,5.61679697,220.17543859649123,-72.14035087719299,-163.42105263157896,-8216.228070175439,-1596.6491228070176,2337.2631578947367,10
2024-06-15 14:13:23,0.5852088928,-0.5009095073,0.08429940045,-4.917690277,-5.317522049,6.234501362,555.2758620689655,291.48275862068965,-243.86206896551724,-8271.51724137931,-1467.655172413793,1992.0,10
2024-06-15 14:13:23,0.4752531648,-0.3714060783,0.0109955743,-4.917690277,-5.317522049,6.234501362,480.1428571428572,69.85714285714286,-205.78571428571428,-8196.464285714286,-1540.107142857143,2028.642857142857,10
2024-06-15 14:13:23,0.4569272101,-0.1942551434,0.04764748737,-4.642356873,-4.745307922,6.995857239,459.3414634146342,-256.3658536585366,-499.4146341463415,-8235.121951219513,-1444.560975609756,2283.7073170731705,10
2024-06-15 14:13:23,0.4569272101,-0.1942551434,0.04764748737,-4.642356873,-4.745307922,6.995857239,664.1460674157304,-328.91011235955057,42.39325842696629,-7893.775280898876,-1486.685393258427,2195.2696629213483,10
2024-06-15 14:13:23,0.3946189582,-0.1209513173,0.09651670605,-4.826710701,-4.412513733,7.28555584,990.7586206896552,-294.17241379310343,-229.1034482758621,-7886.0,-1646.3103448275865,2212.103448275862,10
2024-06-15 14:13:23,0.6426302195,-0.1221730486,0.0232128799,-4.79319191,-3.734954596,7.838616371,605.7272727272727,-62.90909090909091,-577.0909090909091,-8216.181818181818,-1611.3636363636365,2234.818181818182,10
2024-06-15 14:13:23,0.6426302195,-0.1221730486,0.0232128799,-4.79319191,-3.734954596,7.838616371,107.375,-488.25,-760.0,-8099.0,-1580.25,2612.0,10
2024-06-15 14:13:23,0.3750712574,-0.1136209369,0.03420845419,-4.565742493,-2.868253708,7.963114738,-143.0,-764.5,-1010.0,-8018.5,-1793.5,2669.0,10
2024-06-15 14:13:23,0.428827405,-0.04764748737,0.08796459436,-4.548983097,-2.659958124,8.262390137,-351.9886363636364,-486.52272727272725,-1039.6477272727273,-7965.193181818182,-2144.4886363636365,2895.2613636363635,10
2024-06-15 14:13:24,0.428827405,-0.04764748737,0.08796459436,-4.548983097,-2.659958124,8.262390137,-375.91011235955057,-601.561797752809,-866.0224719101124,-7637.528089887641,-2326.1011235955057,2763.5393258426966,10
2024-06-15 14:13:24,0.3848451078,-0.05009094998,0.05375614017,-4.446032524,-1.893813491,8.530540466,-499.8876404494382,-592.1910112359551,-779.7415730337078,-7763.640449438202,-2412.85393258427,3087.8426966292136,10
2024-06-15 14:13:24,0.3848451078,-0.05009094998,0.05375614017,-4.446032524,-1.893813491,8.530540466,-448.2840909090909,-522.0568181818181,-680.7272727272727,-7792.636363636364,-2607.022727272727,3157.204545454545,10
2024-06-15 14:13:24,0.5033529401,-0.04398229718,0.05986479297,-4.510675907,-1.556231141,8.540117264,-423.72222222222223,-581.1111111111111,-707.1666666666666,-7759.722222222223,-2486.333333333333,3147.833333333333,10
2024-06-15 14:13:24,0.4581489265,-0.09162978828,0.04276056588,-4.42448473,-0.8499416113,8.499416351,-450.0860215053763,-522.3978494623656,-903.47311827957,-7400.032258064516,-2944.2258064516127,2966.7419354838707,10
2024-06-15 14:13:24,0.4581489265,-0.09162978828,0.04276056588,-4.42448473,-0.8499416113,8.499416351,-608.0930232558139,-721.6511627906976,-961.7674418604652,-7379.860465116279,-3159.4651162790697,3359.558139534884,10
2024-06-15 14:13:24,0.3469714522,-0.05131268129,0.03298672289,-4.467580318,-0.08619125932,8.607154846,-218.45070422535213,-459.8380281690141,-995.943661971831,-7103.704225352113,-3423.950704225352,3243.3661971830984,10
2024-06-15 14:13:24,0.1368338168,-0.03176499158,0.01832595654,-4.333505154,0.2920926213,8.73404789,-197.32394366197184,-468.9929577464789,-986.0845070422536,-7076.943661971831,-3452.823943661972,3257.450704225352,10
2024-06-15 14:13:24,0.1368338168,-0.03176499158,0.01832595654,-4.333505154,0.2920926213,8.73404789,-215.97619047619048,-183.57142857142856,-1330.7380952380952,-6982.571428571428,-3711.690476190476,3625.619047619048,10
2024-06-15 14:13:24,0.1905899495,-0.003665191587,0.06719517708,-4.376600742,0.3998316824,8.796297073,-300.735632183908,-271.1034482758621,-1079.1149425287356,-6730.609195402299,-4139.402298850575,3527.5632183908046,10
2024-06-15 14:13:25,0.1905899495,-0.003665191587,0.06719517708,-4.376600742,0.3998316824,8.796297073,-30.200000000000003,43.8,-1054.0,-6739.4,-4441.2,3465.8,10
2024-06-15 14:13:25,0.2394591719,-0.01954768784,0.0293215327,-4.240131378,0.6799532771,8.616731644,139.77777777777777,80.97777777777777,-821.4222222222222,-6408.355555555556,-4462.222222222223,3461.3555555555554,10
2024-06-15 14:13:25,0.02199114859,-0.008552113548,0.01954768784,-4.261679173,0.9959878922,8.609549522,157.0222222222222,-60.94444444444444,-135.57777777777778,-6365.722222222223,-4429.844444444445,3506.833333333333,10
2024-06-15 14:13:25,0.02199114859,-0.008552113548,0.01954768784,-4.261679173,0.9959878922,8.609549522,236.80459770114945,149.29885057471265,8.172413793103448,-6722.781609195402,-4356.367816091954,3492.770114942529,10
2024-06-15 14:13:25,0.1404990107,-0.004886921961,0.0,-4.285621166,1.235408068,8.621520042,-63.53488372093023,214.38372093023256,214.16279069767444,-6587.0,-4047.186046511628,3689.255813953489,10
2024-06-15 14:13:25,-0.04642575979,0.01343903504,-0.04642575979,-4.256890774,1.22822547,8.437167168,109.15730337078652,286.4494382022472,585.1348314606741,-6587.2808988764045,-4106.865168539326,3619.6516853932585,10
2024-06-15 14:13:25,-0.04642575979,0.01343903504,-0.04642575979,-4.256890774,1.22822547,8.437167168,55.06741573033708,119.01123595505618,466.8876404494382,-6954.516853932584,-3782.921348314607,3647.123595505618,10
2024-06-15 14:13:25,-0.6145304441,-0.00122173049,-0.1050688252,-4.288015366,0.9457096457,8.35097599,-346.7752808988764,-165.61797752808988,254.438202247191,-6884.6292134831465,-3872.52808988764,3567.191011235955,10
2024-06-15 14:13:25,-0.6145304441,-0.00122173049,-0.1050688252,-4.288015366,0.9457096457,8.35097599,-576.804347826087,-349.2173913043478,693.9782608695652,-6984.130434782609,-3509.9239130434785,3671.467391304348,10
2024-06-15 14:13:25,-1.390329242,-0.05986479297,-0.2186897546,-4.077325344,-0.9457096457,8.358158112,-1075.2413793103449,-374.2758620689655,1056.4137931034484,-7008.482758620689,-3546.344827586207,3668.5172413793102,10
2024-06-15 14:13:26,-1.749518037,-0.06719517708,-0.2260201424,-4.163516521,-3.835511208,7.611167431,-769.6966292134831,283.51685393258424,997.7303370786516,-7029.921348314607,-3876.921348314607,3211.741573033708,10
2024-06-15 14:13:26,-1.749518037,-0.06719517708,-0.2260201424,-4.163516521,-3.835511208,7.611167431,-266.25,-66.5,1575.5,-7258.75,-3276.5,3224.25,10
2024-06-15 14:13:26,-1.259604096,0.2199114859,0.00122173049,-3.823540211,-5.403713226,6.777985096,-405.1020408163265,92.3469387755102,1012.2857142857144,-7305.265306122449,-3343.551020408164,3268.6938775510203,10
2024-06-15 14:13:26,-0.1808161139,0.7880161405,-0.05009094998,-3.538630009,-5.336675644,5.470750809,-297.6190476190476,153.57142857142856,764.6666666666667,-7432.476190476191,-2923.1428571428573,3391.1428571428573,10
2024-06-15 14:13:26,-0.1808161139,0.7880161405,-0.05009094998,-3.538630009,-5.336675644,5.470750809,334.08641975308643,581.9753086419753,697.5432098765432,-7368.728395061728,-2503.135802469136,3386.185185185185,10
2024-06-15 14:13:26,-0.1209513173,1.505172014,-0.616973877,-4.295197964,-6.160281181,3.655946016,506.4,801.6,525.5333333333333,-7556.8,-2544.133333333333,3362.9333333333334,10
2024-06-15 14:13:26,-0.1209513173,1.505172014,-0.616973877,-4.295197964,-6.160281181,3.655946016,474.8965517241379,707.4827586206897,412.264367816092,-7675.022988505747,-2629.862068965517,3002.1954022988507,10
2024-06-15 14:13:26,0.0415388383,1.755626678,-1.958433986,-4.553771496,-8.590395927,1.805228114,948.2,830.0222222222222,964.2222222222222,-7860.822222222222,-2205.4666666666667,2909.3555555555554,10
2024-06-15 14:13:26,-1.527163148,-0.3958406746,-2.412917614,-1.625662923,-12.6485672,3.751713991,498.7362637362637,697.2747252747253,802.2307692307693,-7772.417582417583,-1831.912087912088,2730.362637362637,10
2024-06-15 14:13:26,-1.527163148,-0.3958406746,-2.412917614,-1.625662923,-12.6485672,3.751713991,350.45454545454544,431.0909090909091,817.5454545454545,-8004.545454545455,-1521.2727272727273,2830.2727272727275,10
2024-06-15 14:13:27,0.3762930036,-0.3762930036,-0.2968805134,-1.146822572,-11.6908865,1.201889277,-165.5,215.0,567.0,-7860.0,-1451.5,2525.0,10
2024-06-15 14:13:27,0.6316346526,-0.4593706727,0.2626720667,0.6344634295,-10.07480049,1.714248419,-569.0864197530864,363.8395061728395,556.7530864197531,-7908.740740740741,-1474.3086419753083,2467.8888888888887,10
2024-06-15 14:13:27,0.6316346526,-0.4593706727,0.2626720667,0.6344634295,-10.07480049,1.714248419,-785.5555555555555,-299.5333333333333,578.8666666666667,-8285.333333333334,-1234.6888888888889,2610.733333333333,10
2024-06-15 14:13:27,-0.2553416789,-0.0354301855,-0.09162978828,0.2561795712,-9.301473618,1.994369984,-1417.89010989011,-331.53846153846155,946.934065934066,-8207.043956043955,-1256.901098901099,2623.945054945055,10
2024-06-15 14:13:27,-0.2553416789,-0.0354301855,-0.09162978828,0.2561795712,-9.301473618,1.994369984,-1752.494382022472,-501.23595505617976,909.5393258426966,-8214.595505617977,-1371.0337078651685,2666.078651685393,10
2024-06-15 14:13:27,-1.379333735,0.1050688252,0.06475171447,-0.4381389022,-10.83376312,0.117315881,-1737.4395604395604,-475.0219780219781,766.8901098901099,-7918.857142857143,-1391.4615384615386,2674.3736263736264,10
2024-06-15 14:13:27,1.251052022,0.03298672289,0.1185078546,-0.04788403213,-10.01733971,0.3806780577,-1310.103825136612,-446.0,476.2677595628416,-7888.540983606557,-1307.295081967213,2885.262295081968,10
2024-06-15 14:13:27,1.251052022,0.03298672289,0.1185078546,-0.04788403213,-10.01733971,0.3806780577,-1384.4207650273224,-546.0,478.4535519125683,-7870.508196721312,-1297.4590163934429,2909.8524590163934,10
2024-06-15 14:13:27,0.0293215327,0.05742133409,0.03787364438,-0.3471592367,-9.572018623,1.441309452,-646.8625,223.0375,442.6,-7882.675,-1095.4,2894.4375,10
2024-06-15 14:13:27,-0.02076941915,-0.04642575979,0.1209513173,-0.825999558,-10.02452278,1.400607944,-593.1702127659574,318.13475177304963,563.1418439716313,-8116.86524822695,-873.1418439716313,2871.6099290780144,10
2024-06-15 14:13:28,-0.02076941915,-0.04642575979,0.1209513173,-0.825999558,-10.02452278,1.400607944,595.5581395348837,122.90697674418604,-269.63953488372096,-7931.53488372093,-852.5232558139535,2518.7558139534885,10
2024-06-15 14:13:28,0.2467895597,-0.1050688252,0.06230825558,-0.4692635238,-9.56004715,1.704671621,867.8977272727273,64.51136363636364,-203.63636363636363,-8002.829545454545,-670.8636363636364,2534.829545454545,10
2024-06-15 14:13:28,0.2467895597,-0.1050688252,0.06230825558,-0.4692635238,-9.56004715,1.704671621,1290.6818181818182,-301.29545454545456,-544.1363636363636,-8316.318181818182,-872.3636363636364,2830.909090909091,10
2024-06-15 14:13:28,-0.05742133409,-0.1233947799,-0.04398229718,-0.5602431893,-9.880870819,1.807622313,1206.3977272727273,-225.22727272727272,-465.52272727272725,-8060.090909090909,-871.9772727272727,2708.375,10
2024-06-15 14:13:28,0.03054326214,-0.1905899495,-0.009773843922,-0.7565677166,-9.943120003,1.812410712,2042.8,124.8,-448.8,-7842.0,-1079.3666666666666,3120.5,10
2024-06-15 14:13:28,0.03054326214,-0.1905899495,-0.009773843922,-0.7565677166,-9.943120003,1.812410712,2175.8444444444444,231.9,-497.0111111111111,-7871.144444444444,-798.8555555555556,2879.488888888889,10
2024-06-15 14:13:28,0.0109955743,-0.1820378453,0.09162978828,-0.5506663918,-9.919178009,1.795651317,1773.0224719101125,294.6966292134832,-211.5505617977528,-8239.370786516854,-400.9438202247191,2710.4157303370785,10
2024-06-15 14:13:28,-0.003665191587,-0.1148426682,0.0109955743,-0.4477157295,-9.81143856,1.8602947,1055.0666666666666,50.46666666666667,-477.6666666666666,-8219.4,-589.3333333333334,2727.866666666667,10
2024-06-15 14:13:28,0.03909537569,-0.03420845419,-0.02199114859,-0.5195417404,-9.890447617,1.82198751,-319.6703296703297,-612.4395604395604,-1092.8351648351647,-7874.7692307692305,-790.8131868131868,3163.351648351648,10
2024-06-15 14:13:29,0.03909537569,-0.03420845419,-0.02199114859,-0.5195417404,-9.890447617,1.82198751,-552.1084337349398,-429.66265060240966,-1324.6626506024097,-8057.686746987952,-1007.3614457831324,3140.289156626506,10
2024-06-15 14:13:29,0.02565634064,0.07086037099,0.0171042271,-0.490811348,-9.907206535,1.951274395,-237.82222222222225,-616.6,-1394.0666666666666,-8008.711111111111,-1461.6666666666667,3339.333333333333,10
2024-06-15 14:13:29,0.01954768784,0.09773843735,0.0109955743,-0.6368576288,-9.87608242,1.833958507,-185.42857142857144,-801.7252747252747,-1631.978021978022,-7631.725274725275,-1711.3296703296703,3399.120879120879,10
2024-06-15 14:13:29,0.01954768784,0.09773843735,0.0109955743,-0.6368576288,-9.87608242,1.833958507,-397.1627906976744,-668.8139534883721,-1360.2790697674418,-7729.883720930233,-1726.8372093023256,3557.767441860465,10
2024-06-15 14:13:29,0.0171042271,0.1246165112,-0.00244346098,-0.6512228847,-9.84974575,1.845929503,-574.3333333333334,-756.6666666666666,-1068.0,-7692.0,-2028.6666666666667,3479.6666666666665,10
2024-06-15 14:13:29,0.05619960278,0.08307767659,0.007330383174,-0.8164227605,-9.753977776,1.889025092,-358.19310344827585,-418.80689655172415,-604.6758620689656,-7432.634482758621,-2340.406896551724,3570.786206896552,10
2024-06-15 14:13:29,0.05619960278,0.08307767659,0.007330383174,-0.8164227605,-9.753977776,1.889025092,-356.7333333333333,-568.6666666666666,-788.0,-7519.666666666667,-2501.4,3891.0,10
2024-06-15 14:13:29,0.01588249579,-0.05986479297,0.007330383174,-0.8164227605,-9.866505623,2.051830769,-13.344827586206897,-551.448275862069,-480.2758620689655,-7091.793103448276,-2823.0,3859.413793103448,10
2024-06-15 14:13:29,0.01588249579,-0.05986479297,0.007330383174,-0.8164227605,-9.866505623,2.051830769,-284.8965517241379,-623.9310344827586,-581.0344827586207,-7222.6551724137935,-2827.8275862068967,4110.620689655172,10
2024-06-15 14:13:30,0.09896016866,-0.004886921961,0.1001819,-0.85473001,-10.01733971,2.188300371,-210.46666666666667,-605.3555555555556,-734.0444444444445,-7069.755555555556,-2860.0222222222224,4152.955555555555,10
2024-06-15 14:13:30,0.09896016866,-0.004886921961,0.1001819,-0.85473001,-10.01733971,2.188300371,-367.54545454545456,-556.6363636363636,-674.0,-6834.454545454545,-3091.6363636363635,4206.363636363636,10
2024-06-15 14:13:30,0.08063421398,0.09040805697,0.1869247705,-1.031900883,-9.81143856,2.336740971,-338.89772727272725,-361.5454545454545,-616.5681818181819,-6953.886363636364,-3206.806818181818,4416.602272727273,10
2024-06-15 14:13:30,-0.07452555746,0.2638937831,0.1759291887,-0.9097966552,-9.785101891,2.375048161,-241.9655172413793,-237.3793103448276,-488.6551724137931,-6599.96551724138,-3414.0,4469.6551724137935,10
2024-06-15 14:13:30,-0.07452555746,0.2638937831,0.1759291887,-0.9097966552,-9.785101891,2.375048161,-517.9444444444445,-223.22222222222223,-842.5111111111111,-6543.222222222223,-3268.133333333333,4245.988888888889,10
2024-06-15 14:13:30,-0.02809980139,0.3946189582,0.07086037099,-1.537077546,-9.770736694,2.420537949,-196.7325581395349,-359.0348837209302,-395.5348837209302,-6753.058139534884,-3633.046511627907,4276.430232558139,10
2024-06-15 14:13:30,-0.02809980139,0.3946189582,0.07086037099,-1.537077546,-9.770736694,2.420537949,-149.38636363636363,4.363636363636363,-254.85227272727272,-6684.704545454545,-3501.306818181818,4282.670454545455,10
2024-06-15 14:13:30,0.2015855312,0.299323976,0.2015855312,-2.164358377,-9.823410034,1.826775908,-156.36363636363637,-4.147727272727273,-212.04545454545453,-6387.977272727273,-3850.306818181818,4259.693181818182,10
2024-06-15 14:13:30,0.1026253626,0.07330382615,0.3310889602,-2.71502471,-10.19211674,2.829946518,-321.6629213483146,-263.53932584269666,-223.86516853932585,-6374.2808988764045,-3861.258426966292,4259.359550561798,10
2024-06-15 14:13:30,0.1026253626,0.07330382615,0.3310889602,-2.71502471,-10.19211674,2.829946518,-347.4375,-177.0625,-553.5,-6319.1875,-3720.4375,4253.125,10
2024-06-15 14:13:31,0.2138028294,-0.1282816976,0.5595525503,-3.205836058,-9.595960617,2.583343744,-345.3541666666667,-351.36805555555554,-570.1666666666666,-6486.548611111111,-3718.3541666666665,4246.180555555556,10
2024-06-15 14:13:31,0.2064724565,0.08796459436,0.4129449129,-3.488351822,-8.422801971,2.56658411,-371.3975903614458,53.60240963855422,-247.3012048192771,-6483.457831325301,-3970.590361445783,4257.012048192771,10
2024-06-15 14:13:31,0.2064724565,0.08796459436,0.4129449129,-3.488351822,-8.422801971,2.56658411,-331.04651162790697,80.69767441860465,-341.13953488372096,-6469.0,-4126.604651162791,4264.976744186047,10
2024-06-15 14:13:31,0.06719517708,-0.235793978,0.3701843321,-4.606443882,-8.889671326,3.162740469,-363.0113636363636,61.77272727272727,-340.125,-6425.238636363636,-4148.727272727273,4258.738636363636,10
2024-06-15 14:13:31,0.06719517708,-0.235793978,0.3701843321,-4.606443882,-8.889671326,3.162740469,-378.81720430107526,88.66666666666667,-359.4193548387097,-6403.397849462365,-4187.451612903225,4246.290322580645,10
2024-06-15 14:13:31,0.4886921942,-0.3433062732,0.4153883755,-5.090072632,-6.859387875,4.314351559,-275.3,14.055555555555555,260.05555555555554,-6473.7444444444445,-4105.355555555556,4461.4,10
2024-06-15 14:13:31,0.4886921942,-0.3433062732,0.4153883755,-5.090072632,-6.859387875,4.314351559,-766.1818181818181,-210.0909090909091,271.04545454545456,-6334.545454545455,-4085.318181818182,4424.5,10
2024-06-15 14:13:31,0.6023131609,-0.4031710625,0.2883284092,-4.920084476,-5.877765179,5.516240597,-829.629213483146,-461.91011235955057,301.97752808988764,-6286.056179775281,-4019.561797752809,4383.5842696629215,10
2024-06-15 14:13:31,0.4642575979,-0.2846632004,0.1832595766,-4.819528103,-5.190629482,6.564900875,-547.1134020618557,28.945017182130584,167.8109965635739,-6061.573883161512,-4126.013745704468,4249.7250859106525,10
2024-06-15 14:13:32,0.4642575979,-0.2846632004,0.1832595766,-4.819528103,-5.190629482,6.564900875,-639.8969072164948,-31.192439862542955,179.8384879725086,-6070.508591065292,-4116.048109965635,4249.037800687285,10
2024-06-15 14:13:32,0.4679227769,-0.287106663,0.2125810981,-4.853046894,-4.757278919,7.048529625,-732.680412371134,-91.3298969072165,191.8659793814433,-6079.443298969072,-4106.082474226804,4248.350515463918,10
2024-06-15 14:13:32,0.4679227769,-0.287106663,0.2125810981,-4.443638325,-4.244919777,7.826645374,-1142.0967741935483,36.45161290322581,981.032258064516,-6286.258064516129,-3930.290322580645,4151.483870967742,10
2024-06-15 14:13:32,0.4630358517,-0.2748893499,0.3029891551,-4.443638325,-4.244919777,7.826645374,-1356.632183908046,243.5057471264368,100.42528735632185,-6311.172413793103,-4428.931034482759,3514.4597701149423,10
2024-06-15 14:13:32,0.2150245607,-0.1649336219,0.1588249654,-4.544194698,-3.390189648,7.95593214,-981.5,275.0,-385.0,-6529.0,-4378.5,3340.5,10
2024-06-15 14:13:32,0.2150245607,-0.1649336219,0.1588249654,-4.544194698,-3.390189648,7.95593214,-373.56179775280896,-260.123595505618,-805.2022471910112,-6538.539325842697,-4827.786516853933,3663.325842696629,10
2024-06-15 14:13:32,0.290771842,-0.06475171447,0.1722639948,-4.364629745,-3.01429987,8.152256966,149.78947368421052,-206.1578947368421,-448.328947368421,-6501.118421052632,-4520.210526315789,3696.171052631578,10
2024-06-15 14:13:32,0.3701843321,-0.003665191587,0.1637118906,-4.608838081,-1.920149803,8.259995461,226.1052631578948,-311.42105263157896,-463.4605263157895,-6442.565789473684,-4643.894736842105,3706.0394736842095,10
2024-06-15 14:13:32,0.3701843321,-0.003665191587,0.1637118906,-4.608838081,-1.920149803,8.259995461,134.73333333333332,-25.86666666666666,-225.9333333333333,-6292.2,-4639.266666666666,3734.8,10
2024-06-15 14:13:32,0.581543684,-0.03665191308,0.08429940045,-4.417302132,-2.032677174,8.113949776,129.0,-278.4888888888889,-132.86666666666667,-6359.488888888889,-4463.133333333333,3930.088888888889,10
2024-06-15 14:13:33,0.581543684,-0.03665191308,0.08429940045,-4.680664539,-1.417367458,8.295908928,-245.5402298850575,268.7701149425287,32.51724137931035,-6079.448275862069,-4396.873563218391,3516.114942528736,10
2024-06-15 14:13:33,0.2138028294,0.004886921961,0.07696902007,-4.680664539,-1.417367458,8.295908928,-1247.8172043010752,496.64516129032256,-24.634408602150543,-6307.83870967742,-4622.387096774193,3376.05376344086,10
2024-06-15 14:13:33,0.1539380401,-0.03665191308,0.04886921868,-4.517858505,-1.007958889,8.492233276,-972.448275862069,579.1724137931035,261.2298850574713,-6358.689655172414,-4902.528735632184,3391.632183908046,10
2024-06-15 14:13:33,0.1539380401,-0.03665191308,0.04886921868,-4.517858505,-1.007958889,8.492233276,-631.5777777777778,25.133333333333333,-16.377777777777776,-6386.911111111112,-4865.066666666667,3071.9777777777776,10
2024-06-15 14:13:33,0.1331686229,0.02809980139,0.1160643995,-4.707000732,-0.5626373887,8.532935143,-541.7333333333333,-245.96666666666667,-33.022222222222226,-6498.033333333334,-4488.566666666667,3357.733333333333,10
2024-06-15 14:13:33,0.3481931984,-0.009773843922,0.08185594529,-4.685452938,-0.3040636182,8.413225174,-716.0449438202247,-196.23595505617976,65.31460674157303,-6305.101123595506,-4506.528089887641,3369.8426966292136,10
2024-06-15 14:13:33,0.3481931984,-0.009773843922,0.08185594529,-4.685452938,-0.3040636182,8.413225174,-804.7640449438202,-176.561797752809,240.91011235955057,-6310.23595505618,-4548.696629213483,3425.438202247191,10
2024-06-15 14:13:33,0.2956587672,0.006108652335,0.08674286306,-4.630385876,0.5219359994,8.259995461,-656.9767441860465,-381.40697674418607,-328.3372093023256,-6119.127906976744,-4543.523255813953,3387.372093023256,10
2024-06-15 14:13:33,0.2956587672,0.006108652335,0.08674286306,-4.618414879,1.436521053,8.367734909,-606.1818181818182,214.25,-158.25,-6089.590909090909,-4957.5,3358.0454545454545,10
2024-06-15 14:13:33,0.2138028294,-0.004886921961,0.08429940045,-4.618414879,1.436521053,8.367734909,-141.22727272727272,469.89772727272725,-306.89772727272725,-6406.693181818182,-4821.238636363636,3147.3636363636365,10
2024-06-15 14:13:34,0.05375614017,-0.01954768784,0.03298672289,-4.675876141,1.446097851,8.288725853,494.4,957.6,-152.8,-6234.0,-4678.8,3070.4,10
2024-06-15 14:13:34,0.05375614017,-0.01954768784,0.03298672289,-4.675876141,1.446097851,8.288725853,418.0434782608696,1336.608695652174,36.173913043478265,-6390.0,-4611.869565217391,3160.4347826086955,10
2024-06-15 14:13:34,0.17715092,-0.003665191587,0.1014036313,-4.604049683,1.604115129,8.310274124,-9.799999999999995,1600.4,4.0,-6718.6,-5003.2,2503.8,10
2024-06-15 14:13:34,-0.07941248268,0.01954768784,0.05131268129,-4.592078686,1.568202138,8.173804283,365.77777777777777,1726.436507936508,-381.0634920634921,-6382.587301587301,-4824.36507936508,2557.436507936508,10
2024-06-15 14:13:34,-0.07941248268,0.01954768784,0.05131268129,-4.592078686,1.568202138,8.173804283,417.1392405063291,3057.4177215189875,627.1392405063291,-7175.430379746836,-4959.012658227848,994.26582278481,10
2024-06-15 14:13:34,0.03665191308,-0.04276056588,0.03054326214,-4.654327869,1.726219416,8.305485725,1104.9125683060108,1841.0601092896168,1084.9180327868853,-7533.475409836065,-4940.666666666667,865.4426229508197,10
2024-06-15 14:13:34,0.03665191308,-0.04276056588,0.03054326214,-4.654327869,1.726219416,8.305485725,1020.75956284153,1686.4153005464482,1068.5245901639344,-7528.55737704918,-4907.333333333333,853.9672131147541,10
2024-06-15 14:13:34,-0.03054326214,-0.01588249579,0.006108652335,-4.369418144,2.104503393,8.075642586,910.506329113924,-457.2151898734177,460.253164556962,-7510.987341772152,-4298.924050632912,1232.2025316455697,10
2024-06-15 14:13:34,-0.4459316432,-0.03176499158,-0.09162978828,-4.431667328,2.00873518,8.025363922,715.6444444444444,-1256.1888888888889,469.5444444444444,-7098.7444444444445,-4356.122222222222,1422.7111111111112,10
2024-06-15 14:13:34,-0.4459316432,-0.03176499158,-0.09162978828,-4.431667328,2.00873518,8.025363922,1108.3023255813953,-1368.046511627907,563.4186046511628,-7090.279069767442,-4017.6744186046512,1921.0,10
2024-06-15 14:13:35,-1.762957096,-0.06719517708,-0.338419348,-4.469974518,0.0191536136,8.142680168,930.4545454545456,-976.7272727272727,394.27272727272725,-7043.863636363636,-3840.284090909091,2619.4204545454545,10
2024-06-15 14:13:35,-2.052507162,0.1270599663,-0.2296853364,-4.27125597,-3.861847401,7.560888767,967.3626373626372,-871.0769230769231,736.3406593406594,-7205.494505494506,-3323.835164835165,2756.3846153846152,10
2024-06-15 14:13:35,-2.052507162,0.1270599663,-0.2296853364,-4.27125597,-3.861847401,7.560888767,-396.84705882352944,-412.7294117647059,1549.070588235294,-7080.894117647059,-2746.564705882353,3094.635294117647,10
2024-06-15 14:13:35,-1.352455616,0.6243042946,0.03054326214,-4.259284973,-4.137180328,6.536170483,-1255.89010989011,-470.7802197802198,1946.5824175824173,-7209.142857142857,-2846.516483516484,3350.098901098901,10
2024-06-15 14:13:35,-1.352455616,0.6243042946,0.03054326214,-4.259284973,-4.137180328,6.536170483,-1456.0344827586207,115.75862068965516,2136.4137931034484,-7513.862068965517,-2466.0689655172414,3048.655172413793,10
2024-06-15 14:13:35,-0.4764748812,1.494176388,-0.2419026345,-4.57771349,-5.810727596,3.938461781,-957.5454545454544,-665.2727272727273,2004.8181818181813,-7781.090909090909,-2324.7272727272725,3346.3636363636365,10
2024-06-15 14:13:35,-1.159422278,1.456302762,-1.690875053,-5.178658485,-9.193734169,3.153163671,-664.4285714285714,-1102.0,1779.857142857143,-7578.285714285715,-2116.5714285714284,3341.428571428572,10
2024-06-15 14:13:35,-1.159422278,1.456302762,-1.690875053,-5.178658485,-9.193734169,3.153163671,-319.47727272727275,-513.0,1666.5795454545455,-7621.079545454545,-1677.3181818181818,3724.352272727273,10
2024-06-15 14:13:35,-0.1710422635,0.3310889602,-2.03662467,-4.041412354,-11.66455078,2.303221941,-408.4782608695652,109.08695652173913,1363.7826086956522,-8078.478260869565,-1558.8695652173913,4106.260869565217,10
2024-06-15 14:13:35,-0.3799581826,-0.01221730467,-0.4373795092,-3.043030262,-11.41794777,1.15400517,212.86046511627904,259.04651162790697,1070.7441860465117,-8057.209302325581,-1336.6046511627908,3882.7906976744175,10
2024-06-15 14:13:36,-0.3799581826,-0.01221730467,-0.4373795092,-3.043030262,-11.41794777,1.15400517,598.5714285714286,593.2857142857143,111.33333333333331,-7381.761904761905,-947.3809523809524,3256.6666666666665,10
2024-06-15 14:13:36,0.2003637999,-0.4312708676,0.1343903542,-1.807622313,-9.533711433,1.632845521,1005.6511627906976,-112.72093023255816,362.6511627906977,-7896.674418604651,-1149.0,3597.720930232558,10
2024-06-15 14:13:36,0.2003637999,-0.4312708676,0.1343903542,-1.807622313,-9.533711433,1.632845521,2047.840909090909,46.53409090909091,432.1136363636364,-8037.863636363636,-877.1363636363636,3643.465909090909,10
2024-06-15 14:13:36,0.2015855312,-0.2761110961,0.1722639948,-1.405396342,-9.955090523,2.533065319,2581.202247191012,265.7865168539326,118.69662921348316,-7983.842696629214,-725.5842696629213,3492.8988764044943,10
2024-06-15 14:13:36,0.1624901593,-0.06108652428,-0.04276056588,-1.879448295,-9.109937668,2.281674147,2405.9444444444443,196.2,-379.76666666666665,-7982.688888888889,-549.7444444444444,3315.333333333333,10
2024-06-15 14:13:36,0.1624901593,-0.06108652428,-0.04276056588,-1.879448295,-9.109937668,2.281674147,2263.206896551724,370.82758620689657,-477.2413793103448,-7975.551724137931,-573.6551724137931,3409.862068965517,10
2024-06-15 14:13:36,-0.2736676335,-0.2919935882,-0.1857030392,-1.8602947,-9.378087997,1.711854219,2402.2272727272725,450.3181818181818,-873.1363636363636,-7922.909090909091,-278.22727272727275,3099.3636363636365,10
2024-06-15 14:13:36,-1.332907915,-0.5619960427,-0.1563815027,-1.211466074,-10.09156036,1.33835876,1726.5813953488373,560.2209302325582,-695.5813953488372,-8308.906976744185,20.0,2781.1627906976746,10
2024-06-15 14:13:36,-1.332907915,-0.5619960427,-0.1563815027,-1.211466074,-10.09156036,1.33835876,1375.7142857142858,281.967032967033,-1012.4945054945056,-8310.89010989011,-15.19780219780219,2733.736263736264,10
2024-06-15 14:13:36,0.5595525503,-0.2748893499,0.01221730467,-0.7805097699,-10.42435455,1.690306425,105.66666666666666,-434.6666666666667,-968.3333333333334,-8261.0,-425.6666666666667,2753.333333333333,10
2024-06-15 14:13:37,0.17715092,-0.01221730467,0.01221730467,-0.9026140571,-9.797073364,1.422155857,-508.0888888888889,-770.1333333333333,-1145.6888888888889,-7904.766666666666,-465.5777777777778,3147.8888888888887,10
2024-06-15 14:13:37,0.17715092,-0.01221730467,0.01221730467,-0.9026140571,-9.797073364,1.422155857,-848.4883720930233,-1070.2093023255811,-1327.4883720930231,-7877.627906976744,-780.3023255813954,3352.8372093023254,10
2024-06-15 14:13:37,0.05619960278,0.0415388383,-0.04520402849,-1.170764685,-9.725247383,1.59932673,-723.8,-979.0888888888888,-1381.1555555555556,-7658.533333333334,-1291.4,3634.3333333333335,10
2024-06-15 14:13:37,0.05619960278,0.0415388383,-0.04520402849,-1.170764685,-9.725247383,1.59932673,-602.1123595505618,-806.4157303370787,-845.1123595505618,-7495.67415730337,-1427.9550561797753,3722.314606741573,10
2024-06-15 14:13:37,0.0,0.00122173049,-0.1233947799,-0.8930372596,-9.653421402,1.884236693,-399.55555555555554,-542.4666666666667,-668.6,-7353.222222222223,-1749.111111111111,3942.933333333333,10
2024-06-15 14:13:37,0.3042109013,0.1649336219,-0.5302310586,-0.4213795066,-8.858546257,2.331952572,-508.1489361702128,-478.9290780141844,-1099.177304964539,-7365.581560283688,-1819.77304964539,3727.517730496454,10
2024-06-15 14:13:37,0.3042109013,0.1649336219,-0.5302310586,-0.4213795066,-8.858546257,2.331952572,-755.1904761904761,-684.7142857142857,-1142.571428571429,-7364.142857142857,-1810.3809523809523,3774.7619047619046,10
2024-06-15 14:13:37,0.2528982162,0.3408628106,-0.9040805697,0.5315127969,-9.15063858,2.97359848,-744.7176470588236,-855.8235294117648,-1115.5411764705882,-7142.282352941176,-2540.705882352941,4175.7411764705885,10
2024-06-15 14:13:37,-0.06352998316,0.3274237812,-0.9114109278,1.55862534,-9.670180321,2.731784105,-496.80898876404495,-568.3258426966293,-1100.5168539325844,-7249.044943820225,-2517.47191011236,4179.38202247191,10
2024-06-15 14:13:37,-0.06352998316,0.3274237812,-0.9114109278,1.55862534,-9.670180321,2.731784105,-671.1379310344828,-635.2758620689655,-766.3103448275862,-6909.137931034483,-3085.0,4011.620689655173,10
2024-06-15 14:13:38,-0.1918116808,0.2431243658,-0.9443976879,2.516305923,-9.56004715,2.827552319,-797.0898876404494,-495.2584269662921,-610.1011235955057,-6839.224719101124,-3125.921348314607,4049.61797752809,10
2024-06-15 14:13:38,-0.1918116808,0.2431243658,-0.9443976879,2.516305923,-9.56004715,2.827552319,-519.6666666666666,-217.3333333333333,-440.33333333333337,-6863.0,-3010.6666666666665,4184.333333333333,10
2024-06-15 14:13:38,0.2052507252,0.2602286041,-1.047023058,4.070142746,-8.394071579,3.265691042,-225.9651162790697,-313.7906976744186,-353.27906976744185,-6923.895348837209,-3353.558139534884,4396.279069767442,10
2024-06-15 14:13:38,-0.4630358517,0.3836233616,-0.813672483,6.019022942,-9.069235802,3.53384161,-411.695652173913,-105.34782608695652,-355.69565217391306,-6931.434782608696,-3391.304347826087,4375.869565217391,10
2024-06-15 14:13:38,-0.4630358517,0.3836233616,-0.813672483,6.019022942,-9.069235802,3.53384161,-28.72727272727272,21.11363636363636,-333.0681818181818,-6978.556818181818,-3214.2386363636365,4369.136363636364,10
2024-06-15 14:13:38,-0.1441642046,0.2150245607,-0.4019493461,5.983109951,-7.290344238,3.385401249,69.69230769230768,48.46153846153845,-346.0769230769231,-6838.538461538462,-3336.692307692308,4038.769230769231,10
2024-06-15 14:13:38,-0.1441642046,0.2150245607,-0.4019493461,5.983109951,-7.290344238,3.385401249,4.863636363636363,-336.8181818181818,38.36363636363636,-6935.5,-3390.6363636363635,4076.545454545456,10
2024-06-15 14:13:38,-0.2822197378,0.1918116808,-0.3591887653,6.536170483,-7.58961916,3.493140221,-279.65934065934067,-320.978021978022,-75.27472527472527,-6658.0,-3396.5494505494507,4373.8351648351645,10
2024-06-15 14:13:38,0.2724458873,0.03054326214,-0.228463605,6.68700552,-6.845022678,3.56496644,-243.5647058823529,-19.647058823529413,602.5058823529412,-6974.117647058823,-3072.788235294118,4080.2823529411767,10
2024-06-15 14:13:38,0.2724458873,0.03054326214,-0.228463605,6.68700552,-6.845022678,3.56496644,-1461.0549450549452,206.07692307692307,566.8461538461538,-7177.384615384615,-2850.967032967033,4058.989010989011,10
2024-06-15 14:13:39,-0.2028072625,0.04031710699,-0.1588249654,6.691793919,-7.046135426,3.596091032,-1991.6896551724133,162.9655172413793,916.9310344827586,-7181.862068965517,-3013.344827586207,3759.137931034483,10
2024-06-15 14:13:39,0.522900641,-0.06475171447,-0.25167647,6.734889507,-6.411672115,4.000710964,-1844.071428571429,-309.3376623376623,1267.2142857142858,-7087.818181818182,-2822.12987012987,3821.142857142857,10
