Timestamp,Gyro_x_x,Gyro_y_x,Gyro_z_x,Acc_x_x,Acc_y_x,Acc_z_x,Gyro_x_y,Gyro_y_y,Gyro_z_y,Acc_x_y,Acc_y_y,Acc_z_y,combined_action_num
2024-06-15 13:58:48,0.02565634064,-0.05742133409,-0.008552113548,2.262520552,1.632845521,9.538499832,78.0,-524.3333333333333,-849.3333333333334,-7787.0,833.0,2801.333333333333,3
2024-06-15 13:58:48,0.02565634064,-0.05742133409,-0.008552113548,2.262520552,1.632845521,9.538499832,-233.4318181818182,298.0909090909091,-520.1590909090909,-8503.46590909091,581.5,2881.875,3
2024-06-15 13:58:48,-0.1014036313,-0.09651670605,0.01588249579,2.521094322,1.431732655,9.351752281,-496.1149425287357,113.816091954023,-327.5287356321839,-8241.896551724138,794.1609195402299,2854.3218390804595,3
2024-06-15 13:58:48,-0.1014036313,-0.09651670605,0.01588249579,2.521094322,1.431732655,9.351752281,-1635.0597014925372,538.6865671641791,-88.71641791044776,-8190.20895522388,902.044776119403,2559.328358208956,3
2024-06-15 13:58:48,0.004886921961,-0.0293215327,0.01221730467,2.607285738,1.690306425,9.533711433,-2048.333333333333,443.6969696969697,268.0,-8129.757575757576,920.030303030303,2241.7272727272725,3
2024-06-15 13:58:48,0.04886921868,-0.06719517708,-0.08307767659,2.576161146,1.668758631,9.234436035,-1896.4,48.2,-978.0,-7979.0,-295.8,2642.8,3
2024-06-15 13:58:48,0.04886921868,-0.06719517708,-0.08307767659,2.576161146,1.668758631,9.234436035,-1583.892857142857,-66.46428571428572,-392.8928571428571,-8232.785714285714,-304.8928571428572,2879.1071428571427,3
2024-06-15 13:58:48,-1.292590857,-0.6475171447,-0.4508185387,2.470816135,2.059013367,6.734889507,-860.0066666666667,-348.2333333333333,-150.45333333333332,-8101.06,-234.26666666666665,3043.1066666666666,3
2024-06-15 13:58:48,-1.292590857,-0.6475171447,-0.4508185387,7.141903877,-0.1053448766,5.523423195,-664.6733333333334,-711.5666666666667,-367.7866666666667,-7943.06,-320.93333333333334,3217.773333333333,3
2024-06-15 13:58:49,-2.091602564,-2.290744781,-1.94377315,7.141903877,-0.1053448766,5.523423195,-2589.6666666666665,795.3333333333334,526.0,-8259.666666666666,-178.33333333333334,2868.6666666666665,3
2024-06-15 13:58:49,-2.151467323,-2.654820442,-2.849075556,13.65173817,-0.720654726,4.639962673,-1980.1,97.10000000000002,257.9,-8184.666666666667,-484.1333333333333,2874.866666666667,3
2024-06-15 13:58:49,-2.151467323,-2.654820442,-2.849075556,13.65173817,-0.720654726,4.639962673,-1342.5324675324675,-343.7012987012987,-277.8831168831169,-8249.077922077922,-304.012987012987,2884.5584415584417,3
2024-06-15 13:58:49,-0.8038986921,-0.6414085031,-0.4776966274,8.762778282,-2.865859509,4.556165695,-1709.8314606741574,112.91011235955057,-361.7415730337079,-7860.971910112359,-1149.865168539326,3248.5337078651687,3
2024-06-15 13:58:49,-0.8038986921,-0.6414085031,-0.4776966274,8.762778282,-2.865859509,4.556165695,-1806.460674157304,51.11235955056179,3.426966292134807,-8060.41011235955,-1107.1685393258426,3359.2078651685392,3
2024-06-15 13:58:49,0.6572909951,0.1832595766,1.54304564,10.64222622,-0.6967126727,3.943250179,-419.7407407407408,143.2962962962963,154.65432098765433,-7692.604938271605,-1065.5061728395062,3228.0,3
2024-06-15 13:58:49,0.924849987,0.8100073338,2.415361166,10.07719517,-0.7829039693,2.221819162,1186.8202247191011,-22.471910112359552,-625.5056179775281,-7833.91011235955,-1467.2247191011236,2970.067415730337,3
2024-06-15 13:58:49,0.924849987,0.8100073338,2.415361166,10.07719517,-0.7829039693,2.221819162,1948.0898876404488,280.3370786516854,-714.7191011235955,-7933.247191011236,-1272.9550561797753,2961.112359550562,3
2024-06-15 13:58:49,1.412320495,0.2370157093,1.578475833,10.47223854,-4.874594688,1.886630893,1984.4193548387093,666.3225806451612,-1046.774193548387,-7708.645161290323,-1250.4193548387098,3046.935483870968,3
2024-06-15 13:58:50,1.412320495,0.2370157093,1.578475833,10.47223854,-4.874594688,1.886630893,1816.5,368.5888888888889,-308.8111111111112,-8165.677777777778,-1345.2555555555557,2854.1,3
2024-06-15 13:58:50,0.7696902156,-0.1588249654,1.391551018,7.740454197,-5.295974255,2.640804529,2040.197080291971,190.94160583941607,568.8394160583941,-8070.43795620438,-947.116788321168,2859.978102189781,3
2024-06-15 13:58:50,-0.05131268129,-0.6133087277,0.6035348773,7.082048416,-4.565742493,3.660734415,1511.857142857143,22.97142857142859,112.0,-8017.714285714285,-676.9428571428572,2925.2,3
2024-06-15 13:58:50,-0.05131268129,-0.6133087277,0.6035348773,7.082048416,-4.565742493,3.660734415,1222.1,11.7,303.8,-7894.2,-205.4,3155.6,3
2024-06-15 13:58:50,-0.7428121567,-0.2199114859,-0.3530801237,7.20654726,-5.456385612,2.135627985,962.6183206106872,3.0534351145038165,-28.396946564885496,-7872.160305343511,-22.48854961832061,3183.022900763359,3
2024-06-15 13:58:50,1.656666517,0.01588249579,-0.9786061049,8.355764389,-4.862623692,2.461239338,316.0534351145038,-124.42748091603052,47.17557251908397,-8189.717557251908,-314.0916030534351,3199.8167938931297,3
2024-06-15 13:58:50,1.656666517,0.01588249579,-0.9786061049,8.355764389,-4.862623692,2.461239338,46.57954545454545,561.4318181818182,121.61363636363636,-8030.920454545455,-867.3863636363636,2828.1022727272725,3
2024-06-15 13:58:50,0.4166100919,-0.02199114859,-0.3995058835,9.591172218,-2.583343744,4.718971729,307.0744680851064,638.2127659574468,538.7978723404256,-8145.18085106383,-690.5957446808511,2855.127659574468,3
2024-06-15 13:58:50,0.4166100919,-0.02199114859,-0.3995058835,9.591172218,-2.583343744,4.718971729,415.58333333333337,-102.16666666666669,193.6071428571429,-7888.714285714285,117.51190476190476,3065.309523809524,3
2024-06-15 13:58:50,1.196074128,-0.3518583775,-0.4263839424,10.08437729,-1.254561663,3.490746021,83.86666666666667,-53.3,-244.13333333333333,-7881.733333333334,-245.8333333333333,2820.5,3
2024-06-15 13:58:51,-1.503950238,0.2773328125,0.538783133,10.41956615,-1.8602947,4.625597477,-487.9767441860465,372.48837209302326,49.581395348837205,-8219.441860465116,-264.1395348837209,2738.6976744186045,3
2024-06-15 13:58:51,-1.503950238,0.2773328125,0.538783133,10.41956615,-1.8602947,4.625597477,-1078.0,2070.0,-1068.6666666666667,-7752.666666666667,23.333333333333336,2557.333333333333,3
2024-06-15 13:58:51,-1.117883444,1.408655286,2.249205828,8.51617527,-8.224082947,5.516240597,-2200.550561797753,2329.7640449438204,-1258.5168539325844,-8198.685393258427,-450.0,1896.561797752809,3
2024-06-15 13:58:51,-1.117883444,1.408655286,2.249205828,1.110909581,-9.196128845,1.242590666,-2404.103448275862,1487.2413793103449,-746.8735632183908,-8518.32183908046,-1662.7586206896551,978.6896551724138,3
2024-06-15 13:58:51,-3.380528212,1.221730471,2.748893499,1.110909581,-9.196128845,1.242590666,-95.33333333333334,1092.3333333333333,-433.6666666666666,-8464.0,-1689.0,860.6666666666666,3
2024-06-15 13:58:51,-3.457497358,-0.5363397002,0.9529497623,0.2106897533,-6.68461132,-4.596867085,-66.35227272727272,552.8522727272727,-109.48863636363636,-8347.613636363636,-1103.9545454545455,1267.7727272727273,3
2024-06-15 13:58:51,-3.457497358,-0.5363397002,0.9529497623,0.2106897533,-6.68461132,-4.596867085,-377.2197802197802,-3.505494505494505,151.5164835164835,-8199.57142857143,-925.4395604395604,1053.934065934066,3
2024-06-15 13:58:51,1.150870085,-2.40436554,-0.5510004759,-1.434126854,-10.6111021,-6.782773495,-746.3428571428572,-84.21428571428572,-313.8428571428572,-8263.842857142858,-1588.1285714285714,536.2,3
2024-06-15 13:58:51,10.71702003,-0.2101376504,2.659707308,-5.001487255,-9.366117477,1.723825216,118.76190476190476,330.5952380952381,65.66666666666667,-8500.642857142857,-1384.6666666666667,440.9285714285714,3
2024-06-15 13:58:51,10.71702003,-0.2101376504,2.659707308,-5.001487255,-9.366117477,1.723825216,252.1951219512195,-43.04878048780489,-80.39024390243901,-8443.414634146342,-1036.6341463414635,913.1219512195122,3
2024-06-15 13:58:52,3.656639338,0.9969320893,0.4434881806,-3.028665066,-0.9911994934,1.762132406,-208.1290322580645,-653.1397849462365,-587.0860215053764,-7935.89247311828,-1157.483870967742,1148.3655913978494,3
2024-06-15 13:58:52,-0.2296853364,-1.263269305,-0.08185594529,-1.759738207,-1.833958507,6.136339188,-312.9109589041096,-198.13698630136983,-386.7945205479453,-8137.972602739726,-1637.986301369863,851.1506849315068,3
2024-06-15 13:58:52,-0.2296853364,-1.263269305,-0.08185594529,-1.759738207,-1.833958507,6.136339188,-408.8888888888889,-70.5111111111111,42.266666666666666,-8454.622222222222,-1093.5333333333333,1512.6222222222225,3
2024-06-15 13:58:52,0.01343903504,0.3555235863,-0.3176499307,-5.992686749,0.1580173075,8.54251194,-806.2380952380952,-389.3690476190476,-589.4880952380952,-8263.809523809523,-1695.0357142857142,913.559523809524,3
2024-06-15 13:58:52,0.01343903504,0.3555235863,-0.3176499307,-5.992686749,0.1580173075,8.54251194,-389.6067415730337,-84.23595505617976,-305.0112359550562,-8145.337078651685,-1898.932584269663,752.2359550561798,3
2024-06-15 13:58:52,0.4361577928,0.5033529401,-0.2761110961,-5.394136429,6.133944988,6.91684866,204.2696629213484,244.29213483146063,568.5056179775281,-8433.067415730337,-1111.8202247191011,1249.5955056179776,3
2024-06-15 13:58:52,0.6035348773,-0.4007275999,1.06290555,-6.809109688,2.30801034,10.6158905,285.1758241758242,-133.01098901098902,335.7472527472528,-8478.692307692309,-828.3296703296703,1245.637362637363,3
2024-06-15 13:58:52,0.6035348773,-0.4007275999,1.06290555,-6.809109688,2.30801034,10.6158905,-26.715909090909065,-17.5,-174.88636363636363,-8403.954545454546,-1514.75,1068.9886363636365,3
2024-06-15 13:58:52,0.8881980777,-0.2040289938,0.5510004759,-4.740519524,-1.015141487,8.042123795,490.1818181818182,59.90909090909091,432.7272727272728,-8185.545454545455,-1339.909090909091,1258.409090909091,3
2024-06-15 13:58:53,0.06108652428,0.2101376504,-0.8356636763,-4.965574265,1.41257906,6.710947514,-98.45454545454544,-1184.3181818181818,-288.5,-7842.886363636364,-1458.0454545454545,1691.909090909091,3
2024-06-15 13:58:53,0.2858849466,-0.06597344577,0.00244346098,-7.003039837,8.216899872,8.796297073,-577.7303370786517,-234.2247191011236,580.2134831460675,-8081.61797752809,-1148.426966292135,1748.876404494382,3
2024-06-15 13:58:53,0.2858849466,-0.06597344577,0.00244346098,-7.003039837,8.216899872,8.796297073,-670.4827586206897,83.10344827586206,858.1379310344828,-8261.551724137931,-1070.8275862068965,1868.8620689655168,3
2024-06-15 13:58:53,0.9566149712,-0.5094616413,0.7611380816,-4.814739704,4.57531929,7.211335659,43.86577181208054,-130.0,855.4765100671141,-8313.724832214764,-1003.1812080536912,1863.7382550335567,3
2024-06-15 13:58:53,-0.6866125464,0.4141666293,-0.4178318381,-4.984727859,-1.994369984,4.812345505,793.5302013422818,-730.0,309.1677852348994,-7885.536912751678,-1046.1342281879197,2090.5838926174497,3
2024-06-15 13:58:53,-0.6866125464,0.4141666293,-0.4178318381,-4.984727859,-1.994369984,4.812345505,35.79545454545453,-865.1022727272727,402.67045454545456,-8097.761363636364,-1162.0795454545455,2612.9772727272725,3
2024-06-15 13:58:53,-0.8332201838,0.6108652353,-0.8405506015,-6.141127586,1.489193439,7.594407558,-437.29545454545456,-9.386363636363626,1628.1136363636365,-8134.75,233.45454545454547,2344.6136363636365,3
2024-06-15 13:58:53,-0.2846632004,-0.2553416789,1.243721604,-6.028599739,2.523488522,8.307879448,-746.827067669173,255.70676691729324,1111.7443609022555,-8158.496240601504,102.73684210526316,2064.0451127819547,3
2024-06-15 13:58:54,-2.111150265,1.372003317,-1.159422278,-6.777985096,-1.462857246,4.30956316,241.3989071038252,-635.2021857923497,61.7431693989071,-7863.748633879782,39.66120218579235,3045.2841530054643,3
2024-06-15 13:58:54,-0.4630358517,-0.2577851415,-0.07941248268,-8.145073891,-1.37427175,7.323863029,-111.60655737704916,-541.2131147540983,205.45901639344265,-7972.491803278688,7.967213114754095,3026.7049180327867,3
2024-06-15 13:58:54,0.7110471725,0.08918632567,0.326202035,-6.830657482,-0.5817909837,6.189011574,-1068.4814814814815,163.7283950617284,734.6543209876543,-8169.172839506173,454.283950617284,2658.6296296296296,3
2024-06-15 13:58:54,0.7110471725,0.08918632567,0.326202035,-6.830657482,-0.5817909837,6.189011574,62.06741573033708,-819.3370786516854,-700.7191011235955,-8083.438202247191,-388.2696629213483,2708.6629213483147,3
2024-06-15 13:58:54,-0.02565634064,-0.3115412891,0.1600466967,-5.748478413,2.23139596,10.60391903,1692.2142857142858,-1150.5,-254.57142857142856,-7729.035714285715,-339.0,2726.714285714286,3
2024-06-15 13:58:54,0.8356636763,-0.3787364662,0.3714060783,-6.110002518,-3.778050184,5.595249176,2732.127659574468,11.255319148936168,1436.170212765957,-7888.702127659574,462.82978723404256,3177.617021276596,3
2024-06-15 13:58:54,0.8356636763,-0.3787364662,0.3714060783,-6.110002518,-3.778050184,5.595249176,2031.686746987952,240.8313253012048,538.8554216867469,-7623.493975903614,1355.8433734939758,3337.927710843373,3
2024-06-15 13:58:54,-1.018923283,0.5241223574,-0.5375614166,-6.746860504,-2.118868589,6.823474884,22.32116788321168,-148.2919708029197,185.6715328467153,-7826.649635036496,1272.6861313868612,2861.4306569343066,3
2024-06-15 13:58:54,0.7000515461,-0.7012733221,1.073901057,-6.907271862,1.877054095,8.171410561,-0.3065693430656928,-191.35766423357663,-25.277372262773724,-7914.970802919708,1028.890510948905,2842.452554744525,3
2024-06-15 13:58:55,0.5558874011,-0.2614503205,0.3726277947,-5.564124584,-3.105279684,6.414066315,1624.8181818181818,-687.4545454545455,220.27272727272725,-7979.272727272727,1228.590909090909,3122.0,3
2024-06-15 13:58:55,0.5558874011,-0.2614503205,0.3726277947,-5.564124584,-3.105279684,6.414066315,1799.685393258427,-483.6292134831461,437.1011235955056,-7918.179775280899,2096.325842696629,3193.067415730337,3
2024-06-15 13:58:55,-3.257133484,0.9187413454,-0.5852088928,-7.505822182,-2.30561614,6.253654957,216.1111111111111,-800.3333333333334,-46.33333333333333,-7682.555555555556,2015.2222222222224,3615.444444444444,3
2024-06-15 13:58:55,-0.5302310586,0.7745771408,-0.6426302195,-5.647922039,-3.555389643,5.813121796,-677.4968152866242,-489.5732484076433,50.745222929936304,-7730.4394904458595,2029.382165605096,3453.140127388535,3
2024-06-15 13:58:55,-0.5302310586,0.7745771408,-0.6426302195,-5.647922039,-3.555389643,5.813121796,-1712.5,204.3636363636364,-40.86363636363637,-7751.681818181818,1980.636363636364,3256.5,3
2024-06-15 13:58:55,1.601688623,-0.7965682745,1.017701507,-6.514622688,-0.9193734527,6.220136166,-2266.1011235955057,-744.6629213483146,-1553.5280898876404,-7889.044943820225,509.82022471910113,3053.6853932584268,3
2024-06-15 13:58:55,1.601688623,-0.7965682745,1.017701507,-6.514622688,-0.9193734527,6.220136166,-614.1648351648352,-432.989010989011,-876.3736263736264,-7772.021978021978,1613.4835164835165,3467.087912087912,3
2024-06-15 13:58:55,0.007330383174,0.3249803185,-0.822224617,-5.887341976,-0.5458779931,9.066842079,-2283.5227272727275,-250.625,-1867.784090909091,-7327.363636363636,872.0681818181818,4198.818181818182,3
2024-06-15 13:58:55,1.080009699,-0.9871582389,1.372003317,-5.094861031,-2.020706177,5.956773758,-3203.2580645161293,-71.48387096774192,-2048.0967741935483,-7594.258064516129,-106.16129032258064,3980.258064516129,3
2024-06-15 13:58:55,1.080009699,-0.9871582389,1.372003317,-5.094861031,-2.020706177,5.956773758,-3489.360465116279,1585.2674418604652,-927.4883720930231,-8058.5,-560.9651162790698,3265.5232558139537,3
2024-06-15 13:58:56,-0.8772025108,0.6731734872,-1.696983695,-5.932831764,0.4094084799,8.025363922,-3752.222222222222,914.2222222222222,-707.5555555555555,-8098.444444444444,-1251.3333333333333,2704.8888888888887,3
2024-06-15 13:58:56,1.836260915,-1.243721604,2.072054863,-5.420472622,-1.072602391,6.694188118,-2748.186813186813,550.2417582417582,-906.8351648351648,-7935.208791208791,-1684.7032967032967,2775.6153846153848,3
2024-06-15 13:58:56,1.836260915,-1.243721604,2.072054863,-5.420472622,-1.072602391,6.694188118,-1673.8863636363635,55.47727272727272,-1225.2272727272727,-7590.113636363636,-2125.454545454545,2525.0,3
2024-06-15 13:58:56,-0.9834930301,0.7086036801,-1.433089852,-7.472303391,1.489193439,8.959102631,182.74157303370785,453.2134831460674,-10.4606741573034,-8088.808988764045,-1969.6067415730336,2798.38202247191,3
2024-06-15 13:58:56,-0.9834930301,0.7086036801,-1.433089852,-7.472303391,1.489193439,8.959102631,1476.8295454545455,349.6818181818182,-707.3068181818181,-7914.647727272727,-1930.3295454545453,2957.6704545454545,3
2024-06-15 13:58:56,2.514321327,-1.287703991,1.804495931,-4.714183331,-0.6512228847,4.46039772,1303.4609929078017,109.354609929078,-586.1631205673759,-8016.482269503546,-1806.127659574468,2739.780141843972,3
2024-06-15 13:58:56,-2.924822807,1.182635069,-1.40743351,-7.407660007,-0.1005564705,9.016563416,-82.48837209302326,-107.97674418604652,16.25581395348837,-7674.209302325581,-2127.720930232558,2845.720930232558,3
2024-06-15 13:58:56,-2.924822807,1.182635069,-1.40743351,-7.407660007,-0.1005564705,9.016563416,130.32584269662922,-334.2584269662922,-316.2134831460674,-7654.752808988764,-2129.61797752809,2992.561797752809,3
2024-06-15 13:58:56,3.204599142,-1.789835215,2.3909266,-4.970362663,-1.120486379,5.422866821,1114.034090909091,-565.7727272727273,-619.3295454545455,-7669.193181818182,-1793.159090909091,3723.4545454545455,3
2024-06-15 13:58:56,-2.69880271,1.395216227,-2.326174736,-5.42765522,3.208230257,7.769184589,1434.655172413793,640.0344827586207,677.1724137931035,-7589.793103448276,-1417.9310344827586,4139.448275862069,3
2024-06-15 13:58:57,-2.69880271,1.395216227,-2.326174736,-5.42765522,3.208230257,7.769184589,946.6774193548388,980.741935483871,-332.8387096774194,-7498.279569892473,-1553.6774193548388,3748.6021505376334,3
2024-06-15 13:58:57,2.118480682,-1.466076612,2.590068579,-6.251260757,-2.312798738,7.24724865,-1374.364705882353,1672.5176470588235,-421.8,-8032.482352941176,-1751.4588235294118,2056.4823529411765,3
2024-06-15 13:58:57,2.118480682,-1.466076612,2.590068579,-6.251260757,-2.312798738,7.24724865,-884.7528089887641,1770.123595505618,-90.24719101123596,-7995.505617977528,-2274.1011235955057,1829.3258426966293,3
2024-06-15 13:58:57,-5.205793381,2.001194477,-2.322509766,-4.963180065,-7.175422668,1.393425345,802.4606741573034,815.7865168539327,-247.68539325842696,-8133.078651685393,-2188.5955056179773,1772.584269662921,3
2024-06-15 13:58:57,3.292563677,-1.224173903,1.535715222,-6.296750546,9.885659218,11.36767006,1255.409282700422,1346.324894514768,-10.9831223628692,-7904.729957805907,-2122.7426160337554,1526.1012658227849,3
2024-06-15 13:58:57,-2.797762871,0.7770205736,-0.3860668242,-5.937620163,-10.09395409,2.67671752,1157.1920529801323,1137.887417218543,-338.3708609271523,-7832.496688741722,-2121.0596026490066,1278.841059602649,3
2024-06-15 13:58:57,0.4703662395,0.05253441259,-0.3946189582,-7.151480675,7.290344238,9.193734169,1012.158940397351,1133.2516556291391,-706.5827814569536,-7847.066225165563,-2158.807947019868,978.17880794702,3
2024-06-15 13:58:57,0.4703662395,0.05253441259,-0.3946189582,-7.151480675,7.290344238,9.193734169,-80.58620689655172,622.0,-331.8390804597701,-7884.459770114942,-1715.7241379310344,1254.6781609195402,3
2024-06-15 13:58:57,1.568701982,-0.8405506015,0.7318165898,-5.894524574,-6.737283707,6.564900875,-847.5454545454545,366.5340909090909,-548.9204545454545,-8073.738636363636,-2184.931818181818,1161.1136363636365,3
2024-06-15 13:58:58,1.568701982,-0.8405506015,0.7318165898,-5.894524574,-6.737283707,6.564900875,-120.0561797752809,137.8314606741573,-443.876404494382,-8100.134831460674,-2582.5955056179773,776.6067415730337,3
2024-06-15 13:58:58,-1.565036774,0.4520402849,-0.6267477274,-3.550601006,1.841141105,8.403648376,509.7931034482759,-28.011494252873547,-557.5057471264367,-7950.482758620689,-2459.5172413793102,780.3333333333334,3
2024-06-15 13:58:58,3.762929916,-1.875356317,1.445307136,-3.488351822,-2.00873518,8.236053467,269.81609195402297,357.95402298850576,61.781609195402325,-7987.436781609195,-2256.5632183908046,1132.712643678161,3
2024-06-15 13:58:58,3.762929916,-1.875356317,1.445307136,-3.488351822,-2.00873518,8.236053467,-576.5,453.0,-248.5,-8060.5,-2033.0,966.5,3
2024-06-15 13:58:58,-1.038470864,0.8234463334,-1.328021049,-3.663128614,0.6009446383,8.489839554,-462.1627906976744,47.13953488372096,-355.0232558139535,-8023.744186046511,-2286.651162790697,847.2790697674418,3
2024-06-15 13:58:58,3.490483999,-1.788613439,1.653001308,-1.288080573,4.429273129,6.7612257,-205.0,-21.88095238095238,282.48809523809524,-8135.821428571428,-2498.464285714286,491.1547619047619,3
2024-06-15 13:58:58,3.490483999,-1.788613439,1.653001308,-1.288080573,4.429273129,6.7612257,-430.5862068965517,-266.2413793103448,75.72413793103448,-7893.724137931034,-2379.4827586206898,819.7931034482758,3
2024-06-15 13:58:58,-1.650557876,0.7782423496,-1.815491557,-3.938461781,4.5370121,7.366958618,-536.0,-90.37078651685394,-147.37078651685394,-8035.820224719101,-2324.011235955056,1026.561797752809,3
2024-06-15 13:58:58,-1.650557876,0.7782423496,-1.815491557,-3.938461781,4.5370121,7.366958618,-199.05747126436785,307.48275862068965,-135.90804597701148,-7965.724137931034,-2475.586206896552,565.3563218390805,3
2024-06-15 13:58:58,1.852143407,-1.331686258,2.343279123,-3.861847401,1.019929886,8.295908928,-42.58620689655172,25.034482758620697,-95.68965517241378,-8128.103448275862,-2608.310344827586,436.5517241379311,3
2024-06-15 13:58:59,-4.668232441,1.30480814,-1.753183246,-3.742137194,-1.086967587,5.734113216,20.2,65.8,197.2,-7967.6,-2233.4,559.6,3
2024-06-15 13:58:59,-4.668232441,1.30480814,-1.753183246,-3.742137194,-1.086967587,5.734113216,13.533333333333331,64.13333333333334,262.7555555555556,-8030.933333333333,-2186.733333333333,636.8222222222222,3
2024-06-15 13:58:59,0.3371976018,-0.02565634064,-0.4630358517,-4.062960148,13.76187134,10.6206789,-101.0,31.5,-357.5,-7808.5,-2634.5,388.0,3
2024-06-15 13:58:59,1.696983695,-1.170417786,0.864985168,-1.355118155,6.957550049,10.20408726,-394.1149425287357,148.24137931034485,283.8965517241379,-8274.67816091954,-2200.3563218390805,601.9425287356322,3
2024-06-15 13:58:59,1.696983695,-1.170417786,0.864985168,-1.355118155,6.957550049,10.20408726,-536.3333333333334,-325.1111111111111,-292.0,-8062.555555555556,-2580.222222222222,744.6666666666666,3
2024-06-15 13:58:59,-4.516737461,1.513724089,-1.816713214,-3.162740469,2.523488522,8.07324791,-284.0112359550562,-132.5056179775281,-496.17977528089887,-7792.303370786517,-2499.9101123595506,548.5280898876405,3
2024-06-15 13:58:59,-4.516737461,1.513724089,-1.816713214,-3.162740469,2.523488522,8.07324791,-217.370786516854,-46.07865168539325,164.65168539325842,-8036.157303370786,-2417.112359550562,612.6516853932584,3
2024-06-15 13:58:59,1.089783549,-0.5253441334,0.770911932,-4.618414879,10.44111347,9.311050415,-526.4137931034483,-57.27586206896552,-171.58620689655174,-7996.827586206897,-2564.2413793103447,551.9310344827586,3
2024-06-15 13:58:59,0.4031710625,-0.4508185387,0.3054326177,-4.252102375,7.984662533,7.785943985,-437.77777777777777,-164.27777777777777,-290.8611111111111,-7626.472222222223,-2499.6666666666665,401.4166666666667,3
2024-06-15 13:58:59,0.4031710625,-0.4508185387,0.3054326177,-4.252102375,7.984662533,7.785943985,-183.7977528089888,166.93258426966293,331.85393258426967,-8113.056179775281,-2230.6853932584268,529.0786516853932,3
2024-06-15 13:59:00,-0.09773843735,-0.1869247705,-0.3872885704,-5.307945251,1.776497602,7.347805023,-218.7608695652174,-700.9673913043479,-192.8260869565217,-7789.608695652174,-2242.141304347826,692.5869565217391,3
2024-06-15 13:59:00,-0.08918632567,0.5998696685,0.02565634064,-4.599261284,2.588132143,7.831433773,-539.6470588235294,64.46323529411765,119.81617647058825,-7726.220588235294,-2255.845588235294,779.6176470588235,3
2024-06-15 13:59:00,-0.08918632567,0.5998696685,0.02565634064,-4.599261284,2.588132143,7.831433773,-589.40625,178.625,1042.3125,-7909.90625,-2650.28125,415.6875,3
2024-06-15 13:59:00,0.3506366611,-0.7134906054,0.08552113175,-6.296750546,2.932897091,8.245630264,662.7922077922078,-141.37662337662337,1692.2857142857142,-8657.285714285714,-2039.5324675324675,318.64935064935065,3
2024-06-15 13:59:00,0.3506366611,-0.7134906054,0.08552113175,-6.296750546,2.932897091,8.245630264,628.0,-291.6666666666667,1545.3333333333333,-8290.0,-1010.3333333333334,938.3333333333334,3
2024-06-15 13:59:00,0.08918632567,0.6475171447,-0.3616322279,-5.327098846,3.952826977,9.382876396,228.95348837209303,-600.1860465116279,920.046511627907,-8362.60465116279,-1001.3720930232558,1051.953488372093,3
2024-06-15 13:59:00,-1.340238333,0.1380555481,-0.1307251602,-4.326322556,-5.025429249,5.595249176,-498.2247191011236,-453.6404494382023,507.0112359550562,-8492.977528089888,-938.3932584269664,910.4494382022472,3
2024-06-15 13:59:00,-1.340238333,0.1380555481,-0.1307251602,-4.326322556,-5.025429249,5.595249176,-76.66666666666667,-833.0,324.6666666666667,-8366.0,-1197.0,1080.0,3
2024-06-15 13:59:00,0.590095818,0.3787364662,-0.7415903807,-5.628767967,-0.8667010069,7.896077156,1411.6666666666667,-1019.3,-228.16666666666663,-8097.066666666667,-1222.6,909.0666666666668,3
2024-06-15 13:59:00,1.148426652,-1.186300278,0.9040805697,-2.26970315,2.873042107,7.951143742,2041.647727272728,-994.3068181818182,449.6931818181818,-8512.21590909091,-833.6704545454545,1262.9886363636365,3
2024-06-15 13:59:01,1.148426652,-1.186300278,0.9040805697,-2.26970315,2.873042107,7.951143742,1403.4175824175825,-2239.978021978022,-686.4945054945055,-8340.725274725275,-500.5604395604396,2013.5494505494505,3
2024-06-15 13:59:01,0.7611380816,0.4996877611,-0.9419541955,-5.602431774,2.126051188,9.399636269,449.6666666666667,-1919.111111111111,-403.6666666666666,-7999.0,-669.1111111111111,2492.555555555556,3
2024-06-15 13:59:01,-2.134363174,1.088561893,-1.264491081,-3.497928619,-1.786074519,4.580107689,953.551724137931,30.93103448275862,1604.9310344827586,-7954.758620689655,-720.6896551724138,2290.7241379310344,3
2024-06-15 13:59:01,-2.134363174,1.088561893,-1.264491081,-3.497928619,-1.786074519,4.580107689,2044.5,-288.0,1738.909090909091,-8119.0,-670.6363636363636,2232.8636363636365,3
2024-06-15 13:59:01,2.131919622,-0.9529497623,1.047023058,-7.429207802,10.62307262,12.61504841,2682.693430656934,-843.7518248175182,1525.036496350365,-8112.941605839416,-527.7956204379561,2369.262773722628,3
2024-06-15 13:59:01,2.131919622,-0.9529497623,1.047023058,-7.429207802,10.62307262,12.61504841,3183.404761904762,-953.452380952381,1789.571428571429,-8037.738095238095,863.0,2472.54761904762,3
2024-06-15 13:59:01,-1.611462474,0.9957103729,-1.623679876,-4.987122059,-4.252102375,4.120420933,2890.818181818182,-1250.909090909091,1731.5681818181818,-7898.272727272727,972.0227272727273,3044.25,3
2024-06-15 13:59:01,0.9272934198,-0.25167647,-0.3677408695,-8.532935143,8.458714485,8.973467827,1253.9411764705883,-233.4117647058824,1546.764705882353,-7402.0,2179.235294117647,3640.4117647058815,3
2024-06-15 13:59:01,0.9272934198,-0.25167647,-0.3677408695,-8.532935143,8.458714485,8.973467827,-144.3884892086331,-46.37410071942446,1263.611510791367,-7556.877697841726,2745.7913669064747,3021.6978417266187,3
2024-06-15 13:59:01,0.6438519955,-0.7538077235,0.581543684,-5.128379822,3.699041605,7.058106422,-1100.2631578947369,105.39473684210526,842.6842105263158,-8015.526315789473,2259.736842105264,2715.815789473684,3
2024-06-15 13:59:02,0.6438519955,-0.7538077235,0.581543684,-5.128379822,3.699041605,7.058106422,2409.4269662921347,-999.2696629213484,-256.59550561797755,-7581.539325842697,1068.7865168539329,3307.4269662921347,3
2024-06-15 13:59:02,-0.1588249654,0.3714060783,-0.9578366876,-8.113949776,-1.845929503,8.777143478,3620.6627906976746,-294.3372093023256,991.6511627906976,-7368.953488372093,2424.7441860465115,2880.43023255814,3
2024-06-15 13:59:02,2.532647371,-1.145983219,1.569923639,-7.481880188,1.470039845,6.10042572,2601.955056179775,-556.1460674157304,752.3595505617977,-7303.370786516853,2613.303370786517,3244.112359550562,3
2024-06-15 13:59:02,2.532647371,-1.145983219,1.569923639,-7.481880188,1.470039845,6.10042572,749.8488372093024,-196.90697674418604,732.7790697674419,-6872.767441860465,3060.6744186046512,3482.1976744186045,3
2024-06-15 13:59:02,-1.69209671,1.064127207,-0.4850270152,-5.552153587,-8.973467827,2.358288765,230.6703296703297,-145.86813186813183,942.1868131868132,-6980.10989010989,3183.263736263736,3357.120879120879,3
2024-06-15 13:59:02,2.334727049,-1.152091861,1.369559884,-7.422025204,10.19929886,11.17373943,-150.91764705882355,179.0,660.8235294117648,-7062.576470588236,3821.776470588236,2885.8,3
2024-06-15 13:59:02,2.334727049,-1.152091861,1.369559884,-7.422025204,10.19929886,11.17373943,947.9213483146068,136.77528089887642,823.5280898876405,-7416.685393258427,4378.359550561798,2770.0224719101125,3
2024-06-15 13:59:02,-1.436755061,0.4935791194,-0.7220427394,-4.13239193,-5.078101635,2.018311977,971.8988764044944,-579.2584269662922,607.8426966292135,-7307.70786516854,3893.5842696629215,2813.044943820225,3
2024-06-15 13:59:02,2.124589205,-0.9908234477,0.522900641,-7.639897823,12.16733265,14.30296135,2323.8888888888887,-779.7777777777778,1105.111111111111,-6719.777777777777,4666.333333333333,2317.0,3
2024-06-15 13:59:03,0.7415903807,-0.5070181489,0.6890559793,-5.829881191,-6.548141479,5.997475147,957.2105263157896,-1168.842105263158,908.842105263158,-6065.763157894737,4451.5,3340.9736842105262,3
2024-06-15 13:59:03,0.7415903807,-0.5070181489,0.6890559793,-5.829881191,-6.548141479,5.997475147,528.2631578947369,-403.0526315789474,1443.0526315789475,-6004.578947368421,4964.0,3300.842105263158,3
2024-06-15 13:59:03,0.7733554244,0.441044718,-1.474628687,-4.359841347,2.398990154,9.883264542,-856.731843575419,532.5977653631285,1513.4748603351954,-6474.173184357542,5891.385474860335,2745.0055865921786,3
2024-06-15 13:59:03,0.7599163651,-1.279151797,1.14231801,0.1508347094,1.55862534,6.928819656,-1037.0,166.33333333333334,775.5555555555555,-6420.333333333333,6037.555555555556,2313.333333333333,3
2024-06-15 13:59:03,0.7599163651,-1.279151797,1.14231801,0.1508347094,1.55862534,6.928819656,-605.8181818181818,133.28571428571428,-266.3376623376623,-6454.818181818182,5569.116883116883,2517.051948051948,3
2024-06-15 13:59:03,-0.08918632567,0.7733554244,-1.876578093,-4.632780075,0.09337386489,9.124302864,-299.30434782608694,32.565217391304344,-337.9130434782609,-6359.434782608696,5358.695652173913,2439.086956521739,3
2024-06-15 13:59:03,-0.08918632567,0.7733554244,-1.876578093,-1.48679924,1.817199111,7.656657219,-755.3678160919541,-306.8735632183908,-303.2413793103448,-6106.482758620689,5733.218390804598,2247.2183908045977,3
2024-06-15 13:59:03,0.7305948138,-1.147204876,0.9199630618,-1.48679924,1.817199111,7.656657219,-579.8817204301075,-1033.1612903225807,-1229.483870967742,-6134.677419354839,5442.666666666667,2751.2903225806454,3
2024-06-15 13:59:03,0.3616322279,0.9199630618,-1.780061364,-2.813186884,-0.6631938815,9.402029991,-789.0689655172414,-1014.2068965517242,-988.551724137931,-5942.206896551724,4670.931034482759,4034.620689655173,3
2024-06-15 13:59:03,0.3616322279,0.9199630618,-1.780061364,-2.813186884,-0.6631938815,9.402029991,-986.7865168539324,18.730337078651687,-440.3483146067416,-6192.415730337079,3833.1573033707855,4084.876404494382,3
2024-06-15 13:59:04,0.6230825782,-0.8466592431,1.240056396,-4.49870491,-3.311181068,7.022193432,-1008.0232558139536,902.0697674418604,-452.30232558139534,-6480.953488372093,3973.837209302325,3468.8372093023254,3
2024-06-15 13:59:04,0.7757988572,0.2614503205,-0.9944885969,-7.043741226,-0.4094084799,8.374917984,-825.1818181818182,304.45454545454544,-769.1136363636364,-6815.829545454545,3950.0795454545455,3494.931818181818,3
2024-06-15 13:59:04,0.7757988572,0.2614503205,-0.9944885969,-7.043741226,-0.4094084799,8.374917984,-906.6170212765958,-21.29787234042553,-867.3936170212766,-6669.159574468085,3627.478723404255,3638.191489361702,3
2024-06-15 13:59:04,1.0995574,-0.6805039048,1.088561893,-3.162740469,-2.245761156,9.526528358,-127.47058823529412,175.2941176470588,495.4705882352941,-6827.64705882353,4180.882352941177,3341.6470588235293,3
2024-06-15 13:59:04,1.0995574,-0.6805039048,1.088561893,-3.162740469,-2.245761156,9.526528358,285.76404494382024,-360.3595505617977,-164.8426966292135,-6729.887640449439,4398.91011235955,3461.23595505618,3
2024-06-15 13:59:04,-0.5057964325,0.3714060783,-1.345125318,-6.519411087,0.05506663769,9.691728592,-18.670454545454504,-116.88636363636364,-397.125,-6666.227272727273,4761.636363636364,3651.602272727273,3
2024-06-15 13:59:04,0.01832595654,-0.6499606371,1.689653277,-4.19464159,-2.681505919,7.527369976,-2777.668789808917,-51.171974522293,-1375.592356687898,-6295.649681528663,4138.407643312102,4055.694267515924,3
2024-06-15 13:59:04,-3.464827776,0.7134906054,-1.34756875,-4.704606533,1.414973259,8.348581314,-3140.9310344827586,1058.0919540229886,-2010.0689655172407,-6848.35632183908,2670.8275862068967,4304.827586206897,3
2024-06-15 13:59:04,4.473977089,-1.291369081,1.238834739,-7.467514992,3.847482204,5.157110691,-2806.5666666666666,990.1888888888888,-1756.4555555555555,-7285.055555555556,1792.2888888888888,4034.8555555555554,3
2024-06-15 13:59:05,4.473977089,-1.291369081,1.238834739,-7.467514992,3.847482204,5.157110691,-891.3028169014085,1099.7676056338028,-1755.1830985915492,-7464.957746478874,1309.4859154929577,3821.9647887323945,3
2024-06-15 13:59:05,-5.415931225,0.9578366876,-1.348790407,-3.804386616,-2.545036316,7.709329605,-735.669014084507,1314.556338028169,-1588.9859154929577,-7349.464788732394,1487.6549295774648,3942.387323943662,3
2024-06-15 13:59:05,-5.415931225,0.9578366876,-1.348790407,-3.804386616,-2.545036316,7.709329605,-1135.8031496062993,1036.1102362204724,-1118.8582677165357,-7640.055118110236,1782.4724409448818,3636.669291338583,3
2024-06-15 13:59:05,4.979773521,-1.604132175,1.617571115,-4.328716755,2.626439333,7.400477409,-1990.928571428572,734.2142857142857,-1476.642857142857,-7672.0,620.9285714285714,3563.0,3
2024-06-15 13:59:05,-2.928488016,0.3396410644,-1.307251573,-3.694253206,2.806004286,9.083600998,-2087.6521739130435,1086.6195652173913,-955.695652173913,-7989.978260869565,-45.64130434782607,3414.5,3
2024-06-15 13:59:05,2.58640337,-0.8393288255,0.7929030657,-1.096544385,-3.617638826,7.323863029,-207.07142857142856,483.9285714285714,-1015.5,-7847.785714285715,-619.0714285714286,3233.285714285714,3
2024-06-15 13:59:05,1.532050014,-0.1441642046,0.1490511149,-5.291185856,8.865729332,12.51688671,-208.625,876.375,-555.875,-8047.625,-354.875,3040.125,3
2024-06-15 13:59:05,1.532050014,-0.1441642046,0.1490511149,-5.291185856,8.865729332,12.51688671,-1099.813953488372,1346.7906976744189,-1189.7209302325582,-7987.767441860465,-622.5813953488372,2788.186046511628,3
2024-06-15 13:59:05,-3.882659435,1.170417786,-2.298074961,-3.809175014,-0.6081272364,8.228871346,-1562.5,1598.2954545454545,-1256.9431818181818,-8248.988636363636,-1132.715909090909,2258.193181818182,3
2024-06-15 13:59:06,-3.882659435,1.170417786,-2.298074961,-3.809175014,-0.6081272364,8.228871346,-1126.0689655172414,1264.7931034482758,-739.5862068965517,-8178.137931034483,-1208.3103448275865,2010.9310344827584,3
2024-06-15 13:59:06,0.04764748737,-0.8258898258,2.357939959,-2.968810081,-7.048529625,5.896918774,-833.4405594405595,1177.237762237762,-691.7202797202797,-8258.545454545454,-1383.3356643356644,1942.6013986013984,3
2024-06-15 13:59:06,1.573588848,0.1881465018,0.02809980139,-4.086902142,12.03804588,8.334216118,-1130.090909090909,807.9090909090909,-691.9090909090909,-8250.454545454546,-1819.0,1763.6363636363635,3
2024-06-15 13:59:06,1.573588848,0.1881465018,0.02809980139,-4.086902142,12.03804588,8.334216118,-1100.886075949367,1123.759493670886,206.8354430379747,-8171.164556962025,-1808.7088607594933,1334.7974683544303,3
2024-06-15 13:59:06,0.8381071091,-0.7586946487,1.104444385,-3.284844637,-0.7709329724,3.01429987,-429.6292134831461,156.96629213483146,-133.2696629213483,-8124.629213483146,-1484.808988764045,1053.876404494382,3
2024-06-15 13:59:06,0.8381071091,-0.7586946487,1.104444385,-3.284844637,-0.7709329724,3.01429987,-235.0,304.0,-27.22222222222223,-8440.888888888889,-1734.2222222222222,1114.3333333333333,3
2024-06-15 13:59:06,5.882632256,-1.792278647,1.824043632,-3.215412855,12.20563984,13.20402241,-306.4494382022472,-42.19101123595506,-206.85393258426967,-8102.887640449439,-1426.1011235955057,905.629213483146,3
2024-06-15 13:59:06,5.882632256,-1.792278647,1.824043632,-3.215412855,12.20563984,13.20402241,-247.5632183908046,65.85057471264368,41.20689655172414,-8118.873563218391,-1515.3908045977012,990.7586206896552,3
2024-06-15 13:59:06,-3.072652102,0.4239404798,-2.145358801,-3.507505417,5.561730385,8.655038834,-84.10227272727272,95.0909090909091,-82.69318181818181,-8108.875,-1462.2954545454545,1007.4431818181818,3
2024-06-15 13:59:07,-3.379306555,0.5571091175,-1.130100727,-2.343923569,-12.04762268,3.612850428,-29.688888888888897,64.95555555555555,-65.87777777777778,-8097.222222222223,-1443.5777777777778,933.0666666666668,3
2024-06-15 13:59:07,-3.379306555,0.5571091175,-1.130100727,-2.343923569,-12.04762268,3.612850428,-205.05882352941177,-346.6,-292.54117647058825,-8074.129411764706,-1742.364705882353,1227.635294117647,3
2024-06-15 13:59:07,5.727472305,-1.55281949,3.356093645,-2.217030764,-3.414131641,6.217741966,-291.9325842696629,-179.61797752808988,-362.3483146067416,-8243.921348314607,-1884.8988764044943,1311.8426966292134,3
2024-06-15 13:59:07,-1.177748203,0.4874704778,-0.7538077235,-0.6488286853,5.906495571,7.757213593,262.99328859060404,-19.281879194630875,-30.49664429530201,-8253.24832214765,-1636.5167785234898,1314.0805369127518,3
2024-06-15 13:59:07,-1.177748203,0.4874704778,-0.7538077235,-0.6488286853,5.906495571,7.757213593,-551.3255813953489,-174.81395348837208,-303.3255813953488,-8308.53488372093,-1547.3255813953488,1374.6976744186047,3
2024-06-15 13:59:07,-4.173431396,0.9480628371,-2.831971169,-3.241749048,1.357512355,7.910442352,-493.0,-126.72093023255816,149.30232558139534,-8005.441860465116,-1523.046511627907,1192.813953488372,3
2024-06-15 13:59:07,-0.625526011,0.7293730974,-1.441641927,-2.159569979,-10.46266174,2.513911724,-570.6521739130435,376.4782608695652,258.4347826086956,-8248.260869565218,-1488.8260869565215,1314.0434782608695,3
2024-06-15 13:59:07,-0.625526011,0.7293730974,-1.441641927,-2.159569979,-10.46266174,2.513911724,-417.0,181.66666666666663,212.0,-8143.444444444444,-1494.3333333333333,1339.111111111111,3
2024-06-15 13:59:07,2.744006634,-1.144761443,2.825862646,-3.447650433,-3.167528868,6.428431511,-153.79166666666666,549.5,-51.125,-8183.166666666667,-1561.125,1042.4583333333333,3
2024-06-15 13:59:07,2.744006634,-1.144761443,2.825862646,-3.447650433,-3.167528868,6.428431511,92.66666666666669,330.66666666666663,294.0,-8474.666666666666,-1592.6666666666667,1049.3333333333333,3
2024-06-15 13:59:08,1.642005801,-0.4605923891,0.3359758854,-4.917690277,13.00290966,11.81777954,213.50993377483445,227.3774834437086,-29.920529801324506,-8165.662251655629,-1572.3708609271523,1040.8543046357615,3
2024-06-15 13:59:08,-2.565634012,0.5461135507,-2.245540619,-4.702212334,0.4046200812,8.6957407,283.3774834437086,182.3443708609272,-170.98013245033113,-8140.165562913908,-1564.092715231788,1049.4635761589404,3
2024-06-15 13:59:08,-2.565634012,0.5461135507,-2.245540619,-4.702212334,0.4046200812,8.6957407,353.24503311258275,137.31125827814571,-312.03973509933775,-8114.6688741721855,-1555.8145695364235,1058.0728476821191,3
2024-06-15 13:59:08,-2.700024366,0.7586946487,-1.671327353,-1.398213744,-10.30464458,0.9193734527,337.6428571428572,-52.21428571428572,-18.857142857142858,-8127.714285714285,-1548.428571428571,710.4285714285714,3
2024-06-15 13:59:08,3.650530815,-1.479515672,2.480112791,-3.962403774,-1.137245774,7.347805023,212.82417582417585,-39.0989010989011,59.0989010989011,-8113.901098901098,-1242.0,717.4505494505495,3
2024-06-15 13:59:08,3.650530815,-1.479515672,2.480112791,-3.962403774,-1.137245774,7.347805023,88.83132530120481,175.5421686746988,74.62650602409639,-8130.469879518072,-1205.4939759036145,732.3975903614457,3
2024-06-15 13:59:08,0.3371976018,0.216246292,-0.779464066,-4.932055473,0.8930372596,8.911218643,331.33333333333337,251.0,91.88888888888889,-8229.111111111111,-1170.888888888889,684.7777777777778,3
2024-06-15 13:59:08,0.3371976018,0.216246292,-0.779464066,-4.932055473,0.8930372596,8.911218643,604.5581395348837,348.4651162790698,76.90697674418605,-8534.116279069767,-1331.813953488372,541.7906976744187,3
2024-06-15 13:59:08,-3.012787342,0.7037167549,-2.528982162,-3.895366192,-2.645592928,7.101202011,693.939226519337,-148.44198895027623,413.3038674033149,-8384.850828729283,-950.1325966850828,602.8232044198895,3
2024-06-15 13:59:08,-0.3982841372,0.2247984111,-0.4776966274,-1.52510643,-9.777919769,1.158793569,473.4972375690608,-215.29281767955803,215.51381215469613,-8371.038674033149,-940.1878453038674,816.0828729281768,3
2024-06-15 13:59:09,-0.3982841372,0.2247984111,-0.4776966274,-1.52510643,-9.777919769,1.158793569,552.7594936708861,-184.22784810126583,57.92405063291142,-8452.73417721519,-1168.620253164557,1083.822784810127,3
2024-06-15 13:59:09,1.246165156,-1.060462117,2.13925004,-5.365406036,-4.627991676,9.761159897,521.2885906040268,-237.95973154362417,93.86577181208054,-8380.456375838927,-1234.9194630872482,1154.5503355704698,3
2024-06-15 13:59:09,-1.480737329,0.283441484,-1.390329242,-4.809951305,-1.611297727,9.555258751,440.08053691275165,-324.8724832214765,100.24161073825503,-8278.778523489933,-1308.744966442953,1233.4093959731545,3
2024-06-15 13:59:09,-1.480737329,0.283441484,-1.390329242,-4.809951305,-1.611297727,9.555258751,358.8724832214765,-411.7852348993289,106.61744966442951,-8177.10067114094,-1382.5704697986578,1312.268456375839,3
2024-06-15 13:59:09,-0.3066543639,0.1270599663,0.9114109278,-1.936909199,-10.88164711,2.274491549,109.45348837209303,185.7906976744186,274.5,-8494.151162790698,-1234.546511627907,839.3720930232558,3
2024-06-15 13:59:09,-0.3066543639,0.1270599663,0.9114109278,-1.936909199,-10.88164711,2.274491549,451.60869565217394,-231.5217391304348,126.2608695652174,-8485.347826086956,-1113.6521739130435,942.391304347826,3
2024-06-15 13:59:09,1.37078166,-1.069014192,2.035403013,-6.138733387,-3.768473387,9.667786598,192.97278911564624,-411.7687074829932,24.05442176870748,-8486.612244897959,-1328.4353741496598,996.7755102040816,3
2024-06-15 13:59:09,-0.3237585723,0.3506366611,-1.558928132,-5.248090267,-2.355894566,8.214506149,320.1836734693877,-443.0612244897959,69.63265306122449,-8474.367346938776,-1193.061224489796,1021.2653061224488,3
2024-06-15 13:59:09,-0.3237585723,0.3506366611,-1.558928132,-5.248090267,-2.355894566,8.214506149,-265.1818181818182,-160.13636363636363,60.63636363636364,-8276.90909090909,-1084.0454545454545,1849.909090909091,3
2024-06-15 13:59:09,0.5717698932,-0.07086037099,-0.09773843735,-1.910573006,-14.25268269,0.3639186621,-636.7826086956522,54.91304347826088,-143.43478260869566,-8221.869565217392,-1328.5217391304348,1468.3478260869565,3
2024-06-15 13:59:10,1.704313993,-1.528384805,2.588846922,-4.302380562,-5.963956356,7.278373241,-25.905660377358487,576.3584905660377,605.4150943396227,-8152.754716981132,-1080.622641509434,1209.339622641509,3
2024-06-15 13:59:10,0.1209513173,0.1136209369,-0.2651155293,-6.749254704,-5.298368454,8.36294651,-1724.4318181818182,649.4772727272727,-474.42045454545456,-8215.886363636364,-489.07954545454544,899.2386363636364,3
2024-06-15 13:59:10,0.1209513173,0.1136209369,-0.2651155293,-6.749254704,-5.298368454,8.36294651,-2070.14606741573,1137.1797752808989,-69.10112359550561,-8258.932584269663,-960.9550561797752,703.2921348314607,3
2024-06-15 13:59:10,-4.164879322,1.367116451,-2.004859686,-3.651157618,-8.578424454,3.883395195,-997.2222222222222,753.4444444444445,-292.6666666666667,-8369.0,-1579.6666666666667,528.5555555555555,3
2024-06-15 13:59:10,-0.08307767659,-0.770911932,1.240056396,-2.145204782,-12.80179691,2.892195702,104.13043478260867,-69.04347826086962,-227.5217391304348,-8482.152173913044,-1567.0217391304348,325.6086956521739,3
2024-06-15 13:59:10,-0.08307767659,-0.770911932,1.240056396,-2.145204782,-12.80179691,2.892195702,110.2906976744186,-676.8255813953489,170.2325581395349,-8255.116279069767,-1077.2558139534883,846.9069767441861,3
2024-06-15 13:59:10,2.147802114,-0.5644394755,0.2247984111,-6.830657482,6.246472359,15.91665268,-214.9,133.86666666666667,220.26666666666665,-8280.533333333333,-797.8666666666667,738.1333333333333,3
2024-06-15 13:59:10,-3.478266716,1.133765936,-2.488665104,-4.453215122,-4.520252705,6.210559368,-755.1627906976744,521.3953488372093,57.209302325581405,-8432.0,-885.4418604651163,323.06976744186045,3
2024-06-15 13:59:10,-3.478266716,1.133765936,-2.488665104,-4.453215122,-4.520252705,6.210559368,-215.3548387096774,-100.51612903225804,-181.08602150537635,-8480.817204301075,-1602.462365591398,373.26881720430106,3
2024-06-15 13:59:11,-0.3164281845,0.2296853364,0.441044718,-2.643198729,-12.59589481,2.171540976,489.40697674418607,-641.5116279069767,-381.9186046511628,-8434.616279069767,-1080.4418604651162,495.2674418604651,3
2024-06-15 13:59:11,-0.3164281845,0.2296853364,0.441044718,-2.643198729,-12.59589481,2.171540976,122.35955056179776,-693.6966292134831,-1285.0337078651685,-8130.101123595506,-1317.943820224719,1043.808988764045,3
2024-06-15 13:59:11,2.662150621,-1.331686258,1.439198494,-6.205770969,-3.01190567,9.31823349,-925.0909090909092,425.7272727272728,-750.6363636363636,-8226.545454545454,-1578.4545454545455,724.1363636363636,3
2024-06-15 13:59:11,0.6670648456,0.1014036313,-1.936442852,-3.313575268,0.4405331016,6.780379295,-1053.89375,572.9875,-56.1375,-8154.19375,-1843.9,593.1375,3
2024-06-15 13:59:11,0.6670648456,0.1014036313,-1.936442852,-3.313575268,0.4405331016,6.780379295,-889.51875,524.2375,107.6125,-8159.81875,-1853.9,529.3875,3
2024-06-15 13:59:11,2.480112791,0.161268428,-0.5057964325,-1.438915253,-13.24472427,4.139574528,791.4285714285714,-586.8571428571429,-118.28571428571428,-8177.571428571428,-1614.857142857143,700.0,3
2024-06-15 13:59:11,2.480112791,0.161268428,-0.5057964325,-1.438915253,-13.24472427,4.139574528,941.5555555555557,-460.6666666666667,138.44444444444446,-8157.555555555556,-1454.3333333333333,766.6666666666666,3
2024-06-15 13:59:11,2.972470284,-0.2626720667,1.996307611,-1.074996591,-6.576871872,6.227318764,422.2638888888889,-458.9236111111111,462.53472222222223,-8113.694444444444,-1355.5694444444443,972.8541666666666,3
2024-06-15 13:59:11,-1.650557876,0.3591887653,-0.7806857824,-3.538630009,-7.793126583,7.754819393,-273.11764705882354,55.117647058823536,501.2941176470589,-8277.29411764706,-1173.235294117647,1337.1176470588234,3
2024-06-15 13:59:11,-1.650557876,0.3591887653,-0.7806857824,-3.538630009,-7.793126583,7.754819393,331.9,265.2,762.2,-8141.2,-1235.3,1269.5,3
2024-06-15 13:59:12,-2.695137501,0.441044718,-1.633453608,-1.015141487,-7.65426302,4.917690277,259.4,558.8588235294118,-12.599999999999994,-7915.505882352942,-865.3058823529411,1239.7411764705882,3
2024-06-15 13:59:12,-0.4031710625,-0.2455678284,1.033583999,-1.510741234,-9.425971985,4.742913723,-39.81564245810056,1059.9385474860337,-223.1620111731844,-8163.8156424581,-851.4860335195531,973.413407821229,3
2024-06-15 13:59:12,-0.4031710625,-0.2455678284,1.033583999,-1.510741234,-9.425971985,4.742913723,-416.46153846153845,954.3846153846154,-360.46153846153845,-8152.307692307692,-673.8461538461538,932.7692307692308,3
2024-06-15 13:59:12,4.131892681,-0.8955284357,2.593733788,-5.183446884,-1.697489023,7.498639584,18.200000000000003,738.8705882352941,-351.3647058823529,-8284.129411764707,-1131.729411764706,427.2941176470588,3
2024-06-15 13:59:12,4.131892681,-0.8955284357,2.593733788,-5.183446884,-1.697489023,7.498639584,-204.66666666666663,766.6666666666667,-690.0,-7909.0,-1472.3333333333333,36.0,3
2024-06-15 13:59:12,-4.058588505,0.5363397002,-1.932777643,-3.536235809,0.3543418646,7.393294811,-70.5,1358.965909090909,-350.22727272727275,-8395.920454545454,-1653.090909090909,-553.9886363636364,3
2024-06-15 13:59:12,-2.695137501,0.1722639948,-1.007927656,-0.8906430602,-13.82890892,0.1651999205,248.4090909090909,729.5227272727273,129.38636363636363,-8406.261363636364,-1582.0568181818182,-402.9772727272728,3
2024-06-15 13:59:12,-2.695137501,0.1722639948,-1.007927656,-0.8906430602,-13.82890892,0.1651999205,34.219780219780205,-34.03296703296704,69.94505494505495,-8335.967032967033,-1021.868131868132,-82.65934065934067,3
2024-06-15 13:59:12,4.370130062,-2.232101679,3.924198389,-2.26730895,-10.79066753,-1.309628367,-556.6235294117647,94.63529411764706,-550.7647058823529,-7924.84705882353,-756.4823529411765,494.4,3
2024-06-15 13:59:12,4.04637146,-0.1930334121,2.073276758,-0.8643068075,12.38041687,12.77067184,-1050.2957746478874,724.3098591549295,-618.4507042253521,-8339.225352112677,-1893.0,-1187.098591549296,3
2024-06-15 13:59:13,4.04637146,-0.1930334121,2.073276758,-0.8643068075,12.38041687,12.77067184,-633.3943661971831,513.7464788732394,-421.2676056338028,-8640.633802816901,-1743.0,-1181.4647887323945,3
2024-06-15 13:59:13,-3.977954388,1.121548533,-3.396410704,-2.149993181,-2.681505919,4.30956316,496.3233532934132,32.532934131736525,471.0419161676647,-8220.425149700599,-1555.3652694610778,-701.1077844311377,3
2024-06-15 13:59:13,-4.798957348,1.104444385,-2.287079573,-3.043030262,-17.58780479,-1.812410712,458.5988023952096,87.02395209580838,649.4850299401198,-8287.491017964072,-1296.0838323353294,-788.5329341317365,3
2024-06-15 13:59:13,-4.798957348,1.104444385,-2.287079573,-3.043030262,-17.58780479,-1.812410712,542.3397435897436,-76.3076923076923,1541.801282051282,-8241.98717948718,-1237.9807692307693,-627.8717948717949,3
2024-06-15 13:59:13,3.588222504,-1.433089852,2.557081938,-3.208230257,-14.45619011,-3.8642416,464.775641025641,-53.23076923076923,1479.621794871795,-8263.78205128205,-1070.673076923077,-845.8205128205128,3
2024-06-15 13:59:13,3.588222504,-1.433089852,2.557081938,-3.208230257,-14.45619011,-3.8642416,121.20704845814976,-448.1277533039648,1259.6299559471363,-8239.577092511014,-741.4713656387665,-662.2114537444934,3
2024-06-15 13:59:13,3.418401957,-1.681101203,3.584557295,-0.2561795712,2.480392933,6.495469093,-225.0484581497797,-847.2466960352423,1038.0440528634365,-8214.907488986784,-410.63436123348015,-474.5462555066079,3
2024-06-15 13:59:13,0.7562511563,0.1954768747,-1.414763927,-4.999093056,7.848193169,7.101202011,509.5116279069768,-1711.7209302325582,-162.74418604651163,-8414.651162790698,342.5581395348837,76.06976744186046,3
2024-06-15 13:59:13,0.7562511563,0.1954768747,-1.414763927,-4.999093056,7.848193169,7.101202011,32.48192771084338,-2328.9638554216867,-795.3855421686746,-8553.927710843374,528.6024096385543,401.96385542168673,3
2024-06-15 13:59:13,-2.441017628,1.21195662,-4.819726944,-1.891419291,-7.453149796,1.285686255,-243.02222222222224,-2016.4611111111112,-1061.0055555555557,-8124.105555555556,-323.9222222222222,854.3833333333333,3
2024-06-15 13:59:14,-0.6157521605,-0.1429424733,0.06108652428,-4.426878929,-21.89736938,0.1436520964,25.866666666666674,-1687.0166666666669,-943.7833333333332,-8196.883333333333,-365.0333333333333,1166.05,3
2024-06-15 13:59:14,-0.6157521605,-0.1429424733,0.06108652428,-4.426878929,-21.89736938,0.1436520964,745.9113924050633,-837.632911392405,-432.1012658227848,-8360.20253164557,-238.9493670886076,1598.9746835443038,3
2024-06-15 13:59:14,1.789835215,-0.8063421249,2.962696552,-0.9074024558,-13.94143677,-1.956062794,394.3777777777778,-1092.0555555555557,-685.411111111111,-8201.133333333333,-209.1888888888889,2003.0444444444445,3
2024-06-15 13:59:14,1.789835215,-0.8063421249,2.962696552,-0.9074024558,-13.94143677,-1.956062794,353.632183908046,-820.2298850574713,-803.8045977011494,-8236.264367816091,-309.0574712643678,1978.183908045977,3
2024-06-15 13:59:14,4.327369213,-1.656666517,3.557679176,-1.97042799,3.861847401,6.337451935,284.02127659574467,-783.1276595744681,-428.8510638297872,-8140.255319148936,-485.8510638297872,1947.531914893617,3
2024-06-15 13:59:14,0.2150245607,0.1380555481,-2.757445812,-1.946485996,8.839392662,5.453991413,-35.666666666666664,-1454.0,-1386.0,-8141.666666666667,-1033.6666666666667,2369.0,3
2024-06-15 13:59:14,0.2150245607,0.1380555481,-2.757445812,-1.946485996,8.839392662,5.453991413,-256.1954022988506,-1347.9655172413793,-1934.206896551724,-7998.252873563219,-1366.448275862069,2748.494252873564,3
2024-06-15 13:59:14,-3.167947054,0.6426302195,-4.118453503,-0.06943184882,-10.44590187,-1.206677675,-789.35,-1124.6,-979.2875,-7791.6875,-2054.625,3239.1875,3
2024-06-15 13:59:14,-2.086715698,0.3213151097,-1.161865711,-2.485181332,-17.08502388,-1.805228114,-796.85,-1094.6,-958.6625,-7751.0625,-2085.875,3223.5625,3
2024-06-15 13:59:14,-2.086715698,0.3213151097,-1.161865711,-2.485181332,-17.08502388,-1.805228114,55.48275862068965,351.62068965517244,487.0344827586207,-7602.6551724137935,-2035.2413793103449,2798.655172413793,3
2024-06-15 13:59:15,2.037846565,-1.3377949,2.916270733,-1.817199111,-10.9989624,1.125274777,544.9502762430939,477.6795580110497,511.6685082872928,-7982.845303867403,-1985.4088397790056,3078.6353591160223,3
2024-06-15 13:59:15,2.037846565,-1.3377949,2.916270733,-1.817199111,-10.9989624,1.125274777,827.8232044198895,245.0828729281768,564.1546961325967,-7974.005524861878,-1937.342541436464,3086.3701657458564,3
2024-06-15 13:59:15,2.382374525,-0.3005456924,1.413542151,-3.239354849,2.317587137,3.811569214,1092.7073170731708,377.3170731707317,202.3658536585366,-7934.365853658536,-1339.9024390243903,3089.9024390243903,3
2024-06-15 13:59:15,-2.240653753,0.7660250068,-2.361604929,-2.722207308,-4.465186119,4.505887508,889.8045977011494,-57.63218390804597,346.1264367816092,-8034.6551724137935,-1180.9655172413793,2954.2758620689656,3
2024-06-15 13:59:15,-2.240653753,0.7660250068,-2.361604929,-2.722207308,-4.465186119,4.505887508,1083.5,240.0,90.0,-8032.5,-1219.5,2965.5,3
2024-06-15 13:59:15,-1.148426652,-0.1563815027,-1.610240817,-2.683900118,-14.35084534,0.3926490843,1891.0,266.2696629213483,796.1910112359551,-7886.842696629214,-1183.808988764045,3066.8651685393256,3
2024-06-15 13:59:15,2.49355197,-0.7147123218,1.624901533,-1.055842996,-13.86003399,-1.292868972,2309.044943820225,-142.9438202247191,463.2921348314607,-7884.123595505618,-892.2471910112359,2860.3595505617977,3
2024-06-15 13:59:15,2.49355197,-0.7147123218,1.624901533,-1.055842996,-13.86003399,-1.292868972,1938.142857142857,-186.69230769230768,399.3516483516484,-7848.989010989011,-491.9230769230769,3165.021978021978,3
2024-06-15 13:59:15,-0.01832595654,-0.1673770845,-0.8759807348,-1.836352706,-5.099649429,2.176329374,583.1395348837209,151.51162790697674,482.04651162790697,-7878.023255813953,-53.627906976744185,3162.4651162790697,3
2024-06-15 13:59:15,-0.01832595654,-0.1673770845,-0.8759807348,-1.836352706,-5.099649429,2.176329374,-725.8666666666667,-96.46666666666668,-219.6,-7888.4,-114.86666666666667,3115.133333333333,3
2024-06-15 13:59:16,-1.527163148,-0.0354301855,-0.830776751,-1.695094824,-15.89749908,1.790862918,-713.5,-415.15625,-604.03125,-7998.9375,-682.5625,3029.34375,3
2024-06-15 13:59:16,1.573588848,-0.8723155856,0.7855727077,-4.237737179,-2.298433542,6.691793919,-803.5,-204.53125,-625.90625,-7955.1875,-516.3125,3149.96875,3
2024-06-15 13:59:16,1.573588848,-0.8723155856,0.7855727077,-4.237737179,-2.298433542,6.691793919,-600.9080459770115,37.49425287356322,267.48275862068965,-8242.67816091954,-474.85057471264366,3139.448275862069,3
2024-06-15 13:59:16,1.224173903,-1.138652802,0.6035348773,-5.736507416,-5.19781208,8.353369713,-505.1767955801105,-178.58563535911605,35.85082872928177,-7851.425414364641,-477.61878453038673,2973.458563535912,3
2024-06-15 13:59:16,1.224173903,-1.138652802,0.6035348773,-5.736507416,-5.19781208,8.353369713,-132.14285714285714,-355.9183673469388,-296.57142857142856,-7832.081632653061,-487.0408163265306,2988.0,3
2024-06-15 13:59:16,-2.428800106,1.117883444,-0.6157521605,-0.09576806426,-10.03888798,1.972822189,-35.95061728395062,-817.320987654321,-214.92592592592592,-8227.864197530864,-631.5679012345679,3366.5308641975307,3
2024-06-15 13:59:16,-2.428800106,1.117883444,-0.6157521605,-0.09576806426,-10.03888798,1.972822189,-62.96703296703296,-957.1978021978022,218.4945054945055,-7834.648351648351,-415.5274725274725,3618.142857142857,3
2024-06-15 13:59:16,2.554638386,-1.066570759,1.269377947,-0.9193734527,-6.600813866,3.280056238,308.7931034482759,-378.3793103448276,298.1379310344828,-7663.379310344828,-310.3793103448276,3493.9310344827586,3
2024-06-15 13:59:16,1.047023058,0.5082398653,-0.3628539443,-4.297592163,-8.769960403,7.788338184,149.17177914110428,-12.0920245398773,298.638036809816,-7985.993865030675,-216.0920245398773,3554.239263803681,3
2024-06-15 13:59:17,1.047023058,0.5082398653,-0.3628539443,-4.297592163,-8.769960403,7.788338184,-77.20858895705521,62.75460122699387,286.3680981595092,-7997.650306748466,-141.24539877300612,3699.638036809816,3
2024-06-15 13:59:17,0.4398229718,-0.07574728876,0.3946189582,2.334346771,-12.02128696,-0.9672574997,794.0114942528736,-163.72413793103448,40.42528735632186,-7645.16091954023,-308.35632183908046,3753.689655172414,3
2024-06-15 13:59:17,1.728748679,-1.144761443,0.6817256212,-7.556100368,0.2992752194,14.43224812,2.552941176470588,71.61176470588235,278.8588235294118,-7633.682352941177,-74.2,3767.647058823529,3
2024-06-15 13:59:17,-1.339016676,1.0995574,-0.8332201838,-2.49236393,-8.355764389,3.854664803,-214.79381443298968,54.2680412371134,34.91752577319588,-7581.298969072165,-9.659793814432987,3818.226804123711,3
2024-06-15 13:59:17,-1.339016676,1.0995574,-0.8332201838,-2.49236393,-8.355764389,3.854664803,127.38666666666668,145.22666666666666,104.4,-7963.16,-393.18666666666667,3645.4,3
2024-06-15 13:59:17,1.492954612,-1.120326877,1.303586483,-2.679111719,-9.390059471,4.616020679,919.2317073170732,-150.9390243902439,580.2560975609756,-7765.743902439024,104.0609756097561,3778.987804878049,3
2024-06-15 13:59:17,1.226617455,0.7269296646,-0.6010913849,-6.454767704,-7.218518257,9.26556015,229.0106382978724,-21.85106382978724,192.97872340425533,-7599.170212765957,473.1170212765957,3929.925531914894,3
2024-06-15 13:59:17,1.226617455,0.7269296646,-0.6010913849,-6.454767704,-7.218518257,9.26556015,-250.0909090909091,61.86363636363637,2.863636363636374,-7616.579545454545,67.84090909090907,3894.0795454545455,3
2024-06-15 13:59:17,-0.3286454976,-0.0171042271,0.2382374406,-0.8595184088,-10.97262669,-0.6200982332,280.08791208791206,-16.186813186813183,447.1648351648352,-7572.461538461538,242.02197802197804,3795.934065934066,3
2024-06-15 13:59:18,0.3298672438,-0.6462954283,0.4141666293,-7.769184589,-3.557783842,12.33732128,210.29530201342283,207.72483221476512,608.3825503355705,-7730.026845637584,700.5906040268457,3751.13422818792,3
2024-06-15 13:59:18,0.3298672438,-0.6462954283,0.4141666293,-7.769184589,-3.557783842,12.33732128,-345.42857142857144,68.28571428571429,227.42857142857144,-7707.428571428572,782.0,3752.428571428572,3
2024-06-15 13:59:18,-0.04886921868,1.117883444,-0.1026253626,-3.538630009,-8.470685959,3.311181068,-579.2978723404256,193.7765957446809,-258.27659574468083,-7716.234042553191,526.9893617021277,3534.191489361702,3
2024-06-15 13:59:18,-0.04886921868,1.117883444,-0.1026253626,-3.538630009,-8.470685959,3.311181068,493.9080459770115,772.7471264367816,1029.0114942528735,-8019.367816091954,1128.8620689655172,3616.379310344827,3
2024-06-15 13:59:18,0.7977899909,-0.7538077235,0.5595525503,-2.683900118,-3.885789394,5.724536419,-19.39325842696629,119.40449438202248,-17.14606741573033,-7916.528089887641,1272.1460674157304,3623.213483146068,3
2024-06-15 13:59:18,-0.3237585723,0.6377432942,-0.6902777553,-8.154650688,-3.253720045,7.489062786,-367.2068965517241,-75.51724137931035,-516.1379310344828,-7570.896551724138,804.7586206896551,3625.5172413793102,3
2024-06-15 13:59:18,-0.3237585723,0.6377432942,-0.6902777553,-8.154650688,-3.253720045,7.489062786,188.84782608695653,539.1304347826087,428.5869565217391,-7817.086956521739,796.3695652173913,3456.717391304348,3
2024-06-15 13:59:18,0.4117231667,-0.8112290502,0.3335324228,-2.602497339,-4.953603268,3.722983599,-99.6144578313253,397.1927710843373,234.1807228915663,-8129.21686746988,1233.3253012048192,3283.3493975903616,3
2024-06-15 13:59:18,-0.1795943826,0.3995058835,0.1270599663,-6.629544735,-1.647210717,10.9989624,-543.1704545454545,-219.6818181818182,-436.7954545454545,-7711.022727272727,779.1818181818181,3279.9886363636365,3
2024-06-15 13:59:18,-0.1795943826,0.3995058835,0.1270599663,-6.629544735,-1.647210717,10.9989624,-305.9642857142857,-56.535714285714285,-2.5357142857142776,-7916.285714285715,497.5357142857143,3589.5714285714284,3
2024-06-15 13:59:19,1.037249207,-0.3738495409,0.1441642046,-0.4405331016,-2.408566952,4.544194698,-75.00621118012421,89.17391304347825,154.1304347826087,-7828.316770186336,1049.6024844720496,3247.422360248447,3
2024-06-15 13:59:19,0.1368338168,-0.09773843735,-0.03909537569,-10.15859795,-5.307945251,11.79862595,-185.7,-44.0,-108.375,-7956.9125,786.5375,3436.2625,3
2024-06-15 13:59:19,0.3457497358,0.1087340117,0.06963863969,-1.592144132,-2.729389906,4.903325081,17.47826086956522,226.0108695652173,175.17391304347825,-8006.728260869565,978.6847826086956,3382.2065217391305,3
2024-06-15 13:59:19,0.3457497358,0.1087340117,0.06963863969,-1.592144132,-2.729389906,4.903325081,-658.0681818181818,-48.36363636363636,-382.52272727272725,-7872.772727272727,1305.7727272727273,3343.8863636363635,3
2024-06-15 13:59:19,-0.06108652428,-0.7330383062,-0.1881465018,-7.184999466,-5.015852451,8.635885239,-940.1818181818182,-315.47727272727275,-778.5113636363636,-7919.090909090909,895.6818181818182,3353.6022727272725,3
2024-06-15 13:59:19,-0.06108652428,-0.7330383062,-0.1881465018,-7.163451672,-3.05021286,8.43956089,-513.7340425531916,-478.5531914893617,-611.2021276595744,-7648.372340425532,359.8191489361702,3534.2659574468084,3
2024-06-15 13:59:19,-0.2419026345,0.5277875662,0.2394591719,-7.163451672,-3.05021286,8.43956089,16.674418604651166,41.74418604651163,-353.5813953488372,-7932.395348837209,623.5116279069767,3530.3023255813955,3
2024-06-15 13:59:19,0.17715092,-0.2113593817,-0.1246165112,-2.67671752,-3.572149038,5.437232018,-250.5056179775281,-314.4269662921348,-538.5505617977528,-7714.752808988764,526.3483146067416,3797.752808988764,3
2024-06-15 13:59:19,0.17715092,-0.2113593817,-0.1246165112,-2.67671752,-3.572149038,5.437232018,-262.1333333333333,-293.7333333333333,-824.8,-7561.2,216.6,3500.5,3
2024-06-15 13:59:20,-0.7611380816,-0.2846632004,-0.2895501256,-2.04464817,-4.627991676,7.869740963,10.348837209302324,367.5813953488372,-32.581395348837205,-7846.186046511628,339.2325581395349,3633.2093023255816,3
2024-06-15 13:59:20,-0.06475171447,-0.3029891551,0.2076941878,-7.036558628,-7.352593422,8.348581314,-111.15384615384616,184.3846153846154,35.61538461538461,-8028.7692307692305,708.3846153846154,3648.923076923077,3
2024-06-15 13:59:20,-0.06475171447,-0.3029891551,0.2076941878,-7.036558628,-7.352593422,8.348581314,-288.0,-12.272727272727272,-460.5,-7868.477272727273,345.82954545454544,3515.965909090909,3
2024-06-15 13:59:20,0.6609562039,-0.3591887653,0.2956587672,-3.323152065,-3.773261786,8.722076416,-387.0,97.66666666666666,-246.1111111111111,-7924.333333333333,-110.77777777777776,3427.6666666666665,3
2024-06-15 13:59:20,-0.3494149148,-0.1356120855,-0.2333505303,-3.205836058,-3.550601006,7.61595583,-100.3181818181818,270.25,151.6590909090909,-8216.795454545454,169.64772727272728,3358.125,3
2024-06-15 13:59:20,-0.3494149148,-0.1356120855,-0.2333505303,-3.205836058,-3.550601006,7.61595583,-246.3043478260869,-462.6521739130435,-243.4782608695652,-7849.0,357.304347826087,3521.8695652173915,3
2024-06-15 13:59:20,0.2651155293,0.03054326214,0.05619960278,-3.569754839,-4.402936935,8.485051155,-770.6860465116279,-560.7906976744187,-700.3255813953489,-7579.244186046511,-241.1279069767442,3862.0,3
2024-06-15 13:59:20,0.2651155293,0.03054326214,0.05619960278,-3.282450438,-3.593696833,7.596801758,-529.6,-323.2,-402.7,-7618.9,-605.4,3717.1,3
2024-06-15 13:59:20,0.2712241709,0.3249803185,0.1649336219,-3.282450438,-3.593696833,7.596801758,968.0,9.0,347.0,-7943.0,195.0,3652.5,3
2024-06-15 13:59:20,0.1087340117,-0.3726277947,-0.1600466967,-4.378994942,-3.591302633,8.633491516,607.7272727272727,-544.5454545454545,-20.454545454545453,-7961.727272727273,442.8181818181818,3709.727272727273,3
2024-06-15 13:59:21,0.1087340117,-0.3726277947,-0.1600466967,-4.378994942,-3.591302633,8.633491516,-1226.581081081081,-3.9189189189189193,154.02702702702703,-7688.986486486487,431.1216216216216,3609.391891891892,3
2024-06-15 13:59:21,-0.1136209369,0.4752531648,0.2015855312,-4.09408474,-3.983951569,8.513781548,-1485.3648648648648,279.86486486486484,148.6216216216216,-7916.689189189189,281.7972972972973,3306.0135135135133,3
2024-06-15 13:59:21,-0.1478293836,-0.3042109013,-0.1001819,-1.946485996,-4.230554581,7.424419403,232.51807228915663,-104.4578313253012,332.3855421686747,-8104.0120481927715,-317.18072289156623,3360.012048192771,3
2024-06-15 13:59:21,-0.1478293836,-0.3042109013,-0.1001819,-1.946485996,-4.230554581,7.424419403,1178.4494382022472,-280.67415730337075,30.696629213483163,-7955.528089887641,530.4831460674158,3621.8988764044943,3
2024-06-15 13:59:21,-0.01343903504,-0.109955743,-0.1038470939,-5.597643375,-4.323928356,11.27429581,1028.9204545454545,-925.125,-134.51136363636363,-7758.727272727273,788.625,3998.295454545456,3
2024-06-15 13:59:21,-0.01343903504,-0.109955743,-0.1038470939,-5.597643375,-4.323928356,11.27429581,92.59090909090908,-1119.590909090909,-596.4772727272727,-7578.454545454545,411.2840909090909,4288.681818181818,3
2024-06-15 13:59:21,0.06230825558,0.7415903807,0.3115412891,-4.431667328,-3.768473387,8.710105896,-699.952380952381,-287.2857142857143,129.52380952380952,-7546.571428571428,134.28571428571428,4098.9047619047615,3
2024-06-15 13:59:21,-0.2773328125,-0.1356120855,-0.1209513173,-3.155557871,-1.053448796,5.803544998,2554.438202247191,31.876404494382022,553.4494382022472,-7692.76404494382,411.123595505618,3743.191011235955,3
2024-06-15 13:59:21,-0.1600466967,-1.225395679,-0.7403686643,-3.320757866,-3.478775024,9.88805294,2166.983425414365,14.93922651933702,1269.60773480663,-7680.46408839779,1913.1988950276243,3876.552486187845,3
2024-06-15 13:59:22,-0.2125810981,0.03420845419,0.05497787148,-3.11964488,-4.584896088,9.864110947,1781.9005524861875,-230.364640883978,1622.646408839779,-7462.784530386741,2034.1933701657456,3979.314917127072,3
2024-06-15 13:59:22,-0.2125810981,0.03420845419,0.05497787148,-3.11964488,-4.584896088,9.864110947,-144.41379310344826,137.58620689655174,904.896551724138,-7407.103448275862,2357.344827586207,4258.344827586207,3
2024-06-15 13:59:22,0.1197295859,0.5839871764,-0.1759291887,-3.12203908,-4.12999773,8.609549522,-1079.1538461538462,340.61538461538464,216.3846153846154,-7372.384615384615,1975.0,4039.307692307693,3
2024-06-15 13:59:22,0.1197295859,0.5839871764,-0.1759291887,-3.12203908,-4.12999773,8.609549522,-1018.4275862068964,185.8551724137931,578.7103448275863,-7511.896551724138,1608.5931034482758,3841.7655172413793,3
2024-06-15 13:59:22,-0.3628539443,-0.1441642046,0.3787364662,-1.110909581,-9.402029991,4.821922302,73.83870967741936,-547.4516129032259,-255.9354838709677,-7619.612903225807,1299.6774193548388,4002.870967741936,3
2024-06-15 13:59:22,-0.228463605,-0.06352998316,-0.196698606,-5.279214859,-0.2011129409,11.88481712,989.4117647058824,-343.6470588235294,209.05882352941177,-7380.529411764706,2285.0,4086.235294117647,3
2024-06-15 13:59:22,-0.4984660447,0.728151381,-0.8967501521,-1.00556469,-8.566453934,5.521028996,-750.4606741573034,-370.3707865168539,-256.314606741573,-6805.865168539326,2414.955056179775,4612.887640449439,3
2024-06-15 13:59:22,0.8356636763,-0.8894197941,1.012814522,-3.11964488,-4.285621166,8.07324791,-1871.386363636364,193.20454545454544,-75.25,-7212.25,1917.4318181818185,4342.590909090909,3
2024-06-15 13:59:22,0.8356636763,-0.8894197941,1.012814522,-3.11964488,-4.285621166,8.07324791,-1473.9888888888888,583.9555555555555,-34.74444444444445,-7262.311111111111,1411.6888888888889,4256.966666666666,3
2024-06-15 13:59:23,0.5033529401,0.6206390858,-1.038470864,-5.207388878,-2.765302896,10.02452278,470.9885057471264,33.39080459770116,-916.6436781609196,-7345.149425287356,1041.1954022988505,4434.379310344828,3
2024-06-15 13:59:23,0.5033529401,0.6206390858,-1.038470864,-5.207388878,-2.765302896,10.02452278,1642.2777777777778,-266.22222222222223,-669.3888888888889,-7342.444444444444,1432.611111111111,4407.388888888889,3
2024-06-15 13:59:23,0.1637118906,-0.08307767659,0.2736676335,0.05267243832,-13.47217274,-1.067813993,1672.8333333333333,-460.6666666666667,-422.1666666666667,-7311.333333333333,1599.8333333333333,4410.166666666667,3
2024-06-15 13:59:23,1.348790407,-1.380555511,1.148426652,-3.282450438,-0.988805294,12.76109505,-538.3048780487804,-176.8536585365854,-701.6219512195122,-7144.170731707317,2422.0853658536585,4427.536585365854,3
2024-06-15 13:59:23,1.348790407,-1.380555511,1.148426652,-3.282450438,-0.988805294,12.76109505,-2011.1538461538464,75.41758241758242,-839.945054945055,-7242.043956043956,2156.945054945055,4334.472527472528,3
2024-06-15 13:59:23,0.1185078546,-0.2577851415,0.444709897,-1.134851575,-10.59434223,1.692700624,-2934.9578947368423,672.6947368421053,-949.2842105263156,-7517.105263157895,252.54736842105265,4051.021052631579,3
2024-06-15 13:59:23,0.1185078546,-0.2577851415,0.444709897,-1.134851575,-10.59434223,1.692700624,-2816.0348837209303,799.3139534883721,-1275.5,-7709.5,239.90697674418604,3905.604651162791,3
2024-06-15 13:59:23,1.307251573,-1.65910995,0.9908234477,-2.33913517,-2.8993783,12.72278786,-3051.123595505618,308.97752808988764,-1079.0898876404494,-7634.426966292135,-499.5393258426966,4120.943820224719,3
2024-06-15 13:59:23,1.307251573,-1.65910995,0.9908234477,-2.33913517,-2.8993783,12.72278786,-2845.044943820225,298.17977528089887,-1286.0786516853932,-7711.662921348315,-807.7191011235955,4078.550561797753,3
2024-06-15 13:59:24,-1.391551018,0.8063421249,-1.378111959,-2.49236393,-4.692635536,9.397241592,-1988.7325581395348,1232.9186046511627,-1133.8488372093022,-7604.453488372093,-1175.1279069767445,3745.220930232558,3
2024-06-15 13:59:24,0.6279694438,-0.1832595766,0.5656611919,0.6296750307,-13.49611473,1.043871999,-1319.0344827586207,1385.2413793103449,-701.1034482758621,-7839.9655172413795,-1482.1379310344828,3376.586206896552,3
2024-06-15 13:59:24,0.6279694438,-0.1832595766,0.5656611919,0.6296750307,-13.49611473,1.043871999,-895.8651685393259,1056.876404494382,-765.3033707865169,-7989.76404494382,-1811.820224719101,3107.6516853932585,3
2024-06-15 13:59:24,1.158200502,-1.714087844,1.177748203,-1.953668594,-0.6584054828,12.16733265,180.51612903225805,1119.247311827957,-215.43010752688173,-7910.064516129032,-1885.3010752688167,2899.010752688172,3
2024-06-15 13:59:24,-0.145385921,0.4923573732,-1.125213742,-2.130839586,-5.657498837,10.00536919,709.936305732484,322.4777070063694,-264.04458598726114,-8008.490445859873,-1711.5095541401274,2730.6942675159235,3
2024-06-15 13:59:24,-0.145385921,0.4923573732,-1.125213742,-2.130839586,-5.657498837,10.00536919,682.6117647058824,348.47058823529414,-1118.929411764706,-7951.7411764705885,-2055.929411764706,2682.7764705882355,3
2024-06-15 13:59:24,-1.392772794,0.5546656251,-0.2712241709,0.6775590777,-11.40118885,-0.8571242094,282.3636363636364,1099.6818181818182,-1015.7727272727273,-7658.5,-2027.590909090909,2263.590909090909,3
2024-06-15 13:59:24,-1.392772794,0.5546656251,-0.2712241709,0.6775590777,-11.40118885,-0.8571242094,-566.8863636363636,979.5,-1187.0227272727273,-7961.181818181818,-2249.318181818182,1958.409090909091,3
2024-06-15 13:59:24,1.599245191,-2.172236919,1.243721604,-0.107739076,-7.32146883,7.074865818,-707.123595505618,673.438202247191,-1231.2359550561798,-7922.528089887641,-2610.887640449438,2126.61797752809,3
2024-06-15 13:59:24,1.941329718,0.522900641,-0.9101892114,-1.44849205,-4.50109911,9.454702377,-737.304347826087,449.1304347826087,-867.5217391304348,-8011.434782608696,-2525.608695652174,2073.043478260869,3
2024-06-15 13:59:25,1.941329718,0.522900641,-0.9101892114,-1.44849205,-4.50109911,9.454702377,-95.14457831325302,417.06024096385545,-516.6987951807229,-7782.180722891566,-3146.024096385542,1589.2048192771083,3
2024-06-15 13:59:25,-3.552792311,1.083674908,-1.13254416,-0.5961562395,-8.851364136,2.513911724,221.87234042553192,363.0851063829787,-296.23404255319144,-8128.255319148936,-2891.574468085106,1708.872340425532,3
2024-06-15 13:59:25,0.3958406746,-1.479515672,0.9639453292,1.048660398,-10.84094524,0.758961916,190.66666666666663,-254.1111111111111,468.77777777777777,-7697.777777777777,-2515.8888888888887,2164.4444444444443,3
2024-06-15 13:59:25,0.3958406746,-1.479515672,0.9639453292,1.048660398,-10.84094524,0.758961916,-67.0,587.5,357.5,-7725.0,-2528.0,1499.0,3
2024-06-15 13:59:25,1.325577617,-0.3213151097,-0.2932153046,-2.456450939,-1.22822547,15.7322998,-367.3956043956044,589.3516483516484,-739.0,-7722.967032967032,-2824.208791208792,1618.2747252747254,3
2024-06-15 13:59:25,1.325577617,-0.3213151097,-0.2932153046,-2.456450939,-1.22822547,15.7322998,137.97076023391813,1263.0701754385964,-825.8771929824561,-7537.777777777777,-2780.8888888888887,1782.8011695906432,3
2024-06-15 13:59:25,-2.449569702,1.68232286,-1.307251573,-1.278503656,-7.618350029,7.618350029,231.53801169590645,1938.5087719298244,-1118.859649122807,-7448.888888888889,-2536.4444444444443,1619.0584795321638,3
2024-06-15 13:59:25,0.4312708676,0.3909537494,-0.3188716471,5.358223438,-12.02128696,-5.430049419,-4376.666666666667,1132.7444444444443,-2923.655555555556,-7758.977777777778,-3553.2666666666664,235.8333333333333,3
2024-06-15 13:59:25,0.4312708676,0.3909537494,-0.3188716471,5.358223438,-12.02128696,-5.430049419,-2454.2183908045977,-412.9770114942529,-1789.5977011494251,-7232.724137931034,-4659.528735632184,55.96551724137931,3
2024-06-15 13:59:25,1.299921274,-3.003013611,1.247386813,0.6967126727,-7.764396191,5.856217384,-1408.0454545454545,174.8181818181818,-905.681818181818,-6924.409090909091,-4410.636363636364,27.454545454545453,3
2024-06-15 13:59:26,1.186300278,1.003040791,-0.7000515461,-0.8523358107,-5.829881191,13.49850941,-1008.4137931034484,553.3448275862069,-424.1034482758621,-6855.379310344828,-4583.724137931034,-211.27586206896552,3
2024-06-15 13:59:26,1.186300278,1.003040791,-0.7000515461,-0.8523358107,-5.829881191,13.49850941,-1254.25,289.14583333333337,-470.7083333333333,-6809.020833333333,-4380.354166666667,-384.02083333333337,3
2024-06-15 13:59:26,-4.267504692,2.147802114,-0.8234463334,0.1723825186,-7.860164165,-1.484405041,-873.8604651162791,445.7093023255814,720.6860465116279,-7285.279069767442,-4319.174418604651,-1131.7790697674418,3
2024-06-15 13:59:26,2.171015024,-1.292590857,1.544267297,2.777273893,-14.8536272,-3.842693806,469.48026315789474,-51.97368421052632,907.2631578947368,-7290.348684210527,-3788.2105263157896,-1147.0263157894738,3
2024-06-15 13:59:26,2.171015024,-1.292590857,1.544267297,2.777273893,-14.8536272,-3.842693806,718.8223684210527,-17.763157894736842,1049.3684210526317,-7268.638157894737,-3761.8947368421054,-981.2368421052632,3
2024-06-15 13:59:26,3.572340012,-0.9321803451,0.3335324228,-4.010287762,7.354987621,16.52238655,1347.813953488372,623.8372093023256,814.5116279069767,-7262.767441860465,-3686.441860465117,-1061.1162790697674,3
2024-06-15 13:59:26,3.572340012,-0.9321803451,0.3335324228,-4.010287762,7.354987621,16.52238655,1590.112359550562,120.5505617977528,728.4157303370787,-7477.359550561798,-3471.6404494382023,-737.3033707865169,3
2024-06-15 13:59:26,-1.446528912,0.5265658498,-1.238834739,-0.1891419291,-3.620033026,7.580042362,1028.3255813953488,-764.3720930232558,816.9767441860465,-7812.953488372093,-3195.3255813953488,-570.3255813953489,3
2024-06-15 13:59:26,-4.621806622,0.2174680233,-0.3750712574,1.697489023,-14.28380775,3.430891037,804.8695652173913,-971.9347826086956,869.2173913043479,-7737.173913043478,-3056.282608695652,-538.2826086956521,3
2024-06-15 13:59:26,-4.621806622,0.2174680233,-0.3750712574,1.697489023,-14.28380775,3.430891037,994.1219512195122,-1087.5121951219512,535.5121951219512,-7379.804878048781,-2993.7804878048782,-26.0,3
2024-06-15 13:59:27,3.693291187,-1.455080986,1.672549009,-0.653617084,-8.473079681,4.218583584,858.9782608695652,-581.4130434782609,270.0108695652174,-7913.858695652174,-3165.8478260869565,266.8695652173913,3
2024-06-15 13:59:27,0.02809980139,-0.0415388383,-0.5522221923,-1.972822189,3.100491285,10.77869606,1572.0441988950276,-689.0718232044198,656.5303867403314,-7618.0,-2887.806629834254,1053.1933701657458,3
2024-06-15 13:59:27,-3.544240236,-0.3909537494,-2.072054863,1.527500629,-4.070142746,4.596867085,1579.9893617021276,-766.2553191489362,678.0957446808511,-7621.106382978724,-2869.7659574468084,1066.5744680851064,3
2024-06-15 13:59:27,-3.544240236,-0.3909537494,-2.072054863,1.527500629,-4.070142746,4.596867085,1058.4878048780488,-796.1219512195122,263.9512195121951,-7880.512195121952,-2472.756097560976,1390.3902439024391,3
2024-06-15 13:59:27,-2.017076969,-0.1466076523,0.1368338168,2.911349297,-20.36986732,-1.886630893,1184.5274725274726,-1045.1208791208792,611.9890109890109,-7946.461538461538,-2475.824175824176,1615.978021978022,3
2024-06-15 13:59:27,4.3249259,-0.3164281845,3.740938663,-0.2992752194,-7.417236805,4.041412354,2055.0375,-1188.06875,795.1375,-7845.35,-2464.2625,1709.79375,3
2024-06-15 13:59:27,4.3249259,-0.3164281845,3.740938663,-0.2992752194,-7.417236805,4.041412354,1991.2875,-1271.19375,661.3875,-7850.35,-2218.0125,1760.41875,3
2024-06-15 13:59:27,-0.7134906054,-0.228463605,0.05742133409,-1.101332784,-7.091625214,5.789179802,2039.6666666666667,-1932.379310344828,727.6091954022988,-7976.356321839081,-1844.9770114942528,2472.1494252873563,3
2024-06-15 13:59:27,-0.7134906054,-0.228463605,0.05742133409,-1.101332784,-7.091625214,5.789179802,2788.632183908046,-1971.367816091954,800.8965517241379,-7708.126436781609,-1280.1379310344828,2974.172413793104,3
2024-06-15 13:59:28,-5.2778759,-0.4642575979,-3.065321684,0.691924274,-13.99889755,2.104503393,2818.7272727272725,-776.8181818181819,627.0909090909091,-7706.636363636364,-856.0,3460.3636363636365,3
2024-06-15 13:59:28,-0.3054326177,-0.2015855312,1.270599723,0.7182605267,-12.66772079,-0.5291185975,1438.9662921348315,-552.2921348314607,245.1011235955056,-7723.943820224719,-590.7977528089888,3613.247191011236,3
2024-06-15 13:59:28,-0.3054326177,-0.2015855312,1.270599723,0.7182605267,-12.66772079,-0.5291185975,831.0454545454545,-301.70454545454544,568.1590909090909,-7663.772727272727,-458.0909090909091,3889.4545454545455,3
2024-06-15 13:59:28,6.878342628,-0.7440338731,3.492927551,2.645592928,-1.549048543,0.9002198577,159.65,-372.8777777777778,487.65,-7631.5,89.93333333333334,3801.322222222222,3
2024-06-15 13:59:28,0.2651155293,-0.1710422635,-1.607797384,-0.248996973,5.406107426,5.09725523,244.65,-351.76666666666665,472.65,-7581.5,96.6,3802.433333333333,3
2024-06-15 13:59:28,0.2651155293,-0.1710422635,-1.607797384,-0.248996973,5.406107426,5.09725523,95.94117647058825,-179.1764705882353,113.23529411764706,-7678.35294117647,-116.0,3813.294117647059,3
2024-06-15 13:59:28,-3.826459885,-0.5522221923,-2.915048838,0.8906430602,-18.2749424,5.468356609,216.3111111111111,56.4,161.37777777777777,-7751.555555555556,-317.3333333333333,4165.888888888889,3
2024-06-15 13:59:28,-3.826459885,-0.5522221923,-2.915048838,0.1268926859,-10.15141487,4.915296078,552.3255813953489,-50.6046511627907,218.2558139534884,-7602.279069767442,-42.0,4217.779069767442,3
2024-06-15 13:59:28,5.292536259,-2.020742178,3.036000252,0.1268926859,-10.15141487,4.915296078,279.5164835164835,-46.26373626373626,550.0879120879122,-7751.714285714285,290.5934065934066,4211.769230769231,3
2024-06-15 13:59:28,1.787391663,-0.3579670191,0.2247984111,6.818686485,9.524134636,13.67089176,-241.3333333333333,628.3333333333334,313.3333333333333,-7848.666666666667,286.0,3875.6666666666665,3
2024-06-15 13:59:29,1.787391663,-0.3579670191,0.2247984111,6.818686485,9.524134636,13.67089176,331.40909090909093,-81.0,-105.75,-7962.363636363636,341.1363636363636,3881.113636363637,3
2024-06-15 13:59:29,-2.214997292,1.284038782,-2.663372517,1.053448796,0.117315881,7.999027729,194.3023255813953,104.3953488372093,52.55813953488372,-7666.674418604651,267.95348837209303,3853.581395348837,3
2024-06-15 13:59:29,-3.180164576,0.1905899495,-0.9187413454,-0.720654726,-16.53675079,2.006340981,-62.13829787234042,-35.84042553191489,40.03191489361703,-7951.776595744681,566.7340425531914,3670.329787234042,3
2024-06-15 13:59:29,-3.180164576,0.1905899495,-0.9187413454,-0.720654726,-16.53675079,2.006340981,-336.54,-177.38,2.520000000000003,-7653.46,83.9,3908.64,3
2024-06-15 13:59:29,6.355442047,-2.065946341,2.3909266,-0.2298433632,-6.988674641,7.223306656,-207.8733333333333,-230.04666666666668,-120.14666666666668,-7648.793333333333,-52.76666666666668,3783.306666666667,3
2024-06-15 13:59:29,6.355442047,-2.065946341,2.3909266,-0.2298433632,-6.988674641,7.223306656,-259.6746987951807,-538.9397590361446,128.53012048192772,-7612.55421686747,444.72289156626505,4168.156626506024,3
2024-06-15 13:59:29,0.6548475623,0.5558874011,-0.8246681094,2.760514498,-1.584961534,11.56638813,-558.42,-220.98,-41.92,-7580.62,615.78,4389.56,3
2024-06-15 13:59:29,-3.721390963,1.513724089,-1.891238809,-1.572990537,-5.461174011,4.659116745,-901.578947368421,-100.68421052631578,-268.9473684210526,-7479.526315789473,507.5263157894737,3987.4736842105262,3
2024-06-15 13:59:29,-3.721390963,1.513724089,-1.891238809,-1.572990537,-5.461174011,4.659116745,-747.4470588235295,328.4,319.1411764705882,-7679.564705882353,0.2823529411764696,4131.505882352942,3
2024-06-15 13:59:29,3.258355141,-2.238210201,1.497841597,2.23139596,-9.524134636,5.621585369,-5.49438202247191,314.6179775280899,-352.9887640449438,-7671.67415730337,205.9438202247191,4091.932584269663,3
2024-06-15 13:59:30,1.309695125,-0.2724458873,-0.8063421249,4.261679173,8.382100105,22.05059814,-467.5681818181818,221.5,-202.70454545454547,-7659.0,94.47727272727272,3751.113636363637,3
2024-06-15 13:59:30,1.309695125,-0.2724458873,-0.8063421249,4.261679173,8.382100105,22.05059814,-341.02197802197804,229.1098901098901,-199.24175824175825,-7648.967032967032,-169.02197802197804,3942.934065934066,3
2024-06-15 13:59:30,-4.409225464,1.890017033,-1.913229942,-0.6847416759,-5.109226227,2.310404539,-366.5195530726257,200.854748603352,-250.0055865921788,-7666.63687150838,62.79888268156424,3829.659217877095,3
2024-06-15 13:59:30,4.798957348,-2.872288465,1.461189628,1.48679924,-0.2274491638,7.381323814,-656.5806451612904,198.25806451612905,-138.5268817204301,-7650.924731182796,106.50537634408602,3517.4086021505377,3
2024-06-15 13:59:30,4.798957348,-2.872288465,1.461189628,1.48679924,-0.2274491638,7.381323814,-860.5,313.07142857142856,-308.2142857142857,-7816.571428571428,-225.7142857142857,3687.071428571429,3
2024-06-15 13:59:30,1.021366715,0.8356636763,-1.0726794,3.105279684,-0.806845963,9.722852707,-803.4444444444445,-175.66666666666669,-264.77777777777777,-7962.666666666667,-223.88888888888889,3834.0,3
2024-06-15 13:59:30,1.021366715,0.8356636763,-1.0726794,3.105279684,-0.806845963,9.722852707,-747.0652173913044,265.25,101.02173913043478,-7605.586956521739,-56.84782608695652,3882.880434782609,3
2024-06-15 13:59:30,2.511877775,-1.318247199,0.6206390858,5.257667065,10.58716011,15.11938381,-1470.1472392638036,297.0552147239264,-410.60736196319016,-7982.558282208589,-1148.3926380368098,3307.134969325153,3
2024-06-15 13:59:30,2.511877775,-1.318247199,0.6206390858,5.257667065,10.58716011,15.11938381,-1005.116564417178,297.6687116564417,-417.3558282208589,-7777.650306748466,-1241.644171779141,3264.19018404908,3
2024-06-15 13:59:31,-3.177721024,2.608394623,-1.938886285,-0.3950432837,1.592144132,5.920860767,-202.9318181818182,442.8181818181818,-468.8863636363636,-8249.738636363636,-1318.0568181818182,2713.090909090909,3
2024-06-15 13:59:31,-3.177721024,2.608394623,-1.938886285,-0.3950432837,1.592144132,5.920860767,422.8522727272728,-46.09090909090909,49.17045454545453,-8015.625,-1121.6931818181818,2873.4204545454545,3
2024-06-15 13:59:31,2.083050489,-1.954768777,1.164309144,2.207453966,-3.435679436,8.288725853,446.4242424242424,46.04848484848485,-137.0121212121212,-8035.860606060606,-848.0121212121212,3263.436363636364,3
2024-06-15 13:59:31,0.2822197378,0.6780604124,-1.127657294,6.809109688,8.705317497,14.34366226,161.57575757575756,56.35151515151515,-214.5878787878788,-8043.739393939394,-725.5878787878788,3056.163636363636,3
2024-06-15 13:59:31,0.2822197378,0.6780604124,-1.127657294,6.809109688,8.705317497,14.34366226,-353.1111111111111,-19.666666666666668,45.55555555555556,-7989.444444444444,-1446.0,2905.333333333333,3
2024-06-15 13:59:31,-5.211902142,1.949881911,-1.695761919,-0.5458779931,-3.213018656,3.612850428,397.6774193548387,148.4193548387097,-384.5161290322581,-7869.387096774193,-1858.1935483870968,2486.967741935484,3
2024-06-15 13:59:31,2.430022001,-1.766622305,1.386664152,0.9361328483,-2.743755102,9.538499832,460.1142857142857,171.74285714285713,-328.0571428571428,-8238.57142857143,-1332.057142857143,2441.2571428571428,3
2024-06-15 13:59:31,2.430022001,-1.766622305,1.386664152,0.9361328483,-2.743755102,9.538499832,384.3333333333333,-156.0,442.3333333333333,-7948.0,-784.3333333333334,3112.333333333333,3
2024-06-15 13:59:31,1.425759435,0.8026769161,-1.786170006,3.41892004,-2.181117773,13.5128746,-1277.1379310344828,-224.82758620689657,-353.17241379310343,-8007.862068965517,-1011.3448275862067,3258.586206896552,3
2024-06-15 13:59:31,-5.751907349,1.979203343,-1.551597714,-1.733402014,-5.607220173,1.170764685,-1115.413043478261,-83.75,-179.31521739130434,-7870.684782608696,-1085.5217391304348,3031.1195652173915,3
2024-06-15 13:59:32,-5.751907349,1.979203343,-1.551597714,-1.733402014,-5.607220173,1.170764685,-769.1428571428571,-183.57142857142856,-203.28571428571428,-7869.142857142857,-1590.428571428571,3158.285714285714,3
2024-06-15 13:59:32,3.483153582,-2.372600555,1.890017033,-0.8140285611,-4.240131378,6.222530365,3.511627906976741,157.13953488372096,-247.93023255813955,-7969.127906976744,-1828.0116279069769,2848.2558139534885,3
2024-06-15 13:59:32,3.483153582,-2.372600555,1.890017033,-0.8140285611,-4.240131378,6.222530365,801.6470588235294,594.8342245989305,507.6951871657754,-8040.550802139038,-1168.090909090909,2786.224598930481,3
2024-06-15 13:59:32,1.736078978,0.1172861308,-1.126435518,0.9840168953,14.90151119,15.98369026,725.1764705882352,575.5828877005348,491.6524064171123,-8243.224598930481,-804.4545454545455,2734.8877005347595,3
2024-06-15 13:59:32,-4.901582718,1.357342601,-2.282192469,-1.496376038,-5.31273365,2.918531895,55.67088607594934,-727.4303797468355,9.74683544303798,-8058.93670886076,-453.6962025316456,3255.379746835444,3
2024-06-15 13:59:32,-0.916297853,-0.676838696,1.48684597,-1.59932673,-6.169857979,5.753266811,-1366.3333333333333,-101.22222222222224,361.8888888888889,-8003.777777777777,-1573.888888888889,3167.555555555556,3
2024-06-15 13:59:32,-0.916297853,-0.676838696,1.48684597,-1.59932673,-6.169857979,5.753266811,295.22222222222223,-220.5555555555556,-285.22222222222223,-7991.333333333333,-1387.6666666666667,3307.111111111112,3
2024-06-15 13:59:32,5.130046368,-2.211332083,2.348165989,-0.3782838583,11.50653362,10.87446404,641.1685393258426,320.8314606741573,199.07865168539325,-8105.685393258427,-394.4494382022472,3088.089887640449,3
2024-06-15 13:59:32,-2.813645363,1.91078651,-3.518583775,0.3615244627,4.230554581,8.714894295,-479.73333333333335,-107.02222222222224,53.68888888888887,-8240.777777777777,-301.4,3138.0,3
2024-06-15 13:59:33,-2.813645363,1.91078651,-3.518583775,0.3615244627,4.230554581,8.714894295,-1929.546511627907,-493.6046511627907,-727.546511627907,-7707.581395348837,-922.5232558139536,3327.9767441860467,3
2024-06-15 13:59:33,0.7403686643,-0.2211332172,0.7342600226,1.314416766,-10.76672459,4.941632271,-2684.123595505618,141.8314606741573,-602.1460674157304,-7627.494382022472,-1379.7752808988764,3304.123595505618,3
2024-06-15 13:59:33,3.952298164,-3.06287837,2.459343433,-0.5889736414,5.691017628,11.16655636,-2636.204545454545,871.8068181818181,-403.92045454545456,-7645.659090909091,-1717.4204545454545,3174.693181818182,3
2024-06-15 13:59:33,3.952298164,-3.06287837,2.459343433,-0.5889736414,5.691017628,11.16655636,-1946.0795454545453,1130.840909090909,-403.2840909090909,-8005.301136363636,-1698.1079545454545,2498.3125,3
2024-06-15 13:59:33,0.96028018,0.668286562,-1.494176388,1.292868972,3.952826977,8.169015884,-2429.25,823.0,-498.0,-7881.5,-2073.0,2524.0,3
2024-06-15 13:59:33,-6.696304798,1.444085479,-2.309070587,-0.9361328483,-7.331045628,1.824381709,-1682.0112359550562,644.1123595505618,-402.3932584269663,-7925.078651685393,-2782.85393258427,1996.202247191012,3
2024-06-15 13:59:33,-6.696304798,1.444085479,-2.309070587,-0.9361328483,-7.331045628,1.824381709,-196.61797752808988,520.8202247191011,602.123595505618,-8157.044943820225,-2270.325842696629,1695.370786516854,3
2024-06-15 13:59:33,3.066543579,-2.671924591,1.224173903,0.282515794,-2.181117773,6.205770969,443.1538461538461,664.2417582417582,672.6043956043956,-8003.593406593407,-1772.5384615384614,1880.21978021978,3
2024-06-15 13:59:33,3.066543579,-2.671924591,1.224173903,0.282515794,-2.181117773,6.205770969,468.3636363636364,107.8181818181818,-58.18181818181819,-7891.818181818182,-1686.8181818181818,1506.590909090909,3
2024-06-15 13:59:33,1.813048005,0.7171558142,-1.297477722,0.2011129409,6.897695065,16.13213158,791.2117647058824,347.6941176470588,609.4,-8276.270588235295,-2383.835294117647,1667.964705882353,3
2024-06-15 13:59:34,-6.296799183,1.831374049,-1.826487064,-2.070984364,-2.647987127,3.074155092,1766.8202247191011,156.5505617977528,161.8876404494382,-8272.651685393259,-2425.303370786517,1589.0112359550562,3
2024-06-15 13:59:34,-6.296799183,1.831374049,-1.826487064,-2.070984364,-2.647987127,3.074155092,1773.5636363636363,-60.76969696969698,808.2121212121212,-8291.981818181817,-1789.1818181818182,1419.4363636363637,3
2024-06-15 13:59:34,0.09040805697,-1.609019041,2.1258111,0.7972691655,-10.52251625,4.642356873,1790.4444444444443,-302.77777777777777,1117.888888888889,-8232.111111111111,-1894.3333333333333,1432.3333333333333,3
2024-06-15 13:59:34,0.09040805697,-1.609019041,2.1258111,0.7972691655,-10.52251625,4.642356873,4380.577777777778,-1085.5444444444445,882.8222222222222,-8251.255555555555,-1704.5444444444445,1525.3333333333333,3
2024-06-15 13:59:34,3.263242245,-1.406211853,0.5510004759,-1.031900883,12.634202,19.36669731,5133.111111111111,-1606.6666666666667,1621.5555555555557,-8247.222222222223,-1004.6666666666666,2080.111111111112,3
2024-06-15 13:59:34,-2.653598547,1.627344966,-1.926669002,-1.074996591,0.4932055473,7.261613846,3467.367816091954,-2046.32183908046,1149.5632183908046,-7746.080459770115,419.8390804597701,3238.5632183908046,3
2024-06-15 13:59:34,-2.653598547,1.627344966,-1.926669002,-1.074996591,0.4932055473,7.261613846,3033.0333333333333,-1237.4666666666667,1790.0,-7651.844444444445,1037.1222222222225,3490.6222222222223,3
2024-06-15 13:59:34,0.1942551434,-0.03787364438,0.1722639948,-1.240196466,-1.594538331,4.673481941,1725.8426966292136,-163.26966292134833,1502.426966292135,-7775.853932584269,2031.9550561797755,2990.8651685393256,3
2024-06-15 13:59:34,3.59921813,-2.780658484,0.8625417352,-0.3471592367,6.021417141,16.44337654,898.8602150537635,-507.1075268817205,1302.9139784946235,-8007.193548387097,1566.6559139784947,3408.763440860216,3
2024-06-15 13:59:34,3.59921813,-2.780658484,0.8625417352,-0.3471592367,6.021417141,16.44337654,1137.502923976608,-459.0409356725146,1293.7368421052631,-7764.456140350877,1539.7251461988303,3372.4444444444443,3
2024-06-15 13:59:35,0.5510004759,1.271821499,-0.5497786999,-0.5147533417,1.958456993,13.19683933,1761.6774193548388,-181.1827956989248,1620.8279569892472,-7485.247311827957,1747.6559139784947,3538.537634408602,3
2024-06-15 13:59:35,0.5510004759,1.271821499,-0.5497786999,-0.5147533417,1.958456993,13.19683933,1269.9411764705883,-174.4470588235294,1117.2941176470588,-7464.423529411764,2749.6823529411763,3646.929411764706,3
2024-06-15 13:59:35,-2.803871393,1.521054506,-0.4728097022,0.3854664862,-1.237802267,3.490746021,-379.0,-431.5,806.0,-7113.5,2909.0,3782.0,3
2024-06-15 13:59:35,1.474628687,-2.001194477,-0.1368338168,1.072602391,0.349553436,3.529053211,-848.438202247191,173.42696629213484,160.79775280898878,-7456.494382022472,3178.494382022472,3033.921348314607,3
2024-06-15 13:59:35,1.474628687,-2.001194477,-0.1368338168,1.072602391,0.349553436,3.529053211,-214.6075949367089,-535.5443037974684,-364.6708860759493,-7347.316455696203,2313.759493670886,3666.835443037975,3
2024-06-15 13:59:35,1.070235968,-0.2419026345,-0.338419348,-1.63763392,2.355894566,25.62514114,1047.741573033708,-357.0561797752809,603.9101123595506,-7141.988764044944,2552.955056179775,3550.067415730337,3
2024-06-15 13:59:35,-0.9285151958,2.641381264,-0.5888741016,-1.786074519,3.821146011,8.676587105,1450.5684210526315,-220.67368421052632,730.021052631579,-7076.210526315789,3289.252631578948,3581.1052631578946,3
2024-06-15 13:59:35,-0.9285151958,2.641381264,-0.5888741016,-1.786074519,3.821146011,8.676587105,432.986301369863,-363.1506849315069,-27.726027397260275,-7224.904109589041,3710.904109589041,3606.917808219178,3
2024-06-15 13:59:35,-1.033583999,0.5424483418,-0.2455678284,-0.8475474119,-4.781220913,-0.5722141862,-666.6666666666667,-218.66666666666663,-307.3333333333333,-7217.666666666667,3285.6666666666665,3569.6666666666665,3
2024-06-15 13:59:35,1.75196147,0.4251621962,-0.1661553532,-4.09169054,-0.7182605267,8.899248123,-804.1022727272727,107.27272727272728,-237.32954545454544,-7100.715909090909,2968.409090909091,3488.159090909091,3
2024-06-15 13:59:36,1.75196147,0.4251621962,-0.1661553532,-4.09169054,-0.7182605267,8.899248123,-372.3820224719101,18.50561797752809,-492.0674157303371,-7122.056179775281,2835.449438202247,3526.123595505618,3
2024-06-15 13:59:36,-1.326799273,-0.2956587672,-0.01221730467,-4.249708176,-2.645592928,5.72214222,1593.0481927710844,-291.34939759036143,363.13253012048193,-7161.325301204819,3147.927710843373,3289.397590361446,3
2024-06-15 13:59:36,-1.318247199,0.676838696,0.2443460971,-6.672640324,-2.693476915,9.971850395,1133.5,-252.17021276595744,206.0744680851064,-7107.18085106383,3482.159574468085,3260.648936170213,3
2024-06-15 13:59:36,-0.4214970171,0.8845328689,0.5143485069,-5.753266811,-4.862623692,5.530605793,-792.6046511627907,-639.4651162790698,199.093023255814,-6939.046511627907,3620.976744186047,3823.348837209304,3
2024-06-15 13:59:36,-0.4214970171,0.8845328689,0.5143485069,-5.753266811,-4.862623692,5.530605793,-1399.159090909091,392.5909090909091,473.7159090909091,-6973.204545454545,3714.840909090909,3789.863636363637,3
2024-06-15 13:59:36,1.491732955,-0.4911356568,0.9028588533,-4.503493309,4.082113743,7.424419403,-1161.304347826087,235.4782608695652,-511.5434782608696,-7443.673913043478,3298.913043478261,3542.695652173913,3
2024-06-15 13:59:36,1.491732955,-0.4911356568,0.9028588533,-4.503493309,4.082113743,7.424419403,-669.7790697674418,-589.1279069767443,-775.6511627906976,-7220.325581395349,2675.046511627907,4072.1511627906975,3
2024-06-15 13:59:36,2.309070587,-2.328618288,3.038443804,-3.059789658,9.299078941,8.997409821,274.22727272727275,-560.1818181818182,-792.1818181818182,-6857.454545454545,2350.590909090909,4011.272727272728,3
2024-06-15 13:59:36,-0.7159340382,0.7904596329,-1.578475833,-3.988739967,8.858546257,9.392453194,922.9213483146068,-32.86516853932585,381.6741573033708,-7204.337078651685,2951.6067415730336,3866.38202247191,3
2024-06-15 13:59:37,-0.7159340382,0.7904596329,-1.578475833,-3.988739967,8.858546257,9.392453194,780.4222222222222,-318.7333333333333,127.64444444444445,-7228.311111111111,3700.8888888888887,3795.044444444444,3
2024-06-15 13:59:37,0.2932153046,-0.6108652353,0.8063421249,-1.312022567,0.4764461517,4.407725334,-869.25,-493.0,-167.25,-6825.5,3374.0,4190.0,3
2024-06-15 13:59:37,1.778839588,-1.56625843,1.918116927,-0.3615244627,12.41154194,10.18972206,-1160.1162790697674,-78.51162790697674,-772.4651162790698,-7238.209302325581,2779.4418604651164,4021.418604651162,3
2024-06-15 13:59:37,1.778839588,-1.56625843,1.918116927,-0.3615244627,12.41154194,10.18972206,-969.4545454545456,-575.4090909090909,-998.5454545454544,-7105.477272727273,1999.409090909091,4431.113636363636,3
2024-06-15 13:59:37,-1.853365183,1.014036298,-2.134363174,-1.031900883,4.010287762,7.943961143,-264.8314606741573,-396.5730337078652,-730.8202247191011,-6816.393258426966,2079.067415730337,4611.056179775281,3
2024-06-15 13:59:37,-1.853365183,1.014036298,-2.134363174,2.49236393,6.564900875,6.215347767,211.5555555555556,-44.98888888888889,-396.4222222222222,-6855.166666666667,1956.588888888889,4515.122222222222,3
2024-06-15 13:59:37,-0.06108652428,-1.060462117,0.5473352671,2.49236393,6.564900875,6.215347767,-19.61797752808988,89.97752808988764,3.483146067415732,-7023.08988764045,2329.348314606741,4340.573033707865,3
2024-06-15 13:59:37,1.191187263,-0.531452775,-0.02687807009,-0.8307880163,16.83602715,17.42021179,-637.9545454545455,-270.8068181818182,-261.3863636363636,-7194.840909090909,2529.2613636363635,4544.636363636364,3
2024-06-15 13:59:37,1.191187263,-0.531452775,-0.02687807009,-0.8307880163,16.83602715,17.42021179,-1399.9887640449438,209.5842696629213,-1035.5955056179776,-7171.337078651685,1724.3258426966293,4614.337078651685,3
2024-06-15 13:59:37,-3.015230894,1.997529387,-3.222924948,-1.280897856,3.15795207,3.67988801,-823.2888888888889,-108.8,-518.2888888888889,-7219.644444444444,927.8222222222222,4557.155555555555,3
2024-06-15 13:59:38,0.08185594529,-1.96698606,2.422691584,0.3687070608,-1.946485996,2.444479942,-400.8085106382979,345.02127659574467,-65.8936170212766,-7224.382978723404,1063.787234042553,4494.978723404255,3
2024-06-15 13:59:38,0.08185594529,-1.96698606,2.422691584,0.3687070608,-1.946485996,2.444479942,-489.2558139534884,1351.7441860465117,2266.813953488372,-6901.6511627906975,1808.7674418604647,4308.209302325581,3
2024-06-15 13:59:38,0.9578366876,-0.7049384713,-0.2015855312,-1.649604917,14.53519821,23.54697418,-214.75,1822.159090909091,3074.068181818182,-7018.931818181818,2488.431818181818,4253.727272727273,3
2024-06-15 13:59:38,-3.208264351,2.240653753,-2.818532228,-1.340752959,2.97599268,5.195417881,501.1573033707865,1224.2696629213483,2089.966292134832,-7172.202247191011,2885.067415730337,3808.247191011236,3
2024-06-15 13:59:38,-3.208264351,2.240653753,-2.818532228,-1.340752959,2.97599268,5.195417881,850.7513812154696,611.6132596685082,923.0883977900552,-7173.867403314917,2783.0552486187844,3698.646408839779,3
2024-06-15 13:59:38,1.049466491,-0.8381071091,0.3176499307,0.9552865028,4.721365929,4.213795185,1040.254143646409,450.83977900552486,751.2651933701657,-7081.602209944751,2863.1657458563536,3685.939226519337,3
2024-06-15 13:59:38,1.049466491,-0.8381071091,0.3176499307,0.9552865028,4.721365929,4.213795185,1685.25,-49.41666666666666,1501.4642857142858,-6898.214285714285,3546.059523809524,3096.333333333333,3
2024-06-15 13:59:38,0.444709897,-2.398257017,0.7134906054,-0.7541735172,8.722076416,14.16409683,1571.3176470588237,-4.588235294117652,564.0470588235294,-6887.870588235294,4256.894117647059,2727.729411764706,3
2024-06-15 13:59:38,0.1734857261,1.535715222,-1.015258074,-0.6009446383,7.328651428,12.8544693,588.5,446.5,864.0,-7196.0,4860.0,2118.5,3
2024-06-15 13:59:38,0.1734857261,1.535715222,-1.015258074,-0.6009446383,7.328651428,12.8544693,303.5822784810126,404.1518987341772,574.2911392405064,-7097.886075949367,4902.367088607595,2085.0,3
2024-06-15 13:59:39,-3.499036074,0.9541715384,-0.3042109013,-1.417367458,-4.632780075,-0.2513911724,1667.7472527472528,-857.1538461538462,734.4725274725274,-6886.3626373626375,4082.274725274725,2280.197802197802,3
2024-06-15 13:59:39,-3.499036074,0.9541715384,-0.3042109013,-1.417367458,-4.632780075,-0.2513911724,1966.1073446327684,-820.5197740112994,1116.949152542373,-6661.966101694915,4623.870056497175,1952.627118644068,3
2024-06-15 13:59:39,0.7073819637,-2.232101679,0.9053022861,-3.634398222,3.203441858,12.17930412,2209.2903225806454,-853.0,935.967741935484,-6534.354838709677,5235.258064516129,1904.1935483870968,3
2024-06-15 13:59:39,-0.4520402849,1.055575132,-1.047023058,-1.721431017,2.063801765,10.25915432,1646.1818181818182,-844.3636363636364,927.9090909090908,-6392.909090909091,5442.272727272727,2259.181818181818,3
2024-06-15 13:59:39,-0.4520402849,1.055575132,-1.047023058,-1.721431017,2.063801765,10.25915432,-679.8139534883721,-704.2093023255813,527.0930232558139,-6187.418604651163,5767.744186046512,2443.953488372093,3
2024-06-15 13:59:39,-2.503325701,-0.17715092,0.3836233616,-3.919308186,-8.468291283,7.237671852,-614.8666666666667,-603.1666666666666,3.3000000000000007,-6114.566666666667,5289.233333333334,2853.5,3
2024-06-15 13:59:39,1.85092175,-0.7562511563,-0.1539380401,-1.381454349,7.223306656,17.12811852,501.44827586206895,-474.41379310344826,186.41379310344828,-5911.689655172414,5021.793103448276,2716.137931034483,3
2024-06-15 13:59:39,1.85092175,-0.7562511563,-0.1539380401,-1.381454349,7.223306656,17.12811852,1045.857142857143,-335.1208791208791,160.85714285714286,-6005.912087912088,5822.725274725275,2648.230769230769,3
2024-06-15 13:59:39,-2.885727406,1.61268425,-1.904677868,-3.222595453,-2.315192938,7.963114738,81.8735632183908,-449.54022988505744,-245.0804597701149,-5551.137931034483,5353.528735632184,3077.2183908045977,3
2024-06-15 13:59:39,-2.885727406,1.61268425,-1.904677868,-3.222595453,-2.315192938,7.963114738,-420.876404494382,144.22471910112358,-243.370786516854,-5561.2808988764045,5629.876404494382,2759.6629213483147,3
2024-06-15 13:59:40,3.545461893,-1.398881435,1.111774802,-1.158793569,0.5195417404,10.45787334,-929.9775280898876,532.3595505617977,-709.5393258426966,-5860.08988764045,5965.573033707865,2517.921348314607,3
2024-06-15 13:59:40,-3.698178291,0.7953465581,-1.573588848,-3.213018656,-5.477933407,7.184999466,-1553.3333333333333,645.8888888888889,-499.77777777777777,-6260.444444444444,5450.333333333333,2665.8888888888887,3
2024-06-15 13:59:40,-3.698178291,0.7953465581,-1.573588848,-3.213018656,-5.477933407,7.184999466,-763.2307692307693,289.53846153846155,-458.0769230769231,-6112.153846153846,4851.2307692307695,2727.3076923076924,3
2024-06-15 13:59:40,3.469714642,-0.7977899909,0.3921754956,-3.066972494,4.836287498,10.44350815,-186.41573033707863,215.4943820224719,-299.1348314606741,-6410.921348314607,5433.213483146067,2548.988764044944,3
2024-06-15 13:59:40,-3.872885704,1.103222609,-1.309695125,-2.8969841,-8.030152321,4.726154327,-522.1046511627907,183.02325581395348,-678.7209302325582,-6425.5058139534885,5409.6511627906975,2592.110465116279,3
2024-06-15 13:59:40,-3.872885704,1.103222609,-1.309695125,-2.8969841,-8.030152321,4.726154327,-716.2906976744187,-96.04651162790697,-827.5581395348837,-6430.738372093023,5495.697674418605,2741.529069767442,3
2024-06-15 13:59:40,3.611435413,-1.503950238,0.8991936445,-2.274491549,3.60566783,9.971850395,-1871.869565217392,428.39130434782606,-1209.695652173913,-6606.130434782609,3983.565217391305,3079.521739130435,3
2024-06-15 13:59:40,-6.076887608,1.054353356,-1.936442852,-1.122880578,-7.120356083,8.789113998,-1415.3181818181818,215.0909090909091,-1248.5,-6711.090909090909,3899.681818181818,3374.1363636363635,3
2024-06-15 13:59:40,5.218010902,-2.976135492,1.139874578,0.14844051,-4.187458992,8.820239067,-1046.6436781609195,447.5057471264368,-1904.2298850574712,-6869.022988505747,3690.770114942529,3520.712643678161,3
2024-06-15 13:59:41,5.218010902,-2.976135492,1.139874578,0.14844051,-4.187458992,8.820239067,-1551.6818181818182,380.1818181818182,-2834.840909090909,-7195.5,3319.75,3502.25,3
2024-06-15 13:59:41,1.227839112,0.8405506015,-1.390329242,0.9289502501,-5.073313236,9.789890289,-2337.304347826087,675.5869565217391,-2966.782608695652,-7327.021739130435,2796.108695652174,3560.1304347826085,3
2024-06-15 13:59:41,0.1527163088,-1.193630695,1.023810148,1.845929503,-4.812345505,5.54257679,-3913.6266666666666,1206.746666666667,-3041.5466666666666,-7519.573333333334,906.6133333333332,3016.133333333333,3
2024-06-15 13:59:41,0.1527163088,-1.193630695,1.023810148,1.845929503,-4.812345505,5.54257679,-2942.083032490975,1168.3285198555957,-3075.465703971119,-8097.375451263538,-50.95667870036101,2910.98916967509,3
2024-06-15 13:59:41,0.02809980139,0.9627236128,-1.084896684,0.8044517636,-1.922544003,9.986215591,-2187.3894736842103,687.578947368421,-3077.768421052632,-8244.357894736842,-451.0421052631579,2819.4,3
2024-06-15 13:59:41,0.08307767659,-0.9101892114,0.9285151958,2.394201756,-2.97599268,7.35977602,-2080.547368421053,463.89473684210526,-3137.242105263158,-8306.98947368421,-458.4105263157895,2839.4,3
2024-06-15 13:59:41,0.08307767659,-0.9101892114,0.9285151958,2.394201756,-2.97599268,7.35977602,-2368.067415730337,290.6966292134832,-1728.4831460674156,-7756.202247191011,-1072.9213483146068,3390.8426966292136,3
2024-06-15 13:59:41,0.9749409556,1.010371089,-1.6224581,1.429338455,-2.470816135,9.325415611,-2185.964285714286,978.6071428571428,-1563.0,-7970.571428571428,-1888.4642857142856,2503.5714285714284,3
2024-06-15 13:59:41,0.9749409556,1.010371089,-1.6224581,1.429338455,-2.470816135,9.325415611,-1170.0,603.7752808988764,-935.5280898876404,-7926.629213483146,-2262.887640449438,2212.7640449438204,3
2024-06-15 13:59:41,-4.339586735,-0.4752531648,0.3176499307,1.244984865,-7.704541206,4.49870491,-397.5116279069768,19.09302325581396,-1490.8023255813953,-7897.209302325581,-2922.1744186046512,2330.2093023255816,3
2024-06-15 13:59:42,1.753183246,0.8332201838,-1.059240341,-1.63763392,0.2011129409,15.7322998,75.85555555555555,-223.7,-765.911111111111,-8198.277777777777,-2561.1666666666665,2306.955555555556,3
2024-06-15 13:59:42,1.753183246,0.8332201838,-1.059240341,-1.63763392,0.2011129409,15.7322998,-578.6022727272727,-238.23295454545453,-274.9261363636364,-7696.801136363636,-2209.784090909091,2855.5852272727275,3
2024-06-15 13:59:42,0.3726277947,-0.1343903542,1.255938888,3.615244627,-10.87685871,2.212242365,-502.4659090909091,15.744318181818189,-299.35795454545456,-7708.732954545455,-2042.7386363636365,2900.471590909091,3
2024-06-15 13:59:42,0.3726277947,-0.1343903542,1.255938888,3.615244627,-10.87685871,2.212242365,-1323.25,225.38636363636363,-1016.215909090909,-7765.215909090909,-2265.204545454545,2821.7386363636365,3
2024-06-15 13:59:42,3.243694544,0.9944885969,0.4422664344,-1.594538331,4.589684486,9.205705643,-1274.891304347826,395.0217391304348,-997.8260869565216,-7769.391304347826,-2973.282608695652,2272.782608695652,3
2024-06-15 13:59:42,-2.781880379,-0.01588249579,0.2394591719,-1.331176162,-8.396465302,5.015852451,-205.44827586206893,545.3448275862069,-1827.3563218390805,-7411.390804597701,-3746.379310344827,1596.1954022988505,3
2024-06-15 13:59:42,-2.781880379,-0.01588249579,0.2394591719,-1.331176162,-8.396465302,5.015852451,40.586956521739125,-87.56521739130434,-812.4565217391305,-7571.228260869565,-3759.434782608696,1618.8478260869565,3
2024-06-15 13:59:42,3.032335043,-0.3445279896,-0.25167647,-3.531447411,4.410119534,22.29001808,1316.070588235294,-195.3058823529412,-317.56470588235294,-7087.976470588235,-3556.976470588236,2034.8235294117649,3
2024-06-15 13:59:42,-3.374419689,2.223549604,-2.133141518,-0.6392518282,-1.278503656,8.904036522,751.7777777777778,1059.7777777777778,181.22222222222223,-7387.777777777777,-3002.777777777778,2120.4444444444443,3
2024-06-15 13:59:42,-3.374419689,2.223549604,-2.133141518,-0.6392518282,-1.278503656,8.904036522,263.19101123595505,761.7303370786517,384.07865168539325,-7697.280898876404,-2996.5730337078653,2167.314606741573,3
2024-06-15 13:59:43,2.427578449,-0.873537302,0.8283332586,1.640028119,-4.750096321,3.349488258,-241.7142857142857,917.8791208791208,-48.65934065934067,-7532.912087912088,-2839.747252747253,2484.120879120879,3
2024-06-15 13:59:43,2.427578449,-0.873537302,0.8283332586,1.640028119,-4.750096321,3.349488258,-1574.193181818182,1348.6818181818182,-1280.9545454545455,-7471.090909090909,-3108.693181818182,1691.556818181818,3
2024-06-15 13:59:43,4.271169662,-1.288925648,0.6829473376,-4.273650169,9.583989143,21.40416336,-2132.469879518072,1074.44578313253,-1887.4096385542168,-7331.325301204819,-4163.0722891566265,1035.5060240963855,3
2024-06-15 13:59:43,-2.514321327,1.809382915,-2.084272146,-2.834734917,0.1053448766,9.148244858,1292.2857142857142,-246.57142857142856,431.8571428571428,-7071.714285714285,-4079.571428571429,1008.4285714285714,3
2024-06-15 13:59:43,-3.98039794,1.650557876,-0.5265658498,1.513135433,-11.02769279,-6.890512466,1328.7777777777778,527.0,1115.888888888889,-7186.222222222223,-3559.222222222222,1128.6666666666667,3
2024-06-15 13:59:43,4.607145786,-4.081801414,3.255911827,-2.398990154,0.5363011956,8.082824707,421.9302325581396,558.5813953488372,445.6162790697674,-7459.755813953488,-3432.651162790697,1082.5581395348838,3
2024-06-15 13:59:43,4.607145786,-4.081801414,3.255911827,-2.398990154,0.5363011956,8.082824707,-422.3666666666667,682.3666666666667,20.03333333333333,-7335.4,-3253.233333333333,1250.9333333333334,3
2024-06-15 13:59:43,0.3652974069,0.7342600226,-0.5681046844,-1.055842996,1.036689281,11.33175659,-1657.8689655172411,697.1310344827587,-315.02758620689656,-7713.462068965518,-3272.593103448276,1115.5655172413792,3
2024-06-15 13:59:43,0.3652974069,0.7342600226,-0.5681046844,-1.055842996,1.036689281,11.33175659,-2235.833333333333,1133.0333333333333,-276.1333333333333,-7474.6,-3307.6,214.0,3
2024-06-15 13:59:44,-3.803246975,2.717128515,-2.34450078,-3.220201254,-5.030217648,2.841917515,-2075.0,1339.2222222222222,-625.4444444444445,-7436.444444444444,-4409.888888888889,-524.2222222222222,3
2024-06-15 13:59:44,0.04642575979,-1.952325344,2.753780603,-0.9744400978,-11.88481712,0.01197100803,688.528735632184,64.12643678160919,129.17241379310343,-7539.9655172413795,-4325.816091954023,-536.1264367816092,3
2024-06-15 13:59:44,0.04642575979,-1.952325344,2.753780603,-0.9744400978,-11.88481712,0.01197100803,990.3908045977012,-180.5862068965517,779.471264367816,-7170.080459770115,-4129.298850574713,-157.79310344827587,3
2024-06-15 13:59:44,2.408030748,-1.646892667,2.182010651,-2.272097349,14.07311726,16.47210693,766.3636363636364,-311.09090909090907,164.0,-7416.454545454545,-3264.454545454545,546.5454545454545,3
2024-06-15 13:59:44,-1.290147424,1.71530962,-1.938886285,-2.774879694,6.303933144,10.40041256,-168.31460674157302,-270.53932584269666,-439.5955056179776,-7431.337078651685,-3429.674157303371,499.07865168539325,3
2024-06-15 13:59:44,-1.290147424,1.71530962,-1.938886285,-2.774879694,6.303933144,10.40041256,-2049.94382022472,-276.97752808988764,-506.14606741573033,-7502.449438202248,-3411.224719101124,226.0224719101124,3
2024-06-15 13:59:44,-3.061656713,1.00670588,-1.233947754,-2.595314741,-9.878476143,0.03112462163,-1756.6703296703297,87.8131868131868,-541.0769230769231,-7019.120879120879,-4505.626373626374,-298.7912087912088,3
2024-06-15 13:59:44,3.61265707,-3.343876362,2.757445812,-1.18752408,8.104372978,10.46266174,-29.31034482758622,603.7931034482758,-817.4827586206897,-7056.96551724138,-4628.379310344828,-517.1034482758621,3
2024-06-15 13:59:44,3.61265707,-3.343876362,2.757445812,-1.18752408,8.104372978,10.46266174,899.8636363636364,309.02272727272725,-1167.7272727272727,-7191.613636363636,-4351.863636363636,-476.4772727272728,3
2024-06-15 13:59:44,-2.058615923,0.8038986921,-3.491705656,-2.410961151,7.189787865,9.504981041,755.8314606741574,-511.8988764044944,-753.438202247191,-7689.471910112359,-4020.786516853933,-32.93258426966292,3
2024-06-15 13:59:45,-2.058615923,0.8038986921,-3.491705656,-2.410961151,7.189787865,9.504981041,-111.65517241379312,-1321.6091954022988,-1059.1379310344828,-7258.287356321839,-4152.724137931034,180.8735632183908,3
2024-06-15 13:59:45,3.541796684,-1.051909924,0.813672483,-5.853823185,5.38934803,11.9757967,-828.9659090909091,-166.02272727272728,-1233.5,-6605.295454545455,-5431.204545454545,-499.54545454545456,3
2024-06-15 13:59:45,3.541796684,-1.051909924,0.813672483,-5.853823185,5.38934803,11.9757967,209.30851063829783,-953.7553191489362,-1329.6170212765958,-6804.063829787234,-5270.893617021276,-446.968085106383,3
2024-06-15 13:59:45,-0.9138544202,-0.3579670191,-0.1343903542,-1.991975784,-5.734113216,5.959167957,1232.7692307692307,-1431.13986013986,-38.83216783216783,-6822.153846153846,-5127.622377622378,24.0979020979021,3
2024-06-15 13:59:45,-0.9138544202,-0.3579670191,-0.1343903542,-1.991975784,-5.734113216,5.959167957,1494.3076923076924,-1515.055944055944,161.86713286713288,-6814.461538461538,-4901.048951048952,282.83916083916085,3
2024-06-15 13:59:45,0.5143485069,0.2541199327,0.07819075137,-6.358999729,-3.320757866,11.97340298,31.36781609195401,-2347.3563218390805,763.1954022988506,-6629.528735632184,-4355.563218390805,1297.9195402298851,3
2024-06-15 13:59:45,-0.3872885704,0.634078145,0.09651670605,-1.67115283,-1.352723956,6.019022942,-450.0561797752809,-1740.7640449438202,620.5280898876405,-6972.3707865168535,-4702.76404494382,1725.629213483146,3
2024-06-15 13:59:45,-0.3872885704,0.634078145,0.09651670605,-1.67115283,-1.352723956,6.019022942,-570.4545454545455,-1204.2386363636365,570.4431818181819,-6711.715909090909,-4700.318181818182,2012.0795454545453,3
2024-06-15 13:59:45,3.154508114,-0.6572909951,0.2296853364,-6.921637058,1.52510643,10.47702694,114.5,-1375.125,24.25,-6573.0,-4560.875,1974.25,3
2024-06-15 13:59:46,-0.7892379165,0.1918116808,-0.03787364438,-3.983951569,2.30801034,6.72531271,-83.1086956521739,-1228.8260869565215,461.4565217391304,-6445.869565217391,-4132.260869565217,3229.6739130434785,3
2024-06-15 13:59:46,0.4239404798,-0.4276056588,0.1820378453,-3.493140221,0.05027823523,8.911218643,45.34090909090909,-1333.0,-155.29545454545453,-6937.272727272727,-3867.818181818182,3681.090909090909,3
2024-06-15 13:59:46,-0.09529497474,0.1869247705,0.1685988009,-2.387019157,-1.180341482,11.24556541,-71.0909090909091,-1415.3181818181818,673.5909090909091,-7079.272727272727,-4056.636363636364,4099.409090909091,3
2024-06-15 13:59:46,-0.09529497474,0.1869247705,0.1685988009,-2.387019157,-1.180341482,11.24556541,-198.63636363636363,86.48863636363637,394.1363636363636,-6513.579545454545,-3859.8295454545455,3334.6477272727275,3
2024-06-15 13:59:46,0.5729916096,-0.4508185387,0.444709897,-0.4453215301,11.72679996,7.69257021,-135.2197802197802,336.1868131868132,-325.0769230769231,-6742.868131868132,-4126.186813186813,3367.901098901099,3
2024-06-15 13:59:46,0.5729916096,-0.4508185387,0.444709897,-0.4453215301,11.72679996,7.69257021,571.046511627907,54.58139534883721,-820.3023255813954,-6944.116279069767,-4048.302325581396,3008.813953488372,3
2024-06-15 13:59:46,0.04764748737,-0.1527163088,-0.9285151958,-4.12999773,-0.8403648138,10.38604736,724.9368421052632,47.96842105263158,-609.1052631578948,-6842.894736842105,-4056.094736842105,3288.6,3
2024-06-15 13:59:46,-0.007330383174,0.2919935882,0.6218608022,-3.394978046,6.347028732,5.523423195,947.157894736842,-1318.1052631578946,1033.3157894736842,-6598.684210526316,-3903.684210526316,3761.157894736842,3
2024-06-15 13:59:46,-0.007330383174,0.2919935882,0.6218608022,-3.394978046,6.347028732,5.523423195,257.8888888888889,-1299.111111111111,305.6666666666667,-6361.666666666667,-3494.333333333333,4230.666666666667,3
2024-06-15 13:59:47,-0.4349360466,-0.06108652428,-0.5510004759,-3.900154591,0.1628057212,10.7188406,96.21978021978022,-440.0769230769231,-183.72527472527472,-6749.274725274725,-3905.4945054945056,4205.153846153846,3
2024-06-15 13:59:47,0.08674286306,-0.009773843922,0.5485569835,-1.78128612,7.900865555,7.61356163,243.4470588235294,-178.08235294117648,-336.5058823529412,-6674.505882352942,-3948.564705882353,4176.705882352941,3
2024-06-15 13:59:47,0.08674286306,-0.009773843922,0.5485569835,-1.78128612,7.900865555,7.61356163,876.5280898876405,165.29213483146066,-303.0224719101124,-6583.179775280899,-3938.85393258427,4166.3258426966295,3
2024-06-15 13:59:47,-0.3726277947,0.05742133409,-0.5143485069,-5.049371243,-3.19625926,10.14183807,1894.896551724138,566.551724137931,-456.5517241379311,-6351.310344827586,-3475.551724137931,4348.137931034483,3
2024-06-15 13:59:47,-0.3726277947,0.05742133409,-0.5143485069,-5.049371243,-3.19625926,10.14183807,2531.953488372093,669.7674418604652,-306.7906976744186,-6690.674418604651,-3410.93023255814,4329.069767441861,3
2024-06-15 13:59:47,-0.04031710699,0.1148426682,0.3445279896,-1.690306425,6.708553314,6.708553314,2083.2183908045977,136.82758620689657,-109.19540229885058,-6575.770114942528,-3340.333333333333,4872.367816091954,3
2024-06-15 13:59:47,-0.6866125464,-0.03787364438,-0.4667010605,-5.066130638,-3.126827478,10.14902115,1940.6818181818185,-311.72727272727275,-199.8636363636364,-6424.5,-3120.3636363636365,5072.227272727273,3
2024-06-15 13:59:47,-0.6866125464,-0.03787364438,-0.4667010605,-5.066130638,-3.126827478,10.14902115,1795.5168539325844,-25.17977528089888,-166.80898876404495,-6393.640449438202,-2650.8988764044943,5202.685393258427,3
2024-06-15 13:59:47,-2.384817839,0.1698205322,0.5045747161,-2.978386879,-1.304839969,5.310339451,1077.8333333333333,367.0,74.53333333333336,-6571.533333333334,-2581.733333333333,4805.766666666666,3
2024-06-15 13:59:47,-2.384817839,0.1698205322,0.5045747161,-2.978386879,-1.304839969,5.310339451,736.0883977900553,345.69060773480663,299.65193370165747,-6675.994475138122,-2657.1657458563536,5012.546961325967,3
2024-06-15 13:59:48,-0.1270599663,-0.8161159754,-0.1710422635,-2.511517525,0.03112462163,12.67011547,959.292817679558,364.4751381215469,195.7845303867404,-6687.044198895028,-2625.6740331491715,5018.624309392265,3
2024-06-15 13:59:48,0.3762930036,1.207069755,-0.864985168,-4.637568474,-5.300762653,10.56082344,102.873417721519,1561.5949367088608,752.8354430379746,-6926.0759493670885,-1668.2784810126582,4817.151898734177,3
2024-06-15 13:59:48,0.3762930036,1.207069755,-0.864985168,-4.637568474,-5.300762653,10.56082344,-681.4157303370787,1453.067415730337,1276.4044943820224,-6985.70786516854,-1754.6966292134832,4844.977528089888,3
2024-06-15 13:59:48,-0.08185594529,-0.2602286041,0.5534439087,-0.9265560508,-4.520252705,2.925714493,-1421.6363636363635,875.1818181818182,1823.5454545454545,-7481.272727272727,-1786.4545454545455,4619.545454545455,3
2024-06-15 13:59:48,5.233893394,-2.058615923,2.101376534,-2.059013367,16.52478027,16.6061821,-1569.7391304347825,662.6521739130435,1881.1739130434785,-7517.695652173913,-1834.695652173913,4682.391304347826,3
2024-06-15 13:59:48,5.233893394,-2.058615923,2.101376534,-2.059013367,16.52478027,16.6061821,-1522.505617977528,606.3033707865169,835.7640449438202,-7380.112359550561,-1612.808988764045,4030.6067415730336,3
2024-06-15 13:59:48,-3.911981106,1.703092337,-3.021339417,-2.461239338,-0.1723825186,6.828263283,-1300.7142857142858,737.2857142857143,485.57142857142856,-7855.142857142857,-1521.428571428571,3590.0,3
2024-06-15 13:59:48,1.72508347,-0.6707300544,0.5302310586,0.1771709323,-4.520252705,1.060631394,274.7340425531915,-222.3404255319149,-310.031914893617,-7382.276595744681,-1507.1914893617022,3516.617021276596,3
2024-06-15 13:59:48,4.505742073,-2.739119768,2.1258111,-1.314416766,9.346963882,13.85285091,-600.0705882352942,-49.38823529411765,227.0235294117647,-7599.2,-1386.8823529411766,3756.211764705882,3
2024-06-15 13:59:49,4.505742073,-2.739119768,2.1258111,-1.314416766,9.346963882,13.85285091,-747.2045454545455,-289.6590909090909,345.8863636363636,-7632.545454545455,-1366.5,3961.75,3
2024-06-15 13:59:49,-2.882062197,1.661553502,-2.514321327,-2.983175278,4.230554581,11.35091019,-1812.9431818181813,-167.47727272727272,649.8181818181818,-7520.25,-1625.8068181818182,3985.647727272728,3
2024-06-15 13:59:49,-6.307794571,2.500882387,-1.846034765,0.04788403213,-9.749189377,-4.584896088,-1524.7142857142858,-33.78021978021978,519.5054945054945,-7755.56043956044,-1502.5934065934066,3834.428571428572,3
