Timestamp,Gyro_x_x,Gyro_y_x,Gyro_z_x,Acc_x_x,Acc_y_x,Acc_z_x,Gyro_x_y,Gyro_y_y,Gyro_z_y,Acc_x_y,Acc_y_y,Acc_z_y,combined_action_num
2024-06-14 18:09:14,-5.280319214,-0.342084527,0.1698205322,-1.249773264,-5.130774021,7.304709435,-290.06666666666666,8.177777777777777,-284.93333333333334,-7565.955555555555,3464.133333333333,872.3555555555556,11
2024-06-14 18:09:14,-6.304129124,-0.7098253965,0.01832595654,-1.680729628,-9.907206535,-2.255337954,-26.775280898876403,-339.9550561797753,28.573033707865168,-7777.808988764045,3325.584269662921,1021.9550561797752,11
2024-06-14 18:09:14,0.5192354321,-0.5400048494,-0.109955743,-1.800439715,-9.459490776,-4.338293552,-63.77777777777778,-128.0,112.22222222222224,-7727.333333333333,3232.6666666666665,952.3333333333334,11
2024-06-14 18:09:14,0.5192354321,-0.5400048494,-0.109955743,-1.800439715,-9.459490776,-4.338293552,66.9655172413793,-82.62068965517241,102.9655172413793,-7746.551724137931,3264.758620689656,922.7241379310344,11
2024-06-14 18:09:14,0.1734857261,-0.5363397002,-0.4007275999,-1.089361787,-10.03888798,-2.298433542,80.84615384615384,-117.6153846153846,113.53846153846152,-7788.461538461538,3271.3076923076924,1144.076923076923,11
2024-06-14 18:09:14,0.1734857261,-0.5363397002,-0.4007275999,-1.089361787,-10.03888798,-2.298433542,-102.09302325581396,51.25581395348837,-125.51162790697674,-7771.860465116279,3585.93023255814,1139.2093023255811,11
2024-06-14 18:09:14,0.6035348773,0.2467895597,-0.1331686229,-1.230619669,-8.049305916,-1.613691926,-88.57142857142857,94.3846153846154,-93.82417582417582,-7719.505494505494,3274.076923076923,967.065934065934,11
2024-06-14 18:09:14,0.6035348773,0.2467895597,-0.1331686229,-1.230619669,-8.049305916,-1.613691926,-92.55172413793105,-22.01149425287356,-91.98850574712644,-7796.057471264367,3608.0,930.3218390804598,11
2024-06-14 18:09:15,0.2223549485,0.0720821023,0.3005456924,-1.00556469,-9.854534149,-1.989581585,21.662337662337663,-29.883116883116884,-71.28571428571428,-7793.701298701299,3536.7272727272725,913.7402597402596,11
2024-06-14 18:09:15,0.2223549485,0.0720821023,0.3005456924,-1.580173135,-9.531316757,-1.685518026,26.857142857142858,79.85714285714286,71.57142857142858,-7752.142857142857,3314.0,925.4285714285714,11
2024-06-14 18:09:15,0.4667010605,-0.07819075137,-0.1844813079,-1.580173135,-9.531316757,-1.685518026,104.46511627906978,42.04651162790698,85.40697674418604,-7745.744186046511,3590.453488372093,926.9767441860464,11
2024-06-14 18:09:15,0.196698606,0.1026253626,-0.009773843922,-1.007958889,-9.531316757,-0.8714894056,-24.666666666666657,9.0,116.33333333333331,-7725.333333333333,3602.0,985.0,11
2024-06-14 18:09:15,0.196698606,0.1026253626,-0.009773843922,-1.007958889,-9.531316757,-0.8714894056,64.38636363636363,66.02272727272728,76.5,-7695.215909090909,3608.965909090909,983.9772727272727,11
2024-06-14 18:09:15,-0.1111774743,0.1514945775,0.1026253626,-1.084573388,-9.311050415,-0.7350199223,65.0,108.88888888888889,77.55555555555556,-7722.888888888889,3604.8888888888887,993.7777777777778,11
2024-06-14 18:09:15,0.1087340117,-0.01466076635,-0.02687807009,-1.012747288,-9.758766174,-0.8451532125,-280.4111111111111,-73.14444444444445,35.388888888888886,-7718.077777777778,3611.1222222222223,968.4111111111112,11
2024-06-14 18:09:15,0.283441484,0.05253441259,0.01832595654,-0.8834604025,-10.21605873,-0.586579442,-203.9,-67.0,25.4,-7738.366666666667,3606.1666666666665,951.4,11
2024-06-14 18:09:15,0.283441484,0.05253441259,0.01832595654,-0.7709329724,-10.04367638,-0.3112462163,-78.0,-34.29213483146067,25.48314606741573,-7756.4157303370785,3313.179775280899,936.9550561797752,11
2024-06-14 18:09:16,-0.0232128799,0.01343903504,-0.0171042271,-0.9576807022,-9.986215591,-0.6560112834,47.86516853932584,111.0,32.764044943820224,-7748.528089887641,3265.123595505618,964.7303370786516,11
2024-06-14 18:09:16,-0.0232128799,0.01343903504,-0.0171042271,-0.9576807022,-9.986215591,-0.6560112834,71.0,-122.45454545454544,61.71590909090909,-7755.318181818182,3292.318181818182,964.3863636363636,11
2024-06-14 18:09:16,0.04886921868,-0.05986479297,-0.05375614017,-0.806845963,-10.06282997,-0.4165911078,68.26666666666667,103.08333333333331,71.63333333333334,-7744.9,3314.4222222222224,968.0,11
2024-06-14 18:09:16,-0.04398229718,-0.006108652335,0.01466076635,-0.6129156351,-10.55842972,-0.6799532771,61.48913043478261,94.4891304347826,68.58695652173913,-7734.978260869565,3312.0978260869565,968.195652173913,11
2024-06-14 18:09:16,-0.04398229718,-0.006108652335,0.01466076635,-0.6129156351,-10.55842972,-0.6799532771,40.07142857142857,-105.14285714285714,49.97619047619048,-7747.047619047619,3279.2619047619046,982.0238095238096,11
2024-06-14 18:09:16,0.3298672438,-0.1148426682,-0.04520402849,-0.9720458984,-9.859322548,0.1388636976,51.08917197452229,-103.85350318471338,37.76433121019108,-7751.675159235669,3270.6178343949045,962.968152866242,11
2024-06-14 18:09:16,0.3298672438,-0.1148426682,-0.04520402849,-0.787692368,-9.813833237,0.6991068721,49.86363636363637,-66.86363636363637,50.86363636363637,-7766.818181818182,3263.954545454545,950.5,11
2024-06-14 18:09:16,-0.03665191308,-0.05253441259,0.03420845419,-0.787692368,-9.813833237,0.6991068721,42.66666666666666,106.66666666666669,47.66666666666666,-7740.333333333333,3273.6666666666665,941.6666666666666,11
2024-06-14 18:09:16,-0.8185594082,-0.004886921961,-0.1075122803,-1.742978811,-9.3685112,-1.460463047,54.48275862068965,103.6896551724138,42.10344827586207,-7771.310344827586,3260.5172413793102,968.5172413793103,11
2024-06-14 18:09:17,-0.8185594082,-0.004886921961,-0.1075122803,-1.742978811,-9.3685112,-1.460463047,38.285714285714285,-33.0,36.42857142857143,-7758.857142857143,3255.5714285714284,975.0,11
2024-06-14 18:09:17,0.125838235,-0.04398229718,-0.0354301855,-0.7493851185,-10.42195988,0.04309562966,37.36363636363636,40.09090909090909,58.63636363636364,-7761.818181818182,3228.5454545454545,975.181818181818,11
2024-06-14 18:09:17,0.3103195429,-0.1136209369,-0.0415388383,-0.7158663273,-9.892841339,0.3519476354,57.42696629213483,-63.51685393258427,69.7752808988764,-7764.202247191011,3235.775280898876,987.2247191011236,11
2024-06-14 18:09:17,0.3103195429,-0.1136209369,-0.0415388383,-0.7158663273,-9.892841339,0.3519476354,79.81818181818181,-105.52272727272728,85.25,-7776.772727272727,3269.8636363636365,958.681818181818,11
2024-06-14 18:09:17,-0.08307767659,-0.02443460934,0.0293215327,-0.5099649429,-10.07480049,0.7685387731,36.30851063829788,113.08510638297872,32.287234042553195,-7760.191489361702,3225.968085106383,973.0212765957448,11
2024-06-14 18:09:17,0.007330383174,0.0109955743,0.008552113548,-0.55784899,-10.13226128,0.5051765442,80.94117647058823,105.88235294117646,81.47058823529412,-7773.470588235294,3236.529411764706,971.6470588235294,11
2024-06-14 18:09:17,0.007330383174,0.0109955743,0.008552113548,-0.55784899,-10.13226128,0.5051765442,60.7816091954023,-120.22988505747126,85.55172413793103,-7773.275862068966,3246.8390804597702,964.16091954023,11
2024-06-14 18:09:17,-0.7489207983,0.01221730467,0.0293215327,-0.6368576288,-9.737217903,0.5410895944,48.31818181818182,104.3409090909091,64.6590909090909,-7761.931818181818,3245.340909090909,980.9772727272727,11
2024-06-14 18:09:17,-0.7489207983,0.01221730467,0.0293215327,-0.6368576288,-9.737217903,0.5410895944,38.18181818181818,-102.35227272727272,69.98863636363636,-7771.181818181818,3236.340909090909,985.7954545454544,11
2024-06-14 18:09:17,0.4398229718,0.1368338168,0.08307767659,-1.082179189,-9.612719536,-1.762132406,44.4186046511628,-87.11627906976744,72.65116279069767,-7787.069767441861,3238.488372093024,973.3023255813954,11
2024-06-14 18:09:18,0.5986479521,-0.09773843735,-0.05986479297,-0.8212111592,-10.53927612,0.09337386489,78.77272727272727,54.03409090909091,81.75,-7779.977272727273,3258.3863636363635,948.4545454545456,11
2024-06-14 18:09:18,0.5986479521,-0.09773843735,-0.05986479297,-0.8212111592,-10.53927612,0.09337386489,40.91011235955057,124.07865168539324,62.853932584269664,-7767.29213483146,3245.3370786516853,961.7977528089888,11
2024-06-14 18:09:18,0.6047565937,0.05253441259,0.1026253626,-0.825999558,-10.86249352,1.161187768,48.51685393258427,-92.17977528089888,59.82022471910112,-7730.629213483146,3239.921348314607,951.505617977528,11
2024-06-14 18:09:18,-0.5839871764,0.0293215327,0.1148426682,-0.4333505034,-10.20648193,2.070984364,32.82352941176471,-39.11764705882353,64.58823529411765,-7756.882352941177,3266.8823529411766,940.1176470588236,11
2024-06-14 18:09:18,-0.5839871764,0.0293215327,0.1148426682,-0.4333505034,-10.20648193,2.070984364,54.5,63.75,23.5,-7740.25,3217.25,949.0,11
2024-06-14 18:09:18,-0.6609562039,0.161268428,0.1563815027,-0.8834604025,-10.15859795,-0.2250549644,-60.689655172413794,10.137931034482758,59.41379310344828,-7792.517241379311,3385.4137931034484,987.551724137931,11
2024-06-14 18:09:18,-0.6609562039,0.161268428,0.1563815027,-0.8834604025,-10.15859795,-0.2250549644,-30.933333333333334,-98.26666666666668,100.8,-7791.611111111111,3245.633333333333,992.6777777777778,11
2024-06-14 18:09:18,-0.1307251602,0.2504547536,0.1282816976,-1.422155857,-10.00297451,-0.7685387731,87.13483146067416,-139.41573033707866,33.30337078651685,-7758.471910112359,3261.1573033707864,1295.112359550562,11
2024-06-14 18:09:18,-0.0720821023,0.2040289938,0.05375614017,-1.388636947,-9.806650162,-0.6224924326,-317.8068181818182,-77.47727272727272,27.102272727272727,-7736.920454545455,3356.8863636363635,1281.1136363636365,11
2024-06-14 18:09:18,-0.0720821023,0.2040289938,0.05375614017,-1.388636947,-9.806650162,-0.6224924326,-25.03333333333336,-31.7,7.733333333333334,-7645.655555555555,3318.1,1070.5333333333333,11
2024-06-14 18:09:19,0.05497787148,-0.01221730467,0.04886921868,-1.218648672,-9.787496567,-0.9911994934,48.38461538461539,63.69230769230769,47.53846153846154,-7752.538461538462,3251.846153846154,993.1538461538462,11
2024-06-14 18:09:19,0.00244346098,-0.06841690838,0.006108652335,-1.292868972,-9.998186111,-0.6847416759,-16.05747126436779,122.40229885057472,-292.3908045977012,-7447.3218390804595,3385.862068965517,1007.1149425287356,11
2024-06-14 18:09:19,0.00244346098,-0.06841690838,0.006108652335,-1.292868972,-9.998186111,-0.6847416759,80.88,-80.44,74.64,-7766.217142857143,3329.9714285714285,1014.4571428571428,11
2024-06-14 18:09:19,-0.01954768784,0.06230825558,-0.02076941915,-1.328781962,-9.9526968,-0.6129156351,-289.7710843373494,-74.59036144578313,-315.8313253012048,-7796.927710843373,3360.265060240964,985.2168674698796,11
2024-06-14 18:09:19,-0.01954768784,0.06230825558,-0.02076941915,-1.328781962,-9.9526968,-0.6129156351,88.25,106.93478260869566,84.71739130434783,-7773.45652173913,3048.717391304348,1315.3369565217392,11
2024-06-14 18:09:19,-0.04764748737,-0.03176499158,-0.04031710699,-1.41257906,-9.864110947,-0.720654726,226.3012048192771,168.33734939759037,-191.49397590361448,-7752.759036144578,3335.7951807228915,1026.8192771084337,11
2024-06-14 18:09:19,-0.00244346098,0.02565634064,0.01221730467,-1.388636947,-9.9526968,-0.6224924326,-114.8181818181818,550.3636363636364,-88.36363636363636,-7647.636363636364,3235.0,1033.090909090909,11
2024-06-14 18:09:19,-0.00244346098,0.02565634064,0.01221730467,-1.388636947,-9.9526968,-0.6224924326,-342.97752808988764,111.03370786516854,-28.033707865168537,-7661.247191011236,3225.7078651685392,1036.4494382022472,11
2024-06-14 18:09:19,0.03420845419,-0.08185594529,-0.03176499158,-1.084573388,-9.907206535,-0.7996633649,-141.54945054945054,-75.43956043956044,-21.824175824175825,-7662.208791208791,3207.3736263736264,837.4945054945055,11
2024-06-14 18:09:19,0.03420845419,-0.08185594529,-0.03176499158,-1.158793569,-9.938331604,-0.517147541,-106.44516129032256,-17.780645161290323,-91.66451612903226,-7595.251612903226,3271.238709677419,735.5612903225806,11
2024-06-14 18:09:20,0.09162978828,0.02565634064,-0.006108652335,-1.158793569,-9.938331604,-0.517147541,21.0,-90.0,10.0,-7618.0,3512.0,736.0,11
2024-06-14 18:09:20,0.05864306539,-0.02076941915,-0.03176499158,-1.084573388,-9.792284966,-0.5339069963,-225.88172043010752,65.53763440860214,-142.3548387096774,-7713.247311827957,3320.494623655914,1025.516129032258,11
2024-06-14 18:09:20,0.05864306539,-0.02076941915,-0.03176499158,-1.084573388,-9.792284966,-0.5339069963,102.72727272727272,-103.27272727272728,321.45454545454544,-7780.727272727273,3059.7272727272725,754.7272727272727,11
2024-06-14 18:09:20,-0.05131268129,-0.003665191587,-0.07086037099,-1.132457376,-9.892841339,-0.4165911078,-7.931034482758621,-125.65517241379312,343.4712643678161,-7612.942528735633,3363.551724137931,733.8390804597701,11
2024-06-14 18:09:20,0.03176499158,0.008552113548,0.0171042271,-0.8236053586,-9.976638794,-0.3040636182,-16.333333333333336,-226.66666666666663,107.66666666666669,-7596.666666666667,3308.6666666666665,1094.0,11
2024-06-14 18:09:20,0.03176499158,0.008552113548,0.0171042271,-0.8236053586,-9.976638794,-0.3040636182,-20.397727272727263,-209.375,57.76136363636364,-7410.125,3298.2727272727275,1145.0,11
2024-06-14 18:09:20,-0.07819075137,0.04886921868,0.1026253626,-1.455674648,-9.540893555,-0.5434837937,59.88636363636364,-94.7840909090909,-17.136363636363626,-7751.488636363636,3274.056818181818,1086.7272727272727,11
2024-06-14 18:09:20,-0.03909537569,0.03176499158,-0.04276056588,-1.177947283,-10.21605873,-0.457292527,278.8965517241379,-235.3793103448276,-50.72413793103448,-7653.793103448276,3637.793103448276,965.2758620689656,11
2024-06-14 18:09:20,-0.03909537569,0.03176499158,-0.04276056588,-1.177947283,-10.21605873,-0.457292527,132.80645161290323,-546.483870967742,27.516129032258064,-7504.935483870968,3628.6451612903215,1224.9032258064517,11
2024-06-14 18:09:20,0.00122173049,-0.01466076635,-0.01221730467,-1.201889277,-10.00058079,-0.3806780577,-287.48837209302326,36.83720930232556,93.34883720930232,-7386.790697674419,3205.116279069768,1330.7441860465117,11
2024-06-14 18:09:21,0.0171042271,-0.00244346098,0.01343903504,-1.067813993,-9.933543205,-0.2729389966,-189.3956043956044,323.2857142857143,95.0,-7761.241758241758,3563.56043956044,1072.010989010989,11
2024-06-14 18:09:21,0.03665191308,0.003665191587,0.01832595654,-1.26413846,-9.818621635,-0.4261679053,47.04597701149425,47.97701149425287,-24.41379310344827,-7779.448275862069,3293.1264367816093,1087.2413793103449,11
2024-06-14 18:09:21,0.03665191308,0.003665191587,0.01832595654,-1.26413846,-9.818621635,-0.4261679053,110.73033707865169,19.04494382022472,-186.28089887640448,-7729.516853932584,3274.044943820225,933.752808988764,11
2024-06-14 18:09:21,-0.03420845419,0.0109955743,0.01832595654,-1.221042871,-9.945513725,-0.1221042871,64.54444444444445,-9.155555555555551,88.04444444444445,-7713.0,3293.188888888889,959.1777777777778,11
2024-06-14 18:09:21,0.0293215327,0.06108652428,-0.03176499158,-1.278503656,-9.943120003,-0.2250549644,57.66233766233766,-24.428571428571427,23.233766233766232,-7740.727272727273,3293.493506493506,917.8311688311688,11
2024-06-14 18:09:21,0.0293215327,0.06108652428,-0.03176499158,-1.278503656,-9.943120003,-0.2250549644,82.98701298701299,-17.285714285714285,5.7012987012987,-7786.181818181818,3306.4805194805194,905.4935064935064,11
2024-06-14 18:09:21,-0.03176499158,0.008552113548,0.03787364438,-1.252167463,-9.830592155,-0.1604115069,1.404494382022472,-119.97752808988764,37.0,-7747.820224719101,3281.629213483146,948.561797752809,11
2024-06-14 18:09:21,-0.03176499158,0.008552113548,0.03787364438,-1.252167463,-9.830592155,-0.1604115069,31.7,-86.9,46.0,-7731.9,3232.9,911.4,11
2024-06-14 18:09:21,-0.04398229718,0.03665191308,-0.01832595654,-1.230619669,-9.955090523,-0.06224924326,116.55555555555556,-24.377777777777776,86.3,-7758.7555555555555,3287.322222222222,1105.0111111111112,11
2024-06-14 18:09:22,-0.008552113548,0.008552113548,0.01466076635,-1.242590666,-9.935936928,-0.2418143749,32.87356321839081,111.40229885057472,110.85057471264368,-7587.068965517241,3315.367816091954,1110.425287356322,11
2024-06-14 18:09:22,-0.008552113548,0.008552113548,0.01466076635,-1.242590666,-9.935936928,-0.2418143749,17.46067415730337,59.67415730337079,-27.79775280898876,-7720.471910112359,3256.9775280898875,907.5393258426966,11
2024-06-14 18:09:22,-0.1111774743,0.06230825558,-0.00244346098,-1.086967587,-10.45069027,0.08140286058,-16.906976744186053,-73.53488372093022,39.4186046511628,-7746.232558139535,3288.186046511628,1121.4186046511627,11
2024-06-14 18:09:22,-0.04642575979,-0.02076941915,0.0109955743,-1.209071875,-9.825803757,-0.2920926213,73.8,-71.4,-22.53333333333333,-7769.466666666666,3298.2,1107.0,11
2024-06-14 18:09:22,-0.04642575979,-0.02076941915,0.0109955743,-1.209071875,-9.825803757,-0.2920926213,-275.09090909090907,72.29545454545455,108.4090909090909,-7773.204545454545,3259.079545454545,1008.25,11
2024-06-14 18:09:22,0.007330383174,0.00244346098,-0.009773843922,-1.127668977,-9.986215591,-0.09816227108,91.51724137931036,69.72413793103448,55.51724137931035,-7715.172413793103,3274.9655172413795,900.0689655172414,11
2024-06-14 18:09:22,0.007330383174,0.00244346098,-0.009773843922,-1.127668977,-9.986215591,-0.09816227108,60.40229885057471,-61.206896551724135,27.436781609195403,-7757.505747126437,3306.609195402299,1130.1724137931035,11
2024-06-14 18:09:22,0.01221730467,-0.004886921961,-0.01221730467,-1.173158884,-10.00776291,-0.1268926859,-244.2,111.31764705882352,61.41176470588236,-7759.7411764705885,3264.6470588235293,1112.929411764706,11
2024-06-14 18:09:22,0.06352998316,-0.01221730467,-0.00244346098,-1.07739079,-9.974244118,-0.1125274822,15.125,79.0,-102.95833333333334,-7768.5,3248.0416666666665,1146.5416666666667,11
2024-06-14 18:09:22,0.06352998316,-0.01221730467,-0.00244346098,-1.07739079,-9.974244118,-0.1125274822,-104.34444444444443,-126.77777777777776,55.16666666666666,-7731.0,3302.733333333333,1150.8777777777775,11
2024-06-14 18:09:23,-0.003665191587,-0.01221730467,-0.009773843922,-1.110909581,-9.900024414,-0.05746084079,24.37583892617449,-88.5771812080537,94.0738255033557,-7770.194630872483,3313.8657718120803,1132.6711409395973,11
2024-06-14 18:09:23,-0.003665191587,-0.01221730467,-0.009773843922,-1.072602391,-10.02931118,-0.117315881,6.255033557046978,78.53691275167785,99.44295302013424,-7766.167785234899,3313.1946308724832,1136.0268456375838,11
2024-06-14 18:09:23,-0.00122173049,-0.00244346098,-0.0171042271,-1.072602391,-10.02931118,-0.117315881,103.27058823529411,116.96470588235294,48.63529411764706,-7735.517647058824,3294.2235294117645,904.2117647058824,11
2024-06-14 18:09:23,-0.008552113548,0.0,-0.009773843922,-1.120486379,-9.96466732,-0.1005564705,71.13333333333333,120.33333333333331,42.73333333333333,-7751.8,3303.0,1142.7,11
2024-06-14 18:09:23,-0.008552113548,0.0,-0.009773843922,-1.120486379,-9.96466732,-0.1005564705,-161.6966292134831,-49.86516853932585,74.56179775280899,-7753.573033707865,3285.8651685393256,982.247191011236,11
2024-06-14 18:09:23,-0.02687807009,-0.01954768784,0.02687807009,-1.094150186,-10.14183807,-0.1268926859,-7.800000000000011,-120.4,76.8,-7732.8,3272.4,1095.2,11
2024-06-14 18:09:23,0.007330383174,0.01221730467,0.006108652335,-1.110909581,-9.947908401,0.04788403213,64.63636363636364,94.0909090909091,73.27272727272727,-7777.272727272727,3312.454545454545,1117.6363636363635,11
2024-06-14 18:09:23,0.007330383174,0.01221730467,0.006108652335,-1.110909581,-9.947908401,0.04788403213,31.0561797752809,93.0561797752809,50.19101123595506,-7739.932584269663,3282.775280898876,902.9325842696628,11
2024-06-14 18:09:23,-0.01832595654,-0.01466076635,0.02076941915,-1.063025594,-10.0317049,0.06464344263,45.25555555555555,89.13333333333333,59.422222222222224,-7739.488888888889,3253.911111111111,922.6777777777778,11
2024-06-14 18:09:23,-0.01832595654,-0.01466076635,0.02076941915,-1.04147768,-9.943120003,0.02633621916,58.561797752808985,-47.8876404494382,108.8314606741573,-7765.943820224719,3316.629213483146,900.2247191011236,11
2024-06-14 18:09:24,-0.01221730467,0.0,0.01466076635,-1.04147768,-9.943120003,0.02633621916,25.21978021978022,86.08791208791209,53.0,-7761.791208791209,3272.7582417582416,911.3186813186812,11
2024-06-14 18:09:24,-0.02443460934,-0.009773843922,0.01343903504,-1.175553083,-9.993397713,0.06464344263,98.11627906976744,97.4186046511628,71.20930232558139,-7728.883720930233,3273.093023255814,922.5348837209302,11
2024-06-14 18:09:24,-0.02443460934,-0.009773843922,0.01343903504,-1.175553083,-9.993397713,0.06464344263,72.53932584269663,120.87640449438204,94.14606741573034,-7736.595505617977,3305.584269662921,919.5842696629212,11
2024-06-14 18:09:24,0.004886921961,-0.00244346098,0.0,-1.106121182,-9.789890289,0.1053448766,28.8876404494382,-119.9438202247191,70.86516853932585,-7738.483146067416,3303.629213483146,926.943820224719,11
2024-06-14 18:09:24,-0.03909537569,-0.00122173049,-0.00122173049,-1.11569798,-10.06282997,0.1149216816,-214.75,-99.8181818181818,25.68181818181818,-7747.090909090909,3295.454545454545,922.7272727272727,11
2024-06-14 18:09:24,-0.03909537569,-0.00122173049,-0.00122173049,-1.11569798,-10.06282997,0.1149216816,66.79310344827586,-123.6896551724138,58.58620689655172,-7756.689655172414,3258.3793103448274,935.103448275862,11
2024-06-14 18:09:24,-0.04031710699,-0.00244346098,-0.0109955743,-1.063025594,-9.998186111,0.08619125932,62.32450331125828,106.44370860927152,87.41721854304636,-7756.741721854305,3303.026490066225,902.3774834437086,11
2024-06-14 18:09:24,-0.04031710699,-0.00244346098,-0.0109955743,-1.063025594,-9.998186111,0.08619125932,-22.18292682926829,97.58536585365852,25.02439024390244,-7751.841463414634,3270.560975609756,939.060975609756,11
2024-06-14 18:09:24,-0.01588249579,0.004886921961,0.007330383174,-1.079784989,-9.947908401,0.1699883193,85.66666666666667,46.0,105.0,-7751.666666666667,3256.6666666666665,947.0,11
2024-06-14 18:09:25,-0.01588249579,0.004886921961,0.007330383174,-1.079784989,-9.947908401,0.1699883193,103.6206896551724,-1.0,79.72413793103448,-7769.275862068966,3303.7241379310344,930.103448275862,11
2024-06-14 18:09:25,-0.0171042271,0.009773843922,0.01466076635,-1.139639974,-10.0412817,0.1197100878,42.438202247191015,103.87640449438204,55.68539325842697,-7745.123595505618,3286.247191011236,931.314606741573,11
2024-06-14 18:09:25,-0.02199114859,0.0109955743,0.00244346098,-1.132457376,-9.923966408,0.141257897,64.0,-120.55172413793105,65.44827586206897,-7747.517241379311,3283.0689655172414,939.3793103448276,11
2024-06-14 18:09:25,-0.02199114859,0.0109955743,0.00244346098,-1.132457376,-9.923966408,0.141257897,54.98876404494382,-110.49438202247192,64.34831460674157,-7754.932584269663,3293.4269662921347,931.494382022472,11
2024-06-14 18:09:25,-0.4105014503,-0.01466076635,0.06597344577,-0.7637503147,-10.53688145,0.2968810201,38.27272727272727,-90.63636363636364,81.18181818181819,-7759.272727272727,3274.7272727272725,940.4545454545456,11
2024-06-14 18:09:25,-0.4105014503,-0.01466076635,0.06597344577,-0.7637503147,-10.53688145,0.2968810201,58.0,-103.33333333333331,65.0,-7763.666666666667,3285.6666666666665,918.3333333333334,11
2024-06-14 18:09:25,-0.008552113548,-0.01221730467,0.00244346098,-1.079784989,-10.0604353,0.04309562966,83.76744186046511,99.25581395348836,76.87209302325581,-7745.093023255814,3294.3255813953488,900.046511627907,11
2024-06-14 18:09:25,0.006108652335,-0.003665191587,-0.006108652335,-1.130063176,-10.0556469,-0.01197100803,54.39325842696629,105.561797752809,66.97752808988764,-7761.561797752809,3282.247191011236,923.0,11
2024-06-14 18:09:25,0.006108652335,-0.003665191587,-0.006108652335,-1.130063176,-10.0556469,-0.01197100803,68.79775280898876,66.73033707865169,62.28089887640449,-7744.370786516853,3289.47191011236,918.0224719101124,11
2024-06-14 18:09:25,-0.004886921961,-0.00122173049,-0.009773843922,-1.132457376,-9.87608242,0.14844051,51.94505494505494,-125.41758241758242,41.10989010989011,-7756.780219780219,3275.4175824175823,923.7802197802198,11
2024-06-14 18:09:26,-0.02809980139,-0.02565634064,-0.01588249579,-1.108515382,-10.08916569,-0.1125274822,94.13953488372093,-117.09302325581396,92.13953488372093,-7761.3488372093025,3287.3255813953488,929.279069767442,11
2024-06-14 18:09:26,-0.02809980139,-0.02565634064,-0.01588249579,-1.108515382,-10.08916569,-0.1125274822,55.550561797752806,111.92134831460676,74.40449438202248,-7768.629213483146,3308.202247191012,925.1123595505618,11
2024-06-14 18:09:26,-0.4007275999,0.00244346098,0.06352998316,-0.7469909191,-10.84812832,0.1915361285,48.0,98.77777777777776,63.333333333333336,-7765.333333333333,3302.4444444444443,926.5555555555557,11
2024-06-14 18:09:26,-0.4007275999,0.00244346098,0.06352998316,-1.027112484,-9.715670586,0.1125274822,40.8,-114.0,74.53333333333333,-7740.933333333333,3274.733333333333,934.6,11
2024-06-14 18:09:26,-0.04642575979,0.00122173049,0.02199114859,-1.098938584,-9.967061996,-0.04070143029,26.60439560439561,88.35164835164835,76.03296703296704,-7739.362637362637,3286.3076923076924,940.032967032967,11
2024-06-14 18:09:26,-0.04642575979,0.00122173049,0.02199114859,-1.098938584,-9.967061996,-0.04070143029,77.07954545454545,-75.125,53.10227272727273,-7755.840909090909,3268.2386363636365,942.9545454545456,11
2024-06-14 18:09:26,-0.003665191587,0.01343903504,0.004886921961,-1.101332784,-10.07719517,-0.1029506698,81.04494382022472,-120.25842696629212,75.7752808988764,-7779.741573033708,3297.213483146068,935.8539325842696,11
2024-06-14 18:09:26,-0.0293215327,0.0,0.00122173049,-1.139639974,-10.06522369,-0.09576806426,47.630434782608695,111.45652173913044,73.26086956521739,-7751.184782608696,3284.1847826086955,933.4239130434784,11
2024-06-14 18:09:26,-0.0293215327,0.0,0.00122173049,-1.139639974,-10.06522369,-0.09576806426,54.71604938271605,114.62962962962963,43.71604938271605,-7751.283950617284,3271.3703703703704,937.5432098765432,11
2024-06-14 18:09:27,0.09285151958,-0.01221730467,-0.0293215327,-1.096544385,-10.23281765,-0.007182605099,26.17391304347826,119.43478260869566,59.630434782608695,-7738.717391304348,3257.4347826086955,944.5,11
2024-06-14 18:09:27,0.04520402849,-0.0109955743,0.01466076635,-0.9816226959,-9.775525093,-0.06224924326,93.0,-105.0,90.77777777777776,-7758.355555555556,3274.4,937.1111111111112,11
2024-06-14 18:09:27,0.04520402849,-0.0109955743,0.01466076635,-0.9816226959,-9.775525093,-0.06224924326,93.0,-105.0,96.33333333333331,-7754.466666666666,3279.4,934.3333333333334,11
2024-06-14 18:09:27,0.004886921961,0.009773843922,-0.007330383174,-1.019929886,-9.859322548,0.1101332754,60.22727272727273,-108.8181818181818,59.92045454545455,-7775.590909090909,3275.409090909091,955.7727272727273,11
2024-06-14 18:09:27,-0.04642575979,-0.01343903504,0.004886921961,-1.060631394,-10.03888798,0.1125274822,46.81609195402299,-118.0919540229885,65.34482758620689,-7761.873563218391,3276.689655172414,920.6896551724138,11
2024-06-14 18:09:27,-0.06841690838,0.0,-0.02076941915,-0.9864110947,-10.08437729,0.0359130241,47.87912087912088,120.27472527472528,53.65934065934066,-7764.340659340659,3259.6153846153848,929.8351648351648,11
2024-06-14 18:09:27,-0.06841690838,0.0,-0.02076941915,-0.9864110947,-10.08437729,0.0359130241,51.0,14.137931034482762,49.3448275862069,-7755.448275862069,3272.103448275862,927.2758620689656,11
2024-06-14 18:09:27,-0.05864306539,-0.04764748737,-0.0109955743,-0.8643068075,-10.26873112,-0.2130839527,72.06832298136646,-122.48447204968944,73.03726708074534,-7780.447204968944,3269.484472049689,931.552795031056,11
2024-06-14 18:09:27,-0.05864306539,-0.04764748737,-0.0109955743,-0.9792284966,-9.880870819,0.0287304204,70.20496894409938,-127.45341614906832,81.11180124223603,-7777.341614906833,3274.4534161490683,934.6583850931676,11
2024-06-14 18:09:28,-0.03054326214,0.01466076635,0.01832595654,-0.9792284966,-9.880870819,0.0287304204,39.9010989010989,122.31868131868131,68.50549450549451,-7755.56043956044,3242.736263736264,929.5384615384615,11
2024-06-14 18:09:28,0.05253441259,-0.04886921868,0.02809980139,-0.9935936928,-9.921571732,-0.2106897533,81.0,117.44444444444444,80.22222222222223,-7756.888888888889,3262.111111111112,938.6666666666666,11
2024-06-14 18:09:28,0.05253441259,-0.04886921868,0.02809980139,-0.9935936928,-9.921571732,-0.2106897533,79.52272727272727,124.73863636363636,55.79545454545455,-7783.579545454545,3281.7386363636365,937.9886363636364,11
2024-06-14 18:09:28,-0.03787364438,-0.01954768784,-0.008552113548,-1.034295082,-9.823410034,0.1699883193,65.0,94.91011235955057,46.2247191011236,-7755.67415730337,3249.224719101124,950.6629213483146,11
2024-06-14 18:09:28,-0.03787364438,-0.02443460934,0.01832595654,-1.070208192,-10.0604353,0.004788403399,59.40909090909091,-63.86363636363637,66.5,-7766.0,3248.2727272727275,944.318181818182,11
2024-06-14 18:09:28,-0.03787364438,-0.02443460934,0.01832595654,-1.070208192,-10.0604353,0.004788403399,75.37894736842105,126.66315789473684,72.6421052631579,-7768.021052631579,3255.6631578947367,939.978947368421,11
2024-06-14 18:09:28,-0.02809980139,0.08552113175,0.008552113548,-1.110909581,-9.399636269,0.3303998411,76.51685393258427,126.0,82.5505617977528,-7764.932584269663,3249.5955056179773,934.752808988764,11
2024-06-14 18:09:28,-0.02809980139,0.08552113175,0.008552113548,-1.015141487,-10.0556469,-0.03112462163,-117.18604651162792,-112.11627906976744,-83.72093023255815,-7761.732558139535,3266.116279069768,935.0813953488372,11
2024-06-14 18:09:28,-0.004886921961,0.003665191587,0.02443460934,-1.015141487,-10.0556469,-0.03112462163,18.76404494382024,40.12359550561797,-112.52808988764043,-7748.23595505618,3303.044943820225,915.2359550561798,11
2024-06-14 18:09:28,-0.06841690838,0.009773843922,0.01466076635,-1.065419793,-9.957485199,-0.0143652102,72.95604395604396,99.73626373626374,102.0,-7776.758241758242,3595.56043956044,932.7032967032968,11
2024-06-14 18:09:29,-0.06841690838,0.009773843922,0.01466076635,-1.065419793,-9.957485199,-0.0143652102,33.04761904761905,91.52380952380952,10.428571428571429,-7735.523809523809,3304.9523809523807,944.1428571428572,11
2024-06-14 18:09:29,-0.0232128799,-0.00122173049,-0.00122173049,-1.074996591,-9.986215591,-0.1388636976,43.11111111111112,117.37777777777778,62.28888888888889,-7737.377777777778,3276.488888888889,955.7333333333332,11
2024-06-14 18:09:29,-0.01832595654,0.01343903504,0.01954768784,-1.096544385,-9.919178009,-0.07422025502,55.25842696629213,-92.82022471910112,78.04494382022472,-7761.966292134832,3302.988764044944,926.2584269662922,11
2024-06-14 18:09:29,-0.01832595654,0.01343903504,0.01954768784,-1.096544385,-9.919178009,-0.07422025502,28.27272727272728,87.74545454545455,55.127272727272725,-7758.327272727272,3286.7090909090907,935.9090909090908,11
2024-06-14 18:09:29,0.006108652335,0.01343903504,-0.00244346098,-1.074996591,-9.847352028,-0.02394201607,34.333333333333336,86.53333333333333,55.73333333333333,-7745.6,3275.8,945.0,11
2024-06-14 18:09:29,0.00244346098,0.006108652335,0.009773843922,-1.053448796,-9.847352028,-0.05985504389,53.19565217391305,-124.19565217391305,81.28260869565217,-7748.717391304348,3263.543478260869,938.0869565217392,11
2024-06-14 18:09:29,0.00244346098,0.006108652335,0.009773843922,-1.053448796,-9.847352028,-0.05985504389,77.02352941176471,3.047058823529426,61.52941176470589,-7754.870588235294,3295.188235294117,931.6588235294116,11
2024-06-14 18:09:29,-0.03054326214,0.00244346098,0.006108652335,-0.9792284966,-10.07958889,-0.06224924326,47.48314606741573,106.07865168539324,31.797752808988765,-7741.539325842697,3265.8651685393256,959.4494382022472,11
2024-06-14 18:09:29,-0.03054326214,0.00244346098,0.006108652335,-0.9792284966,-10.07958889,-0.06224924326,73.15730337078652,114.80898876404494,58.73033707865169,-7731.247191011236,3274.348314606741,954.4494382022472,11
2024-06-14 18:09:29,-0.03176499158,-0.0109955743,0.00244346098,-0.988805294,-10.07240677,0.02154781483,62.0,-124.1,72.3,-7779.9,3293.9,938.4,11
2024-06-14 18:09:30,-0.0171042271,0.02565634064,0.01221730467,-1.04147768,-10.01733971,-0.02154781483,57.58918918918919,-11.881081081081078,73.54054054054055,-7778.524324324324,3293.5405405405404,946.3297297297296,11
2024-06-14 18:09:30,0.0,0.0,0.006108652335,-1.000776291,-9.96466732,0.007182605099,92.20689655172414,-112.55172413793105,74.44827586206897,-7779.551724137931,3247.758620689656,963.3103448275862,11
2024-06-14 18:09:30,0.03054326214,0.00122173049,0.004886921961,-1.017535686,-9.864110947,0.007182605099,51.21428571428572,116.25,71.03571428571429,-7777.928571428572,3273.428571428572,959.2857142857144,11
2024-06-14 18:09:30,0.03054326214,0.00122173049,0.004886921961,-1.017535686,-9.864110947,0.007182605099,36.61363636363637,4.4090909090909065,50.65909090909091,-7754.863636363636,3248.75,969.25,11
2024-06-14 18:09:30,-0.006108652335,0.008552113548,-0.00244346098,-1.072602391,-9.993397713,0.01197100803,53.89473684210526,-123.97894736842105,59.50526315789474,-7758.568421052631,3245.842105263158,963.0631578947368,11
2024-06-14 18:09:30,-0.006108652335,0.008552113548,-0.00244346098,-1.072602391,-9.993397713,0.01197100803,47.32941176470588,-123.02352941176471,63.02352941176471,-7768.658823529412,3255.6470588235293,964.035294117647,11
2024-06-14 18:09:30,-0.007330383174,-0.00122173049,0.01343903504,-1.031900883,-10.00297451,-0.01675941236,38.367816091954026,-118.5632183908046,65.17241379310344,-7773.264367816092,3243.5402298850577,961.632183908046,11
2024-06-14 18:09:30,-0.0109955743,0.007330383174,-0.003665191587,-1.067813993,-10.00058079,-0.0143652102,79.73033707865169,-114.0,72.80898876404494,-7773.640449438202,3261.8314606741574,958.1797752808988,11
2024-06-14 18:09:30,-0.0109955743,0.007330383174,-0.003665191587,-1.067813993,-10.00058079,-0.0143652102,54.91111111111111,126.8,71.03333333333333,-7769.933333333333,3259.822222222222,944.1666666666666,11
2024-06-14 18:09:31,-0.02809980139,0.00122173049,0.0109955743,-1.015141487,-10.00776291,0.1125274822,65.86516853932584,110.13483146067416,53.325842696629216,-7752.887640449439,3262.7640449438204,956.1123595505618,11
2024-06-14 18:09:31,-0.02809980139,0.00244346098,0.008552113548,-1.04147768,-10.02452278,0.06943184882,61.69281045751634,115.34640522875816,53.04575163398693,-7775.084967320261,3232.562091503268,955.5228758169936,11
2024-06-14 18:09:31,-0.02809980139,0.00244346098,0.008552113548,-1.04147768,-10.02452278,0.06943184882,55.15686274509804,112.07843137254902,58.27450980392157,-7770.509803921569,3225.372549019608,958.1372549019608,11
2024-06-14 18:09:31,-0.009773843922,0.00122173049,0.004886921961,-1.019929886,-9.904812813,0.02633621916,68.39285714285714,112.95238095238096,71.30952380952381,-7781.4047619047615,3261.119047619048,968.7619047619048,11
2024-06-14 18:09:31,-0.009773843922,0.00122173049,0.004886921961,-1.019929886,-9.904812813,0.02633621916,69.07692307692308,72.02564102564102,55.61538461538461,-7769.794871794872,3252.0,978.1538461538462,11
2024-06-14 18:09:31,0.06597344577,-0.00122173049,0.01466076635,-1.084573388,-9.797073364,-0.07661445439,59.79775280898876,111.2247191011236,50.943820224719104,-7760.741573033708,3240.94382022472,980.1123595505618,11
2024-06-14 18:09:31,-0.03176499158,0.004886921961,0.01343903504,-0.9911994934,-10.04367638,-0.04070143029,88.19767441860465,85.17441860465117,76.3953488372093,-7777.383720930233,3254.616279069768,974.9883720930231,11
2024-06-14 18:09:31,-0.03176499158,0.004886921961,0.01343903504,-0.9911994934,-10.04367638,-0.04070143029,82.50549450549451,103.72527472527472,86.3076923076923,-7754.285714285715,3248.197802197802,993.5054945054944,11
2024-06-14 18:09:31,-0.01221730467,-0.01343903504,0.01343903504,-1.012747288,-10.01255131,-0.02154781483,83.94505494505495,-114.58241758241758,51.07692307692308,-7776.32967032967,3236.5494505494507,1000.967032967033,11
2024-06-14 18:09:31,0.106290549,0.007330383174,0.004886921961,-1.024718285,-9.938331604,0.01675941236,116.1604938271605,91.61728395061728,-281.24691358024694,-7782.012345679012,3277.098765432099,964.0123456790124,11
2024-06-14 18:09:32,0.106290549,0.007330383174,0.004886921961,-1.024718285,-9.938331604,0.01675941236,15.447058823529412,-66.4,51.423529411764704,-7739.058823529412,3442.423529411765,994.0,11
2024-06-14 18:09:32,0.03054326214,-0.03298672289,-0.004886921961,-0.9816226959,-9.753977776,0.05267243832,44.11111111111112,-13.8,54.75555555555555,-7778.377777777778,3222.822222222222,958.3333333333334,11
2024-06-14 18:09:32,0.03054326214,-0.03298672289,-0.004886921961,-0.9816226959,-9.753977776,0.05267243832,12.909090909090908,-96.45454545454544,45.72727272727273,-7578.181818181818,3218.090909090909,952.3636363636364,11
2024-06-14 18:09:32,-0.1307251602,0.05986479297,0.04764748737,-0.7733271718,-10.07001209,0.3591302633,43.33707865168539,77.85393258426966,52.1123595505618,-7688.516853932584,3209.741573033708,959.7303370786516,11
2024-06-14 18:09:32,0.03298672289,-0.0293215327,0.0232128799,-0.9552865028,-9.911994934,0.1723825186,50.380434782608695,96.6086956521739,33.75,-7779.315217391304,3367.195652173913,978.9565217391304,11
2024-06-14 18:09:32,0.03298672289,-0.0293215327,0.0232128799,-0.9552865028,-9.911994934,0.1723825186,52.25301204819277,118.28915662650604,39.3855421686747,-7760.795180722892,3451.590361445783,968.5903614457832,11
2024-06-14 18:09:32,-0.02199114859,-0.008552113548,-0.007330383174,-1.012747288,-10.09634876,0.0191536136,37.369565217391305,-55.63043478260869,57.141304347826086,-7788.967391304348,3441.1739130434785,961.782608695652,11
2024-06-14 18:09:32,0.08674286306,0.04276056588,0.008552113548,-1.086967587,-9.947908401,0.1101332754,51.48780487804878,76.95121951219512,91.14634146341464,-7775.951219512195,3203.0,961.5121951219512,11
2024-06-14 18:09:32,0.08674286306,0.04276056588,0.008552113548,-1.086967587,-9.947908401,0.1101332754,114.89156626506023,108.93975903614458,113.07228915662652,-7778.349397590361,3252.289156626506,980.4939759036145,11
2024-06-14 18:09:32,0.06719517708,-0.02443460934,0.00244346098,-1.122880578,-9.715670586,0.2059013397,58.28888888888889,-95.28888888888888,102.35555555555555,-7775.733333333334,3247.111111111112,987.2666666666668,11
2024-06-14 18:09:33,0.06719517708,-0.02443460934,0.00244346098,-1.122880578,-9.715670586,0.2059013397,-174.61627906976744,-115.04651162790698,8.069767441860465,-7722.058139534884,3447.6627906976746,981.2906976744188,11
2024-06-14 18:09:33,-0.02443460934,0.04398229718,0.00244346098,-1.048660398,-10.12268448,0.3327940404,52.13636363636364,23.431818181818187,85.5,-7789.795454545455,3347.4772727272725,956.9545454545456,11
2024-06-14 18:09:33,0.1808161139,-0.05253441259,0.009773843922,-0.9504981041,-9.892841339,0.4357447028,81.3463687150838,-49.502793296089386,51.71508379888268,-7790.189944134078,3216.2011173184355,944.0837988826815,11
2024-06-14 18:09:33,0.1808161139,-0.05253441259,0.009773843922,-0.9504981041,-9.892841339,0.4357447028,71.84916201117318,73.9608938547486,45.011173184357546,-7794.659217877095,3226.8156424581007,940.173184357542,11
2024-06-14 18:09:33,0.08674286306,0.04031710699,-0.03665191308,-0.9672574997,-9.916783333,0.215478152,-68.09756097560975,109.0,98.82926829268293,-7777.8536585365855,3294.573170731708,976.939024390244,11
2024-06-14 18:09:33,0.08674286306,0.04031710699,-0.03665191308,-0.7972691655,-10.0604353,0.4381389022,18.53932584269663,99.40449438202248,56.2247191011236,-7792.898876404494,3219.0337078651687,1004.9775280898876,11
2024-06-14 18:09:33,-0.04031710699,-0.0171042271,0.01832595654,-0.7972691655,-10.0604353,0.4381389022,57.4468085106383,108.23404255319149,19.06382978723404,-7763.723404255319,3452.9574468085107,1001.2553191489362,11
2024-06-14 18:09:33,0.0,0.00122173049,0.01221730467,-1.118092179,-9.904812813,0.2777273953,45.833333333333336,-101.40625,37.708333333333336,-7784.760416666667,3449.864583333333,980.8645833333334,11
2024-06-14 18:09:33,0.0,0.00122173049,0.01221730467,-1.118092179,-9.904812813,0.2777273953,-79.05128205128204,119.5897435897436,68.0,-7765.0,3219.897435897436,949.1538461538462,11
2024-06-14 18:09:33,-0.0415388383,-0.00122173049,-0.0109955743,-0.895431459,-10.14423275,0.2873041928,68.02197802197801,83.76923076923077,64.08791208791209,-7791.527472527472,3218.351648351648,971.6373626373628,11
2024-06-14 18:09:34,-0.03909537569,-0.008552113548,0.01588249579,-1.024718285,-9.945513725,0.2729389966,55.17857142857143,104.4404761904762,39.01190476190476,-7776.047619047619,3437.809523809524,997.8333333333334,11
2024-06-14 18:09:34,-0.03909537569,-0.008552113548,0.01588249579,-1.024718285,-9.945513725,0.2729389966,66.82022471910112,104.15730337078652,67.40449438202248,-7793.011235955056,3445.4157303370785,1013.0337078651686,11
2024-06-14 18:09:34,-0.01466076635,0.0,0.01466076635,-0.9361328483,-9.933543205,0.2442085743,47.51162790697674,-35.16279069767441,73.88372093023256,-7777.6511627906975,3441.395348837209,1007.8837209302326,11
2024-06-14 18:09:34,-0.0232128799,0.01343903504,0.007330383174,-0.9935936928,-9.804255486,0.14844051,51.67032967032967,-106.50549450549453,41.8021978021978,-7770.241758241758,3437.6263736263736,983.2527472527472,11
2024-06-14 18:09:34,-0.0232128799,0.01343903504,0.007330383174,-0.9935936928,-9.804255486,0.14844051,67.65060240963855,-111.32530120481928,103.3855421686747,-7772.77108433735,3452.843373493976,976.6385542168674,11
2024-06-14 18:09:34,-0.0171042271,0.009773843922,0.01343903504,-0.9193734527,-10.01494598,0.3112462163,51.35151515151515,5.230303030303034,81.0,-7785.036363636364,3211.139393939394,969.4121212121212,11
2024-06-14 18:09:34,-0.0171042271,0.009773843922,0.01343903504,-0.9193734527,-10.01494598,0.3112462163,89.85882352941177,90.52941176470588,39.35294117647059,-7797.929411764706,3232.6470588235293,989.035294117647,11
2024-06-14 18:09:34,0.0109955743,0.01221730467,0.003665191587,-0.9193734527,-10.03888798,0.3280056417,63.82978723404256,106.34042553191487,64.34042553191489,-7778.340425531915,3421.7659574468084,1017.063829787234,11
2024-06-14 18:09:34,0.009773843922,-0.00244346098,0.009773843922,-0.9648633003,-9.967061996,0.2705447972,79.79268292682927,-117.4390243902439,77.2560975609756,-7779.09756097561,3444.768292682927,998.4634146341464,11
2024-06-14 18:09:34,0.009773843922,-0.00244346098,0.009773843922,-0.9648633003,-9.967061996,0.2705447972,89.43181818181819,-111.32954545454544,94.39772727272728,-7794.102272727273,3449.659090909091,992.2272727272727,11
2024-06-14 18:09:35,0.004886921961,0.003665191587,0.0109955743,-0.940921247,-9.928754807,0.2513911724,71.84269662921348,-110.06741573033707,108.69662921348316,-7759.7191011235955,3347.3932584269664,983.0449438202248,11
2024-06-14 18:09:35,-0.0109955743,0.007330383174,-0.00122173049,-0.9816226959,-10.05804157,0.3711012602,72.31764705882352,-15.0,-121.27058823529411,-7779.870588235294,3234.364705882353,961.9529411764706,11
2024-06-14 18:09:35,-0.0109955743,0.007330383174,-0.00122173049,-0.9816226959,-10.05804157,0.3711012602,38.79120879120879,-112.2087912087912,81.85714285714286,-7573.538461538462,3259.516483516484,947.9010989010987,11
2024-06-14 18:09:35,-0.00244346098,-0.007330383174,-0.00244346098,-0.9528923035,-9.957485199,0.3399766386,-241.8735632183908,59.97701149425287,54.6551724137931,-7738.620689655172,3217.850574712644,981.9770114942528,11
2024-06-14 18:09:35,-0.007330383174,0.0171042271,0.01588249579,-0.9840168953,-9.866505623,0.3663128614,49.54022988505747,118.4942528735632,45.85057471264368,-7581.275862068966,3220.2758620689656,935.919540229885,11
2024-06-14 18:09:35,-0.01954768784,0.004886921961,-0.00122173049,-1.000776291,-9.931148529,0.3447650373,75.66666666666667,22.444444444444443,41.0,-7771.222222222223,3203.555555555556,962.3333333333334,11
2024-06-14 18:09:35,-0.01954768784,0.004886921961,-0.00122173049,-1.000776291,-9.931148529,0.3447650373,78.75,94.225,56.05,-7712.9,3223.8,983.3,11
2024-06-14 18:09:35,-0.01954768784,0.003665191587,0.004886921961,-0.9457096457,-9.923966408,0.2681505978,56.86666666666667,42.855555555555554,15.1,-7590.866666666667,3227.5333333333333,999.3777777777776,11
2024-06-14 18:09:35,-0.01954768784,0.003665191587,0.004886921961,-0.9481038451,-9.959878922,0.2992752194,-276.219512195122,1.5121951219512226,65.3658536585366,-7737.390243902439,3342.292682926829,957.3170731707318,11
2024-06-14 18:09:36,0.003665191587,-0.00122173049,0.007330383174,-0.9481038451,-9.959878922,0.2992752194,-274.4634146341463,-62.34146341463415,-109.21951219512196,-7756.024390243902,3417.7073170731705,965.7560975609756,11
2024-06-14 18:09:36,-0.00122173049,0.01588249579,0.01466076635,-0.9504981041,-9.943120003,0.2968810201,99.54545454545456,-330.27272727272725,303.3636363636364,-7786.909090909091,3274.818181818182,1310.5454545454545,11
2024-06-14 18:09:36,-0.008552113548,-0.00122173049,0.009773843922,-0.9552865028,-10.05804157,0.3591302633,126.87912087912088,75.7802197802198,-292.978021978022,-7772.043956043956,3291.769230769231,1329.1538461538462,11
2024-06-14 18:09:36,-0.0171042271,0.009773843922,0.009773843922,-0.9481038451,-9.957485199,0.282515794,-202.44827586206893,88.57471264367817,-297.41379310344826,-7788.0,3196.080459770115,1348.1724137931035,11
2024-06-14 18:09:36,-0.0171042271,0.009773843922,0.009773843922,-0.9481038451,-9.957485199,0.282515794,-71.25287356321839,-95.08045977011494,322.91954022988506,-7780.586206896552,3408.6436781609195,1281.5402298850574,11
2024-06-14 18:09:36,-0.01221730467,0.01343903504,0.00244346098,-0.9720458984,-10.0269165,0.3303998411,-49.8,-103.0,313.1666666666667,-7727.9,3380.6,1285.5,11
2024-06-14 18:09:36,-0.01221730467,0.01343903504,0.00244346098,-0.962469101,-9.940725327,0.3184288144,236.25274725274727,-18.472527472527474,9.758241758241752,-7685.978021978022,3509.1758241758243,1307.5604395604396,11
2024-06-14 18:09:36,0.00244346098,0.009773843922,0.0,-0.962469101,-9.940725327,0.3184288144,104.3846153846154,-137.15384615384616,-235.84615384615387,-7740.923076923077,3319.6153846153848,1206.4615384615386,11
2024-06-14 18:09:36,-0.03665191308,-0.006108652335,-0.00122173049,-0.9720458984,-9.998186111,0.2849099934,103.25,306.125,-72.375,-7612.375,3353.0,1313.375,11
2024-06-14 18:09:37,-0.03665191308,-0.006108652335,-0.00122173049,-0.9720458984,-9.998186111,0.2849099934,-192.72941176470587,293.6823529411765,-199.03529411764703,-7670.094117647059,3387.741176470588,967.8117647058824,11
2024-06-14 18:09:37,-0.004886921961,0.0,0.009773843922,-0.9169792533,-9.911994934,0.3303998411,-302.2758620689655,78.17241379310346,-277.34482758620686,-7796.827586206897,3051.758620689656,992.7241379310344,11
2024-06-14 18:09:37,-0.02076941915,0.0,0.01466076635,-0.9959878922,-9.9526968,0.3447650373,-116.46875,-100.78125,-106.34375,-7583.78125,3407.5,992.0625,11
2024-06-14 18:09:37,-0.02076941915,0.0,0.01466076635,-0.9959878922,-9.9526968,0.3447650373,53.06024096385542,81.98795180722891,88.12048192771084,-7561.012048192771,3430.0,1025.0843373493976,11
2024-06-14 18:09:37,-0.381179899,-0.01954768784,-0.009773843922,-1.082179189,-9.902418137,0.1221042871,59.0,84.8,95.6,-7805.0,3429.2,1278.8,11
2024-06-14 18:09:37,-0.381179899,-0.01954768784,-0.009773843922,-0.9696516991,-10.0412817,0.01675941236,21.379310344827587,82.82758620689656,39.735632183908045,-7632.103448275862,3377.609195402299,1315.287356321839,11
2024-06-14 18:09:37,-0.008552113548,0.0109955743,0.01343903504,-0.9696516991,-10.0412817,0.01675941236,72.41463414634147,101.8780487804878,16.0,-7792.341463414634,3427.243902439024,1331.8292682926829,11
2024-06-14 18:09:37,0.0,0.0171042271,0.02565634064,-0.9145850539,-9.933543205,0.03112462163,84.31843575418995,-111.8826815642458,107.46927374301676,-7791.424581005586,3445.9944134078214,1325.4357541899442,11
2024-06-14 18:09:37,0.0,0.0171042271,0.02565634064,-0.9145850539,-9.933543205,0.03112462163,61.41340782122905,-94.00558659217876,78.97765363128491,-7794.217877094972,3449.905027932961,1320.4078212290503,11
2024-06-14 18:09:37,0.009773843922,-0.004886921961,0.01832595654,-0.9983820915,-10.12268448,0.1197100878,38.0,-118.0,70.14285714285714,-7558.5,3406.5714285714284,1292.2857142857142,11
2024-06-14 18:09:38,-0.03665191308,-0.0109955743,-0.01832595654,-1.00317049,-9.883264542,0.09337386489,54.62176165803109,-22.430051813471508,81.22279792746114,-7645.823834196891,3419.720207253886,1172.0362694300518,11
2024-06-14 18:09:38,-0.03665191308,-0.0109955743,-0.01832595654,-1.00317049,-9.883264542,0.09337386489,67.57512953367876,97.77720207253888,90.03108808290156,-7750.4870466321245,3438.8911917098444,1026.958549222798,11
2024-06-14 18:09:38,-0.003665191587,0.01588249579,0.01954768784,-0.9241618514,-10.05804157,0.06464344263,46.55555555555556,113.33333333333331,49.55555555555556,-7794.111111111111,3419.111111111112,1294.888888888889,11
2024-06-14 18:09:38,-0.003665191587,0.01588249579,0.01954768784,-0.8714894056,-9.986215591,0.06943184882,32.04761904761905,107.42857142857144,58.23809523809524,-7790.047619047619,3415.8571428571427,1300.6190476190477,11
2024-06-14 18:09:38,-0.04276056588,-0.009773843922,-0.01832595654,-0.8714894056,-9.986215591,0.06943184882,40.2247191011236,122.0,55.0,-7717.426966292135,3408.483146067416,1301.876404494382,11
2024-06-14 18:09:38,0.0,0.009773843922,0.00122173049,-1.048660398,-10.04846478,0.1244984865,68.61538461538461,101.68131868131869,58.78021978021978,-7677.461538461538,3401.6373626373625,1313.6153846153843,11
2024-06-14 18:09:38,0.0,0.009773843922,0.00122173049,-1.048660398,-10.04846478,0.1244984865,94.58426966292134,-20.65168539325844,78.47191011235955,-7780.38202247191,3425.325842696629,1325.685393258427,11
2024-06-14 18:09:38,-0.03176499158,-0.007330383174,-0.01343903504,-0.8762778044,-9.962273598,0.117315881,79.0,-109.0,82.33333333333333,-7795.0,3439.6666666666665,1310.0,11
2024-06-14 18:09:38,0.003665191587,-0.00122173049,0.0,-0.9768342972,-9.897629738,0.1580173075,39.44444444444444,-96.44444444444444,85.22222222222223,-7788.777777777777,3427.777777777778,1294.7777777777778,11
2024-06-14 18:09:38,0.003665191587,-0.00122173049,0.0,-0.9768342972,-9.897629738,0.1580173075,60.50574712643678,-52.28735632183909,68.01149425287356,-7578.873563218391,3424.436781609196,1304.183908045977,11
2024-06-14 18:09:39,-0.006108652335,0.01832595654,0.0232128799,-0.9145850539,-10.16099167,0.03351882473,48.36363636363637,103.76136363636364,119.8068181818182,-7571.375,3437.1363636363635,1022.0454545454544,11
2024-06-14 18:09:39,-0.006108652335,0.01832595654,0.0232128799,-0.9720458984,-9.902418137,0.1867477298,52.88636363636363,122.45454545454544,29.113636363636363,-7794.0,3445.5454545454545,1016.4545454545456,11
2024-06-14 18:09:39,0.008552113548,-0.004886921961,-0.00122173049,-0.9720458984,-9.902418137,0.1867477298,17.833333333333332,107.76666666666668,56.333333333333336,-7787.433333333333,3427.1,1294.2333333333331,11
2024-06-14 18:09:39,0.02076941915,-0.008552113548,0.01466076635,-1.017535686,-9.931148529,0.2226607651,70.78021978021978,-105.10989010989012,66.15384615384616,-7731.901098901098,3442.043956043956,1310.4065934065934,11
2024-06-14 18:09:39,0.02076941915,-0.008552113548,0.01466076635,-1.017535686,-9.931148529,0.2226607651,25.79768786127168,-62.65895953757225,71.27745664739885,-7574.236994219653,3423.063583815029,1291.9884393063585,11
2024-06-14 18:09:39,0.01588249579,-0.0109955743,-0.003665191587,-0.8427590132,-10.01973438,0.181959331,25.21965317919075,72.60115606936415,40.64161849710983,-7583.485549132948,3388.9595375722542,1289.0982658959538,11
2024-06-14 18:09:39,0.03176499158,0.03909537569,-0.008552113548,-0.9911994934,-9.919178009,0.08858546615,-8.5,-42.46428571428571,-74.64285714285714,-7741.535714285715,3231.3571428571427,1288.428571428571,11
2024-06-14 18:09:39,0.03176499158,0.03909537569,-0.008552113548,-0.9911994934,-9.919178009,0.08858546615,56.79775280898876,-53.38202247191011,92.08988764044943,-7787.561797752809,3226.629213483146,1064.0112359550562,11
2024-06-14 18:09:39,0.1172861308,0.02809980139,0.06108652428,-0.8762778044,-9.696516991,0.1244984865,54.2967032967033,-62.20879120879121,56.96703296703296,-7802.714285714285,3214.989010989011,1018.010989010989,11
2024-06-14 18:09:39,-0.01954768784,-0.0171042271,-0.02565634064,-0.9265560508,-10.0317049,0.2370259613,93.87368421052632,57.11578947368421,109.83157894736844,-7742.168421052632,3201.736842105264,1293.4,11
2024-06-14 18:09:40,-0.01954768784,-0.0171042271,-0.02565634064,-0.9265560508,-10.0317049,0.2370259613,-7.728395061728396,-33.888888888888886,104.62962962962963,-7554.888888888889,3265.9753086419755,1268.567901234568,11
2024-06-14 18:09:40,0.00122173049,-0.00122173049,0.01221730467,-0.9145850539,-9.943120003,0.1029506698,-182.3068181818182,-41.40909090909091,-43.77272727272727,-7571.659090909091,3423.875,1012.431818181818,11
2024-06-14 18:09:40,0.00122173049,-0.00122173049,0.01221730467,-0.9145850539,-9.943120003,0.1029506698,68.08791208791209,-66.86813186813185,52.2967032967033,-7652.395604395604,3365.4395604395604,1114.7582417582416,11
2024-06-14 18:09:40,-0.02199114859,0.0109955743,0.009773843922,-1.039083481,-9.880870819,0.1556231081,-31.73913043478261,-314.30434782608694,-92.69565217391305,-7599.565217391304,3395.826086956521,1234.6521739130435,11
2024-06-14 18:09:40,-0.02199114859,0.00122173049,-0.003665191587,-0.9576807022,-9.902418137,0.2466027737,-61.08695652173913,-305.0652173913044,-39.434782608695656,-7698.478260869565,3340.391304347826,1086.2826086956522,11
2024-06-14 18:09:40,-0.02199114859,0.00122173049,-0.003665191587,-0.9576807022,-9.902418137,0.2466027737,-87.52747252747253,56.92307692307692,-288.8791208791209,-7651.483516483517,3324.6813186813188,1367.3076923076924,11
2024-06-14 18:09:40,0.0109955743,0.01343903504,0.02809980139,-0.9265560508,-9.861717224,0.1532289088,86.16455696202532,-40.03797468354429,72.34177215189874,-7709.088607594937,3222.6329113924053,1317.2911392405065,11
2024-06-14 18:09:40,-0.01343903504,-0.02076941915,0.008552113548,-0.9433154464,-9.959878922,0.1915361285,-249.74157303370785,-79.0561797752809,110.65168539325845,-7758.29213483146,3317.8426966292136,1362.6404494382025,11
2024-06-14 18:09:40,-0.01343903504,-0.02076941915,0.008552113548,-0.9433154464,-9.959878922,0.1915361285,-235.0,-57.66666666666667,-364.0,-7565.666666666667,3273.333333333333,1325.0,11
2024-06-14 18:09:40,-0.00244346098,0.02076941915,-0.003665191587,-0.9983820915,-9.998186111,0.1699883193,70.51685393258427,-0.5955056179775298,28.89887640449438,-7732.606741573034,3239.303370786517,1322.6629213483145,11
2024-06-14 18:09:41,-0.00244346098,0.02076941915,-0.003665191587,-0.9983820915,-9.998186111,0.1699883193,-601.8876404494382,229.9438202247191,-274.7415730337079,-7738.640449438202,3225.9775280898875,1323.7191011235957,11
2024-06-14 18:09:41,0.0,0.00122173049,-0.01221730467,-0.9600749016,-10.01255131,0.1316810995,-446.5955056179776,78.19101123595506,-345.39325842696627,-7606.640449438202,3224.6629213483147,1338.1685393258426,11
2024-06-14 18:09:41,-0.009773843922,0.00244346098,0.008552113548,-0.9265560508,-10.00297451,0.09816227108,-60.65142857142857,104.0,-208.93142857142857,-7588.445714285714,3020.017142857143,1321.3257142857142,11
2024-06-14 18:09:41,-0.009773843922,0.00244346098,0.008552113548,-0.9265560508,-10.00297451,0.09816227108,-46.93714285714286,104.0,-47.217142857142846,-7589.588571428571,3035.445714285714,1314.4685714285715,11
2024-06-14 18:09:41,-0.03054326214,0.007330383174,0.004886921961,-0.9241618514,-9.998186111,0.1221042871,-12.01136363636364,41.46590909090909,101.6590909090909,-7616.715909090909,3380.784090909091,1015.0113636363636,11
2024-06-14 18:09:41,-0.01466076635,0.00244346098,-0.00244346098,-0.9097966552,-9.993397713,0.1316810995,-216.2117647058824,50.23529411764706,43.25882352941176,-7747.270588235294,3404.176470588235,1012.635294117647,11
2024-06-14 18:09:41,-0.01466076635,0.00244346098,-0.00244346098,-0.9097966552,-9.993397713,0.1316810995,-13.685393258426984,70.75280898876404,-259.6966292134832,-7784.168539325843,3073.550561797753,1304.685393258427,11
2024-06-14 18:09:41,0.003665191587,0.0,0.0171042271,-0.9026140571,-9.950302124,0.07661445439,115.03225806451611,-112.83870967741936,35.67741935483871,-7559.89247311828,3379.6774193548385,1295.1720430107528,11
2024-06-14 18:09:41,0.003665191587,0.0,0.0171042271,-0.9026140571,-9.950302124,0.07661445439,32.13333333333333,-76.13333333333333,51.333333333333336,-7594.933333333333,3297.2,1052.8666666666666,11
2024-06-14 18:09:41,0.004886921961,-0.00122173049,0.01588249579,-0.9457096457,-9.959878922,0.1651999205,23.90909090909091,-197.45454545454544,-76.18181818181819,-7781.454545454545,3363.7727272727275,1331.0,11
2024-06-14 18:09:42,-0.004886921961,-0.007330383174,0.007330383174,-0.9768342972,-10.00536919,0.215478152,-33.604395604395606,32.07692307692308,76.43956043956044,-7773.032967032967,3348.4615384615386,1340.8461538461538,11
2024-06-14 18:09:42,-0.004886921961,-0.007330383174,0.007330383174,-0.9768342972,-10.00536919,0.215478152,31.666666666666668,98.66666666666666,54.0,-7703.0,3384.777777777778,1175.4444444444443,11
2024-06-14 18:09:42,0.0109955743,0.003665191587,0.007330383174,-0.988805294,-9.911994934,0.2394201756,-113.85555555555555,-44.11111111111112,80.17777777777778,-7648.611111111111,3185.088888888889,1162.4555555555555,11
2024-06-14 18:09:42,-0.009773843922,-0.00122173049,0.006108652335,-0.988805294,-9.995792389,0.2346317619,76.2235294117647,-150.28235294117647,-54.07058823529411,-7592.494117647058,3355.1529411764704,1313.2941176470588,11
2024-06-14 18:09:42,-0.009773843922,-0.00122173049,0.006108652335,-0.988805294,-9.995792389,0.2346317619,44.90909090909091,-33.636363636363626,67.9090909090909,-7749.727272727273,3364.454545454545,1363.3636363636365,11
2024-06-14 18:09:42,-0.03787364438,-0.003665191587,0.01343903504,-0.9481038451,-10.01494598,0.1987187415,106.71270718232044,-70.66850828729281,57.9171270718232,-7773.480662983426,3386.6906077348067,1354.812154696133,11
2024-06-14 18:09:42,0.003665191587,0.0,0.006108652335,-0.9983820915,-9.967061996,0.1939303428,109.52631578947368,64.57894736842105,101.4561403508772,-7596.637426900585,3072.561403508772,1307.7426900584796,11
2024-06-14 18:09:42,-0.0109955743,-0.004886921961,0.01954768784,-1.012747288,-10.0556469,0.2322375625,-22.05263157894737,69.84210526315789,87.42105263157895,-7720.614035087719,3232.2105263157896,1305.40350877193,11
2024-06-14 18:09:42,-0.0109955743,-0.004886921961,0.01954768784,-1.012747288,-10.0556469,0.2322375625,53.333333333333336,-104.66666666666669,55.0,-7561.333333333333,3393.333333333333,1290.3333333333333,11
2024-06-14 18:09:43,-0.0171042271,0.004886921961,0.02076941915,-1.024718285,-9.92636013,0.4309563041,-125.9438202247191,-4.168539325842701,85.89887640449439,-7575.550561797752,3355.247191011236,1169.1573033707866,11
2024-06-14 18:09:43,0.05619960278,0.008552113548,0.02443460934,-1.053448796,-9.866505623,0.1340752989,-19.15625,89.9375,89.1875,-7567.71875,3219.78125,1313.78125,11
2024-06-14 18:09:43,0.05619960278,0.008552113548,0.02443460934,-1.053448796,-9.866505623,0.1340752989,15.277108433734938,102.9156626506024,107.90361445783132,-7561.060240963855,3400.746987951807,1313.3614457831325,11
2024-06-14 18:09:43,-0.05864306539,-0.01221730467,-0.00244346098,-0.9481038451,-10.09395409,0.3782838583,44.69565217391305,122.52173913043478,86.26086956521739,-7739.130434782609,3397.7391304347825,1321.9565217391305,11
2024-06-14 18:09:43,-0.05864306539,-0.01221730467,-0.00244346098,-0.9481038451,-10.09395409,0.3782838583,70.32558139534883,-95.6046511627907,36.88372093023256,-7572.325581395349,3371.2558139534885,1303.2790697674418,11
2024-06-14 18:09:43,0.009773843922,-0.04276056588,-0.04642575979,-0.9911994934,-10.24000072,0.323217243,44.03409090909091,93.1590909090909,93.0,-7794.943181818182,3381.840909090909,1306.1477272727273,11
2024-06-14 18:09:43,-0.03054326214,0.02809980139,-0.004886921961,-0.9792284966,-9.880870819,0.09576806426,97.32558139534883,-67.6046511627907,28.86046511627907,-7779.441860465116,3406.7906976744184,1302.5116279069769,11
2024-06-14 18:09:43,-0.03054326214,0.02809980139,-0.004886921961,-0.9792284966,-9.880870819,0.09576806426,-287.46153846153845,-66.53846153846153,-263.0769230769231,-7579.461538461538,3380.153846153846,1081.5384615384614,11
2024-06-14 18:09:43,0.04031710699,0.04398229718,0.03298672289,-1.060631394,-9.301473618,-0.05985504389,-292.85393258426967,114.37078651685393,74.32584269662921,-7658.011235955056,3354.7865168539324,1291.629213483146,11
2024-06-14 18:09:43,-0.1087340117,0.06230825558,-0.0109955743,-0.7805097699,-10.28070164,0.3543418646,67.51724137931035,20.103448275862064,45.37931034482759,-7557.482758620689,3341.655172413793,1303.448275862069,11
2024-06-14 18:09:44,-0.1087340117,0.06230825558,-0.0109955743,-0.7805097699,-10.28070164,0.3543418646,44.55555555555556,-119.0,80.55555555555556,-7579.777777777777,3375.222222222222,1139.7777777777778,11
2024-06-14 18:09:44,-0.02565634064,0.2015855312,0.1563815027,-0.9121908545,-9.691728592,0.06943184882,-25.340909090909093,107.95454545454544,96.70454545454544,-7573.647727272727,3343.693181818182,1302.7386363636365,11
2024-06-14 18:09:44,-0.02565634064,0.2015855312,0.1563815027,-0.9121908545,-9.691728592,0.06943184882,99.29545454545456,122.0,72.68181818181819,-7568.75,3396.204545454545,1297.3863636363635,11
2024-06-14 18:09:44,0.02076941915,0.2113593817,0.1075122803,-1.125274777,-10.33816338,-0.5650315881,58.69662921348315,100.26966292134831,52.70786516853933,-7556.438202247191,3388.179775280899,1311.2808988764043,11
2024-06-14 18:09:44,-0.004886921961,-0.1050688252,-0.1026253626,-0.5937620401,-10.41238308,0.9002198577,87.46327683615819,-108.78531073446328,66.24858757062147,-7561.983050847458,3381.64406779661,1314.033898305085,11
2024-06-14 18:09:44,-0.09773843735,0.1295034289,0.06597344577,-0.5770025849,-10.05325317,-0.6631938815,58.97674418604651,-73.27906976744185,62.88372093023256,-7579.209302325581,3345.93023255814,1307.2325581395348,11
2024-06-14 18:09:44,0.2895501256,-0.1649336219,-0.2028072625,-1.051054597,-9.854534149,-0.07422025502,96.0,100.47727272727272,60.80681818181818,-7569.943181818182,3378.693181818182,1300.7727272727273,11
2024-06-14 18:09:44,0.2895501256,-0.1649336219,-0.2028072625,-1.051054597,-9.854534149,-0.07422025502,57.0,120.0,95.0,-7556.571428571428,3369.1428571428573,1316.857142857143,11
2024-06-14 18:09:44,0.1221730486,-0.07086037099,0.01832595654,-0.739808321,-9.861717224,0.5602431893,51.083333333333336,19.72619047619048,50.035714285714285,-7564.511904761905,3375.964285714286,1303.7619047619048,11
2024-06-14 18:09:45,0.1221730486,-0.07086037099,0.01832595654,-0.739808321,-9.861717224,0.5602431893,48.85869565217392,-40.45652173913044,72.70652173913044,-7800.641304347826,3346.0,1319.3260869565215,11
2024-06-14 18:09:45,0.1624901593,0.04520402849,-0.006108652335,-0.6679822803,-10.10353088,1.110909581,107.34482758620688,-87.52873563218391,97.57471264367815,-7569.436781609195,3391.103448275862,1304.896551724138,11
2024-06-14 18:09:45,0.2809980214,-0.106290549,0.1576032341,-1.137245774,-9.320627213,1.146822572,60.82417582417583,-101.13186813186812,78.2967032967033,-7565.43956043956,3388.098901098901,1305.2307692307693,11
2024-06-14 18:09:45,0.2809980214,-0.106290549,0.1576032341,-1.137245774,-9.320627213,1.146822572,70.5,-112.0,50.5,-7559.5,3383.0,1289.5,11
2024-06-14 18:09:45,0.03176499158,0.03909537569,-0.1319468915,-1.017535686,-9.933543205,1.881842494,57.17777777777778,-85.78888888888889,83.9,-7568.366666666667,3361.911111111111,1010.1222222222224,11
2024-06-14 18:09:45,0.1893682331,-0.00122173049,0.0,-0.9313444495,-9.967061996,1.606509328,70.93181818181819,64.10227272727272,76.7159090909091,-7567.659090909091,3390.715909090909,1013.8636363636364,11
2024-06-14 18:09:45,0.1893682331,-0.00122173049,0.0,-0.9313444495,-9.967061996,1.606509328,46.81818181818182,-116.9431818181818,58.71590909090909,-7574.409090909091,3383.125,1283.1704545454545,11
2024-06-14 18:09:45,-0.07696902007,0.0109955743,0.006108652335,-0.7422025204,-9.981427193,1.778891921,50.0,1.6363636363636402,43.81818181818182,-7701.636363636364,3375.090909090909,1134.4545454545455,11
2024-06-14 18:09:45,-0.07696902007,0.0109955743,0.006108652335,-0.7422025204,-9.981427193,1.778891921,62.54736842105263,-8.863157894736844,53.705263157894734,-7711.831578947368,3371.8315789473686,1289.357894736842,11
2024-06-14 18:09:45,0.03176499158,0.01954768784,-0.01343903504,-0.9121908545,-9.646238327,1.59693253,56.170731707317074,-46.414634146341456,43.68292682926829,-7644.024390243902,3375.0975609756097,1293.658536585366,11
2024-06-14 18:09:46,-0.03054326214,-0.01466076635,-0.01588249579,-0.7517793179,-9.88805294,1.697489023,32.247191011235955,124.58426966292134,45.82022471910112,-7753.662921348315,3350.8651685393256,1293.191011235955,11
2024-06-14 18:09:46,-0.03054326214,-0.01466076635,-0.01588249579,-0.7517793179,-9.88805294,1.697489023,76.0,-103.7,92.9,-7571.8,3384.3,1289.3,11
2024-06-14 18:09:46,0.03054326214,-0.02199114859,0.05375614017,-0.7541735172,-9.727641106,1.946485996,47.38620689655173,-117.6896551724138,64.50344827586207,-7588.062068965517,3390.76551724138,1115.7862068965517,11
2024-06-14 18:09:46,0.006108652335,0.02199114859,0.03176499158,-0.9337386489,-9.689333916,1.704671621,20.816091954022987,-111.44827586206895,25.82758620689655,-7559.091954022989,3353.632183908046,1290.4597701149426,11
2024-06-14 18:09:46,0.006108652335,0.02199114859,0.03176499158,-0.9337386489,-9.689333916,1.704671621,62.333333333333336,-112.77777777777776,55.0,-7574.444444444444,3342.333333333333,1294.4444444444443,11
2024-06-14 18:09:46,-0.06597344577,-0.0232128799,-0.02443460934,-0.806845963,-9.871294022,1.723825216,64.6590909090909,122.01136363636364,64.30681818181819,-7574.363636363636,3363.329545454545,1291.659090909091,11
2024-06-14 18:09:46,-0.06597344577,-0.0232128799,-0.02443460934,-0.806845963,-9.871294022,1.723825216,60.72727272727273,-11.909090909090908,64.9090909090909,-7582.454545454545,3360.5454545454545,1293.1818181818182,11
2024-06-14 18:09:46,-0.08307767659,0.02443460934,0.03298672289,-0.5722141862,-9.928754807,1.714248419,54.11627906976744,107.4186046511628,58.83720930232558,-7571.395348837209,3353.8837209302324,1292.3953488372092,11
2024-06-14 18:09:46,0.01588249579,0.0293215327,0.008552113548,-0.9816226959,-9.765948296,1.515529633,97.06382978723404,94.3191489361702,73.40425531914893,-7558.63829787234,3375.936170212766,1298.0,11
2024-06-14 18:09:46,0.01588249579,0.0293215327,0.008552113548,-0.9816226959,-9.765948296,1.515529633,36.34939759036145,120.13253012048192,42.16867469879518,-7576.265060240964,3343.5542168674697,1310.3493975903614,11
2024-06-14 18:09:47,-0.05619960278,0.009773843922,0.01343903504,-0.7062895298,-9.806650162,1.946485996,40.56521739130434,111.6413043478261,53.81521739130434,-7570.869565217391,3334.543478260869,1318.1304347826087,11
2024-06-14 18:09:47,-0.007330383174,0.02443460934,-0.04764748737,-0.7781155705,-10.00536919,1.503558636,44.91304347826087,100.22826086956522,70.66304347826087,-7562.173913043478,3329.108695652174,1326.8260869565215,11
2024-06-14 18:09:47,-0.007330383174,0.02443460934,-0.04764748737,-0.7781155705,-10.00536919,1.503558636,46.875,120.0,58.875,-7597.875,3357.25,1303.625,11
2024-06-14 18:09:47,-0.08796459436,0.009773843922,0.007330383174,-0.586579442,-9.971850395,1.628057122,47.53191489361702,-64.14893617021276,64.48936170212765,-7568.787234042553,3338.7021276595747,1294.4255319148936,11
2024-06-14 18:09:47,-0.08796459436,0.009773843922,0.007330383174,-0.586579442,-9.971850395,1.628057122,59.76923076923077,-123.92307692307692,68.46153846153847,-7575.076923076923,3353.769230769231,1290.1538461538462,11
2024-06-14 18:09:47,-0.03787364438,-0.00122173049,0.00122173049,-0.6344634295,-9.935936928,1.568202138,53.09090909090909,-123.8181818181818,80.9090909090909,-7572.909090909091,3353.454545454545,1295.8181818181818,11
2024-06-14 18:09:47,-0.01466076635,-0.008552113548,-0.009773843922,-0.6679822803,-9.947908401,1.594538331,78.06896551724138,-120.79310344827586,80.44827586206897,-7569.206896551724,3359.172413793104,1302.551724137931,11
2024-06-14 18:09:47,-0.01466076635,-0.008552113548,-0.009773843922,-0.6679822803,-9.947908401,1.594538331,37.325581395348834,-118.25581395348836,65.6046511627907,-7661.046511627906,3364.860465116279,1288.3488372093022,11
2024-06-14 18:09:47,-0.08796459436,-0.003665191587,-0.06108652428,-0.6991068721,-10.00058079,1.522712231,54.26315789473684,-17.315789473684205,71.0,-7580.368421052632,3363.6315789473683,1291.1052631578948,11
2024-06-14 18:09:47,0.1600466967,0.08185594529,-0.145385921,-0.4644751251,-8.853757858,1.714248419,74.11111111111111,90.22222222222224,77.44444444444444,-7563.777777777777,3367.111111111112,1293.6666666666667,11
2024-06-14 18:09:48,0.1600466967,0.08185594529,-0.145385921,-0.4644751251,-8.853757858,1.714248419,32.434782608695656,-118.54347826086956,78.34782608695653,-7576.0,3335.217391304348,1316.5217391304348,11
2024-06-14 18:09:48,0.04764748737,-0.01832595654,-0.04642575979,-0.4333505034,-10.03888798,1.429338455,91.6818181818182,-83.43181818181819,95.5909090909091,-7573.681818181818,3385.0,1289.340909090909,11
2024-06-14 18:09:48,0.04764748737,-0.01832595654,-0.04642575979,-0.4333505034,-10.03888798,1.429338455,55.60869565217392,116.0,65.17391304347827,-7573.260869565217,3379.978260869565,1293.195652173913,11
2024-06-14 18:09:48,-0.1490511149,-0.0171042271,-0.03420845419,-0.6488286853,-9.979032516,1.292868972,48.333333333333336,45.33333333333333,66.33333333333333,-7724.0,3361.333333333333,1294.3333333333333,11
2024-06-14 18:09:48,0.2003637999,0.08307767659,0.0171042271,-0.5099649429,-9.217676163,1.532289028,64.18579234972678,-112.40437158469943,69.34426229508196,-7567.0,3369.0,1230.0765027322404,11
2024-06-14 18:09:48,0.2003637999,0.08307767659,0.0171042271,-0.5099649429,-9.217676163,1.532289028,69.65027322404372,-118.4153005464481,67.70491803278688,-7567.0,3369.0,1085.2677595628415,11
2024-06-14 18:09:48,-0.008552113548,-0.02199114859,0.0,-0.2705447972,-10.06761837,1.340752959,57.8,-31.349999999999994,50.2,-7569.55,3354.85,1292.9,11
2024-06-14 18:09:48,-0.008552113548,-0.03787364438,-0.0171042271,-0.5458779931,-10.04846478,1.41257906,39.05494505494505,-115.7912087912088,32.67032967032967,-7563.296703296703,3337.5494505494507,1302.9120879120878,11
2024-06-14 18:09:48,-0.008552113548,-0.03787364438,-0.0171042271,-0.5458779931,-10.04846478,1.41257906,72.79545454545455,114.92045454545456,104.7159090909091,-7563.125,3375.1022727272725,1289.0,11
2024-06-14 18:09:49,-0.007330383174,0.0171042271,0.07819075137,-0.5291185975,-10.16338634,1.209071875,48.241379310344826,80.82758620689656,68.27586206896552,-7772.724137931034,3336.172413793104,1296.7586206896551,11
2024-06-14 18:09:49,-0.01588249579,-0.004886921961,-0.03054326214,-0.4836287498,-10.00536919,1.333570361,96.6086956521739,122.54347826086956,77.34782608695652,-7583.717391304348,3369.945652173913,1295.6847826086955,11
2024-06-14 18:09:49,-0.00122173049,0.03176499158,0.0,-0.5458779931,-9.885659218,1.285686255,82.0,114.0,64.66666666666667,-7571.333333333333,3367.6666666666665,1302.0,11
2024-06-14 18:09:49,-0.00122173049,0.03176499158,0.0,-0.5458779931,-9.885659218,1.285686255,50.144444444444446,6.211111111111109,92.92222222222222,-7803.633333333333,3373.988888888889,1295.1,11
2024-06-14 18:09:49,-0.1050688252,0.02809980139,0.08918632567,-0.3591302633,-10.53688145,1.584961534,62.79310344827586,-98.27586206896552,79.67816091954023,-7561.045977011494,3359.4712643678163,1295.4022988505749,11
2024-06-14 18:09:49,0.0171042271,-0.05497787148,-0.0171042271,-0.3878606856,-9.902418137,1.422155857,37.84782608695652,-96.08695652173913,78.80434782608695,-7573.695652173913,3371.108695652174,1194.2391304347825,11
2024-06-14 18:09:49,0.0171042271,-0.05497787148,-0.0171042271,-0.3878606856,-9.902418137,1.422155857,57.13259668508287,-124.12707182320442,52.3756906077348,-7570.386740331492,3360.8839779005525,1116.3149171270718,11
2024-06-14 18:09:49,-0.0354301855,-0.0171042271,0.00122173049,-0.6440402865,-10.0412817,1.22583127,61.54545454545455,26.181818181818187,57.81818181818182,-7572.681818181818,3361.2272727272725,1185.909090909091,11
2024-06-14 18:09:49,-0.0354301855,-0.0171042271,0.00122173049,-0.6440402865,-10.0412817,1.22583127,64.04918032786885,97.96174863387978,72.90163934426229,-7580.890710382514,3374.03825136612,1288.51912568306,11
2024-06-14 18:09:49,-0.01343903504,0.01343903504,0.06597344577,-0.5410895944,-10.00536919,1.209071875,68.9672131147541,94.13661202185791,63.0655737704918,-7569.96174863388,3377.863387978142,1140.431693989071,11
2024-06-14 18:09:50,-0.03787364438,0.03298672289,0.04642575979,-0.586579442,-9.955090523,1.331176162,45.7375,106.1125,64.575,-7557.675,3332.8125,1297.0,11
2024-06-14 18:09:50,-0.03787364438,0.03298672289,0.04642575979,-0.586579442,-9.955090523,1.331176162,83.0,-112.0,88.0,-7567.666666666667,3367.333333333333,1298.0,11
2024-06-14 18:09:50,-0.02443460934,0.0232128799,0.01832595654,-0.5650315881,-9.868899345,1.482010841,50.56976744186046,-14.593023255813948,62.0,-7584.558139534884,3369.4186046511627,1017.4302325581396,11
2024-06-14 18:09:50,0.03665191308,-0.01832595654,-0.01954768784,-0.6129156351,-9.773131371,1.467645645,54.01123595505618,-15.393258426966298,55.69662921348315,-7570.258426966292,3357.4044943820227,1173.865168539326,11
2024-06-14 18:09:50,0.03665191308,-0.01832595654,-0.01954768784,-0.6129156351,-9.773131371,1.467645645,58.355555555555554,-114.9,93.26666666666668,-7564.511111111111,3351.677777777778,1284.0666666666666,11
2024-06-14 18:09:50,0.04642575979,-0.007330383174,0.00244346098,-0.5530605912,-9.686940193,1.41018486,75.3409090909091,77.54545454545453,74.02272727272727,-7595.386363636364,3361.181818181818,1281.0227272727273,11
2024-06-14 18:09:50,0.04642575979,-0.007330383174,0.00244346098,-0.5530605912,-9.686940193,1.41018486,68.06451612903226,108.91935483870968,80.56451612903226,-7571.129032258064,3379.1774193548385,1126.758064516129,11
2024-06-14 18:09:50,0.02443460934,-0.0109955743,-0.006108652335,-0.6081272364,-9.844957352,1.37427175,50.86021505376344,113.75806451612902,80.02688172043011,-7570.05376344086,3381.8655913978496,1274.6075268817203,11
2024-06-14 18:09:50,-0.007330383174,-0.00122173049,0.00244346098,-0.586579442,-9.96466732,1.290474772,47.49382716049383,-113.90123456790124,111.30864197530865,-7569.259259259259,3354.098765432099,1013.6543209876544,11
2024-06-14 18:09:50,-0.007330383174,-0.00122173049,0.00244346098,-0.586579442,-9.96466732,1.290474772,59.80898876404494,65.31460674157304,53.17977528089887,-7747.7191011235955,3383.3370786516853,1003.5955056179776,11
2024-06-14 18:09:51,-0.05253441259,0.03787364438,0.02199114859,-0.5626373887,-9.880870819,1.383848548,52.69662921348315,-38.67415730337079,52.03370786516854,-7579.966292134832,3347.550561797753,1100.1797752808989,11
2024-06-14 18:09:51,-0.01588249579,0.00122173049,-0.01466076635,-0.5937620401,-9.842563629,1.446097851,57.178378378378376,102.14054054054054,43.76756756756757,-7587.551351351351,3269.427027027027,1222.5189189189189,11
2024-06-14 18:09:51,-0.01588249579,0.00122173049,-0.01466076635,-0.5937620401,-9.842563629,1.446097851,66.6701030927835,91.21649484536084,56.45360824742268,-7576.092783505154,3184.814432989691,1138.360824742268,11
2024-06-14 18:09:51,0.02199114859,-0.0293215327,0.01221730467,-0.5674257874,-9.897629738,1.357512355,96.8125,110.375,75.875,-7701.875,3358.125,1295.25,11
2024-06-14 18:09:51,0.02199114859,-0.0293215327,0.01221730467,-0.5674257874,-9.897629738,1.357512355,93.80882352941175,26.8529411764706,61.4264705882353,-7700.058823529412,3366.5,1177.1617647058824,11
2024-06-14 18:09:51,-0.05742133409,-0.0171042271,-0.03176499158,-0.4860229492,-10.0412817,1.460463047,47.18918918918919,34.67567567567568,54.86486486486486,-7586.621621621622,3364.5945945945946,1005.2972972972972,11
2024-06-14 18:09:51,-0.106290549,0.0109955743,0.0,-0.490811348,-10.23042393,1.180341482,71.5,-114.0,93.5,-7691.5,3337.5,1011.0,11
2024-06-14 18:09:51,-0.106290549,0.0109955743,0.0,-0.490811348,-10.23042393,1.180341482,54.38636363636363,68.9090909090909,65.04545454545455,-7618.090909090909,3383.204545454545,1022.181818181818,11
2024-06-14 18:09:51,0.05864306539,0.006108652335,0.0293215327,-0.5746083856,-9.809044838,1.345541358,54.35955056179776,-193.5842696629213,91.87640449438204,-7569.044943820225,3362.0,1318.6516853932585,11
2024-06-14 18:09:51,-0.009773843922,-0.05131268129,-0.09407325089,-0.181959331,-10.3261919,1.790862918,62.16666666666666,76.76666666666667,65.07777777777778,-7708.8,3254.5222222222224,1316.2333333333331,11
2024-06-14 18:09:52,-0.009773843922,-0.05131268129,-0.09407325089,-0.181959331,-10.3261919,1.790862918,8.545454545454547,97.8181818181818,-7.75,-7575.5,3211.1363636363635,1317.0454545454545,11
2024-06-14 18:09:52,-0.05497787148,-0.01221730467,-0.009773843922,-0.6153098345,-9.981427193,1.182735682,-320.4186046511628,-47.69767441860465,8.558139534883722,-7720.3488372093025,3424.488372093024,1287.8837209302326,11
2024-06-14 18:09:52,-0.05497787148,-0.01221730467,-0.009773843922,-0.6153098345,-9.981427193,1.182735682,-58.20224719101122,298.1123595505618,56.13483146067416,-7589.853932584269,3137.0561797752807,990.494382022472,11
2024-06-14 18:09:52,-0.1368338168,0.009773843922,0.02076941915,-0.4046200812,-10.17056847,1.132457376,236.7555555555556,-152.0,95.13333333333333,-7644.544444444445,3322.0,997.2,11
2024-06-14 18:09:52,-0.007330383174,0.0109955743,0.007330383174,-0.5698199868,-9.799467087,1.18752408,-68.66292134831463,-176.7865168539326,-94.1123595505618,-7776.730337078651,3269.14606741573,1334.808988764045,11
2024-06-14 18:09:52,-0.00244346098,0.02565634064,0.02199114859,-0.653617084,-9.99100399,1.017535686,1081.4673913043478,68.34782608695653,-568.6086956521739,-7975.173913043478,3197.413043478261,993.1521739130436,11
2024-06-14 18:09:52,-0.03054326214,0.01588249579,-0.0109955743,-0.5746083856,-9.959878922,1.055842996,-280.986301369863,-731.3561643835617,15.47945205479452,-7658.260273972603,3197.5616438356165,1211.7260273972602,11
2024-06-14 18:09:52,-0.03054326214,0.01588249579,-0.0109955743,-0.5746083856,-9.959878922,1.055842996,-381.06382978723406,170.7659574468085,-170.87234042553192,-7504.489361702128,3067.68085106383,1482.872340425532,11
2024-06-14 18:09:52,-0.0171042271,-0.00122173049,-0.0354301855,-0.4141969085,-9.911994934,1.307234168,-386.69879518072287,602.5180722891566,-240.1686746987952,-7601.469879518072,3018.759036144578,1342.9156626506024,11
2024-06-14 18:09:53,-0.0171042271,-0.00122173049,-0.0354301855,-0.4141969085,-9.911994934,1.307234168,-467.96629213483146,475.4044943820225,-290.5730337078652,-8010.786516853933,2905.348314606741,982.505617977528,11
2024-06-14 18:09:53,-0.05986479297,0.04398229718,0.02809980139,-0.5530605912,-9.909601212,1.118092179,339.0,63.09090909090909,89.22727272727272,-7977.727272727273,2970.2727272727275,1062.1363636363635,11
2024-06-14 18:09:53,-0.03420845419,-0.01343903504,-0.02687807009,-0.3974374831,-10.10592556,1.051054597,-11.681318681318658,-458.1978021978022,210.02197802197804,-7681.142857142857,3346.824175824176,957.043956043956,11
2024-06-14 18:09:53,-0.03420845419,-0.01343903504,-0.02687807009,-0.3974374831,-10.10592556,1.051054597,-470.0337078651685,329.3707865168539,-4.606741573033702,-7689.471910112359,3379.955056179775,1300.112359550562,11
2024-06-14 18:09:53,0.006108652335,-0.01832595654,-0.02199114859,-0.5219359994,-10.05804157,1.185129881,-170.10000000000002,1137.9222222222222,-853.2888888888889,-7689.777777777777,3102.277777777778,923.8555555555556,11
2024-06-14 18:09:53,0.1209513173,-0.0109955743,0.03420845419,-0.6344634295,-10.06282997,1.120486379,-17.943181818181817,1268.1931818181818,-868.4318181818181,-7957.0,2538.159090909091,579.7045454545455,11
2024-06-14 18:09:53,0.1209513173,-0.0109955743,0.03420845419,-0.6344634295,-10.06282997,1.120486379,-52.81818181818182,474.5,-450.4090909090909,-8288.636363636364,2593.2727272727275,223.5909090909091,11
2024-06-14 18:09:53,-0.1221730486,0.02199114859,-0.009773843922,-0.390254885,-9.780313492,1.295263171,172.0,-273.97727272727275,-48.76136363636364,-8246.181818181818,2464.6136363636365,569.4886363636364,11
2024-06-14 18:09:53,-0.1221730486,0.02199114859,-0.009773843922,-0.390254885,-9.780313492,1.295263171,119.31521739130434,-388.3478260869565,57.47826086956522,-7976.021739130435,2637.108695652174,530.1413043478261,11
2024-06-14 18:09:53,0.03909537569,-0.0232128799,-0.05375614017,-0.4668693244,-9.931148529,1.132457376,-355.8260869565217,-240.95652173913044,-111.69565217391305,-7832.95652173913,2442.1304347826085,787.5217391304348,11
2024-06-14 18:09:54,0.006108652335,0.02687807009,0.09040805697,-0.5267243981,-10.03409958,1.060631394,-310.31325301204816,70.13253012048193,-70.144578313253,-7999.807228915663,2482.722891566265,791.722891566265,11
2024-06-14 18:09:54,0.006108652335,0.02687807009,0.09040805697,-0.5267243981,-10.03409958,1.060631394,-34.88505747126436,-43.94252873563219,-77.37931034482759,-8018.183908045977,2540.1609195402298,468.86206896551727,11
2024-06-14 18:09:54,0.0109955743,-0.00122173049,0.0,-0.4788403511,-10.14183807,1.039083481,105.7,53.8,339.9,-7902.3,2756.8,415.2,11
2024-06-14 18:09:54,-0.01221730467,0.01221730467,0.0171042271,-0.6009446383,-9.957485199,1.177947283,-352.5,-167.5,77.0,-8002.5,2883.0,704.25,11
2024-06-14 18:09:54,-0.01221730467,0.01221730467,0.0171042271,-0.6009446383,-9.957485199,1.177947283,20.94117647058824,82.58823529411765,-283.18823529411765,-7945.811764705882,2825.1176470588234,818.7058823529412,11
2024-06-14 18:09:54,-0.003665191587,0.01221730467,0.009773843922,-0.5722141862,-9.864110947,1.271321058,71.9090909090909,-17.318181818181813,90.4090909090909,-7891.136363636364,2859.454545454545,843.2272727272727,11
2024-06-14 18:09:54,-0.003665191587,0.01221730467,0.009773843922,-0.5722141862,-9.864110947,1.271321058,48.11904761904762,-170.20238095238096,-86.17857142857143,-7678.297619047619,2859.0714285714284,846.3571428571429,11
2024-06-14 18:09:54,0.04886921868,-0.01588249579,-0.008552113548,-0.5793967843,-9.92636013,1.244984865,13.45054945054945,23.912087912087912,-132.2967032967033,-7741.175824175824,2836.648351648352,856.7472527472528,11
2024-06-14 18:09:54,0.01588249579,0.0171042271,0.02443460934,-0.6009446383,-10.0317049,1.221042871,-114.77906976744184,27.197674418604663,-115.56976744186046,-7936.104651162791,2835.0348837209303,837.7093023255813,11
2024-06-14 18:09:54,0.01588249579,0.0171042271,0.02443460934,-0.6009446383,-10.0317049,1.221042871,-31.056179775280896,118.21348314606742,72.34831460674158,-8020.449438202248,2874.921348314607,815.1910112359551,11
2024-06-14 18:09:55,-0.04276056588,0.01221730467,0.003665191587,-0.5626373887,-10.08677197,1.230619669,79.24705882352941,-199.2470588235294,73.25882352941176,-7826.305882352941,2863.0470588235294,860.5058823529412,11
2024-06-14 18:09:55,-0.04398229718,0.0171042271,0.0232128799,-0.5937620401,-9.895236015,1.314416766,115.16853932584269,-351.3932584269663,-109.561797752809,-7974.494382022472,2875.2696629213483,683.2022471910112,11
2024-06-14 18:09:55,-0.04398229718,0.0171042271,0.0232128799,-0.5937620401,-9.895236015,1.314416766,-91.23595505617978,-17.43820224719101,59.438202247191015,-8039.23595505618,2890.494382022472,645.4269662921348,11
2024-06-14 18:09:55,-0.006108652335,0.01466076635,0.0171042271,-0.5770025849,-9.885659218,1.343147159,-305.1931818181818,-117.4090909090909,91.63636363636364,-8052.886363636364,2861.204545454545,886.9204545454545,11
2024-06-14 18:09:55,-0.006108652335,0.01466076635,0.0171042271,-0.5770025849,-9.885659218,1.343147159,-122.23863636363636,5.318181818181813,100.72727272727272,-8036.977272727273,2849.840909090909,885.7840909090909,11
2024-06-14 18:09:55,-0.007330383174,-0.00244346098,0.01466076635,-0.5363011956,-9.931148529,1.326387763,-41.44186046511628,-112.72093023255816,34.90697674418605,-8024.627906976744,2911.8255813953488,863.2325581395348,11
2024-06-14 18:09:55,0.01343903504,-0.00122173049,0.003665191587,-0.5961562395,-9.904812813,1.347935557,80.51162790697674,104.02325581395348,107.44186046511628,-8038.930232558139,2918.186046511628,875.5813953488372,11
2024-06-14 18:09:55,0.01343903504,-0.00122173049,0.003665191587,-0.5961562395,-9.904812813,1.347935557,-111.96703296703296,-2.120879120879124,52.91208791208791,-7999.153846153846,2855.6153846153848,877.3956043956044,11
2024-06-14 18:09:55,0.01343903504,-0.00122173049,0.004886921961,-0.5626373887,-9.92636013,1.359906554,-34.33333333333334,-84.0,89.33333333333333,-8033.333333333333,2878.0,877.0,11
2024-06-14 18:09:55,0.00122173049,0.00244346098,0.004886921961,-0.55784899,-9.797073364,1.379060149,22.49438202247191,86.25842696629213,-82.82022471910112,-8016.247191011236,2889.85393258427,865.370786516854,11
2024-06-14 18:09:56,0.00122173049,0.00244346098,0.004886921961,-0.55784899,-9.797073364,1.379060149,79.80412371134021,-80.94845360824743,10.484536082474222,-7994.350515463918,2929.19587628866,877.4536082474227,11
2024-06-14 18:09:56,0.007330383174,0.0,0.00244346098,-0.6344634295,-9.923966408,1.278503656,80.76315789473685,-89.22368421052632,32.5921052631579,-8007.6973684210525,2928.9736842105262,862.8421052631579,11
2024-06-14 18:09:56,0.007330383174,0.0,0.00244346098,-0.6344634295,-9.923966408,1.278503656,-238.18604651162792,-112.06976744186046,95.86046511627907,-8008.860465116279,2887.0,867.0930232558139,11
2024-06-14 18:09:56,0.006108652335,0.008552113548,0.02443460934,-0.6033388376,-9.856928825,1.331176162,-75.16129032258064,-70.29032258064515,51.774193548387096,-8026.677419354839,2865.2258064516127,840.3225806451613,11
2024-06-14 18:09:56,0.00244346098,0.0,0.0109955743,-0.6320692301,-9.96466732,1.302445769,-18.488636363636367,113.9943181818182,69.9090909090909,-8027.698863636364,2937.8522727272725,849.3068181818181,11
2024-06-14 18:09:56,0.00244346098,0.0,0.0109955743,-0.6320692301,-9.96466732,1.302445769,-115.9795918367347,119.0,92.28571428571428,-8014.408163265306,2925.3673469387754,857.6326530612245,11
2024-06-14 18:09:56,-0.0171042271,-0.00244346098,-0.0109955743,-0.5195417404,-10.01255131,1.302445769,89.89855072463769,-115.56521739130434,43.072463768115945,-8020.028985507246,2917.8840579710145,850.9710144927536,11
2024-06-14 18:09:56,-0.03054326214,0.007330383174,-0.006108652335,-0.6344634295,-9.84974575,1.247379065,46.95652173913044,89.1086956521739,61.369565217391305,-8015.369565217391,2906.478260869565,864.5217391304348,11
2024-06-14 18:09:56,-0.03054326214,0.007330383174,-0.006108652335,-0.6344634295,-9.84974575,1.247379065,80.13636363636364,-111.5340909090909,68.18181818181819,-8017.465909090909,2916.25,868.4886363636364,11
2024-06-14 18:09:56,-0.02199114859,0.0,-0.007330383174,-0.653617084,-9.840168953,1.343147159,70.98876404494382,90.49438202247192,83.02247191011236,-8019.269662921349,2919.179775280899,853.6179775280899,11
2024-06-14 18:09:57,-0.02199114859,0.0,-0.007330383174,-0.653617084,-9.840168953,1.343147159,38.96666666666667,-116.04444444444444,60.144444444444446,-8013.955555555555,2915.9333333333334,859.0666666666667,11
2024-06-14 18:09:57,-0.03909537569,0.00244346098,0.00122173049,-0.5746083856,-9.809044838,1.369483352,37.83908045977012,-121.34482758620688,62.6551724137931,-8020.114942528736,2896.735632183908,872.3103448275862,11
2024-06-14 18:09:57,0.00122173049,-0.0171042271,-0.01466076635,-0.5650315881,-10.11310768,1.391031146,74.03488372093024,115.01162790697674,62.33720930232558,-8017.441860465116,2927.546511627907,848.1046511627907,11
2024-06-14 18:09:57,0.00122173049,-0.0171042271,-0.01466076635,-0.5650315881,-10.11310768,1.391031146,42.06896551724138,123.58620689655172,69.58620689655173,-8026.379310344828,2897.137931034483,864.1034482758621,11
2024-06-14 18:09:57,0.008552113548,-0.02687807009,-0.01343903504,-0.6129156351,-9.923966408,1.563413739,84.15384615384616,105.6923076923077,66.23076923076923,-8014.153846153846,2915.769230769231,851.2307692307693,11
2024-06-14 18:09:57,0.03298672289,-0.009773843922,-0.0171042271,-0.6177040339,-9.931148529,1.572990537,91.5,91.5,81.5,-8018.0,2929.0,870.5,11
2024-06-14 18:09:57,0.03298672289,-0.009773843922,-0.0171042271,-0.6177040339,-9.931148529,1.572990537,49.29585798816568,111.2603550295858,46.023668639053255,-8009.556213017751,2901.763313609468,877.6804733727811,11
2024-06-14 18:09:57,0.004886921961,0.02199114859,-0.01343903504,-0.5434837937,-9.770736694,1.546654344,45.74556213017752,120.13609467455622,37.73964497041421,-8014.881656804734,2884.603550295858,889.5147928994082,11
2024-06-14 18:09:57,0.004886921961,0.02199114859,-0.01343903504,-0.5434837937,-9.770736694,1.546654344,-79.69999999999999,-112.7,-100.4,-8034.0,2923.9,885.9,11
2024-06-14 18:09:57,0.0171042271,0.01221730467,0.02809980139,-0.5841852427,-9.840168953,1.618480325,-13.196891191709838,-7.176165803108802,-125.43005181347152,-8026.989637305699,2826.9896373056995,875.0362694300518,11
2024-06-14 18:09:58,-0.07574728876,0.008552113548,-0.007330383174,-0.5722141862,-9.950302124,1.659181833,80.06735751295338,107.84974093264248,-126.98445595854922,-8016.108808290155,2716.108808290156,863.119170984456,11
2024-06-14 18:09:58,-0.07574728876,0.008552113548,-0.007330383174,-0.5722141862,-9.950302124,1.659181833,75.29268292682927,-95.36585365853658,89.53658536585365,-8017.719512195122,2916.378048780488,855.719512195122,11
2024-06-14 18:09:58,0.00122173049,0.00244346098,0.02565634064,-0.4955997467,-9.761159897,1.625662923,53.54545454545455,-121.72727272727272,80.95454545454545,-8016.590909090909,2698.568181818182,844.3181818181819,11
2024-06-14 18:09:58,0.03298672289,-0.01588249579,-0.006108652335,-0.4668693244,-10.14183807,1.601720929,69.44444444444444,119.66666666666669,59.888888888888886,-8010.0,2937.777777777778,855.0,11
2024-06-14 18:09:58,0.03298672289,-0.01588249579,-0.006108652335,-0.4668693244,-10.14183807,1.601720929,53.37777777777778,115.91111111111113,94.97777777777776,-7983.488888888889,2693.088888888889,857.0222222222222,11
2024-06-14 18:09:58,-0.008552113548,0.0171042271,0.003665191587,-0.5099649429,-9.832986832,1.570596337,67.90697674418604,-111.69767441860463,97.90697674418604,-8023.023255813953,2775.4651162790697,863.2558139534884,11
2024-06-14 18:09:58,-0.008552113548,0.0171042271,0.003665191587,-0.5099649429,-9.832986832,1.570596337,102.8181818181818,74.4090909090909,70.25,-8002.590909090909,2704.7954545454545,847.0,11
2024-06-14 18:09:58,-0.007330383174,0.01221730467,0.02565634064,-0.6847416759,-9.629479408,1.568202138,42.41379310344828,115.82758620689656,65.51724137931035,-7941.264367816092,3053.8735632183907,857.5172413793103,11
2024-06-14 18:09:58,0.09651670605,0.0109955743,0.03054326214,-0.5267243981,-10.18972206,1.484405041,-417.0,276.0,-149.5,-7842.5,2818.5,759.0,11
2024-06-14 18:09:58,0.09651670605,0.0109955743,0.03054326214,-0.5267243981,-10.18972206,1.484405041,-5.55056179775281,51.73033707865169,-96.08988764044943,-8021.022471910112,2937.0224719101125,805.2359550561798,11
2024-06-14 18:09:59,-0.2260201424,-0.007330383174,0.007330383174,-0.3112462163,-10.15141487,1.690306425,-112.73255813953487,-92.55813953488372,266.0,-8009.988372093023,2877.8837209302324,834.6627906976744,11
2024-06-14 18:09:59,0.03909537569,-0.01221730467,0.0,-0.6320692301,-9.816226959,1.570596337,333.1609195402299,114.2528735632184,345.8735632183908,-7979.666666666667,2732.8045977011493,795.6666666666666,11
2024-06-14 18:09:59,0.03909537569,-0.01221730467,0.0,-0.6320692301,-9.816226959,1.570596337,265.82758620689657,-59.55172413793103,191.1034482758621,-7793.0,2759.3793103448274,651.8965517241379,11
2024-06-14 18:09:59,0.0171042271,-0.006108652335,0.03420845419,-0.5985504389,-9.84974575,1.453280449,355.4943820224719,-7.393258426966298,194.2808988764045,-7943.4157303370785,3062.8314606741574,465.2808988764045,11
2024-06-14 18:09:59,0.0171042271,-0.006108652335,0.03420845419,-0.5985504389,-9.84974575,1.453280449,39.04444444444445,54.61111111111112,100.11111111111109,-7951.7,3003.0222222222224,473.8777777777778,11
2024-06-14 18:09:59,0.08674286306,-0.008552113548,0.01466076635,-0.5602431893,-9.773131371,1.446097851,-20.627906976744185,-213.43023255813955,22.90697674418604,-7731.186046511628,2988.1279069767443,732.6046511627907,11
2024-06-14 18:09:59,0.07696902007,-0.01221730467,0.0,-0.6153098345,-9.753977776,1.572990537,-312.1868131868132,12.076923076923094,87.14285714285714,-7781.934065934066,3168.131868131868,802.4505494505495,11
2024-06-14 18:09:59,0.07696902007,-0.01221730467,0.0,-0.6153098345,-9.753977776,1.572990537,-13.255555555555556,-11.6,58.02222222222223,-7991.277777777777,2974.322222222222,450.0777777777778,11
2024-06-14 18:09:59,0.0171042271,0.006108652335,0.02443460934,-0.6560112834,-9.981427193,1.572990537,-4.258823529411764,-272.6941176470588,102.10588235294118,-7980.282352941176,3026.752941176471,480.0,11
2024-06-14 18:09:59,0.00244346098,0.004886921961,0.00122173049,-0.5722141862,-9.832986832,1.59932673,56.63636363636364,-154.3181818181818,69.22727272727272,-7698.909090909091,3152.7272727272725,834.2272727272727,11
2024-06-14 18:10:00,0.00244346098,0.004886921961,0.00122173049,-0.5722141862,-9.832986832,1.59932673,115.73333333333332,148.56666666666666,-93.03333333333332,-7721.477777777778,2957.788888888889,877.2555555555556,11
2024-06-14 18:10:00,-0.01588249579,0.007330383174,-0.006108652335,-0.691924274,-9.88805294,1.735796213,63.19318181818182,429.9886363636364,-22.784090909090907,-7838.556818181818,2968.2613636363635,669.8977272727273,11
2024-06-14 18:10:00,-0.01588249579,0.007330383174,-0.006108652335,-0.691924274,-9.88805294,1.735796213,13.933333333333334,354.6333333333333,47.04444444444445,-8014.822222222222,2967.8777777777777,437.6222222222222,11
2024-06-14 18:10:00,-0.02076941915,0.007330383174,0.02076941915,-0.5339069963,-10.01973438,1.644816518,49.65934065934066,-95.03296703296704,94.73626373626374,-7922.527472527472,2979.934065934066,461.8351648351649,11
2024-06-14 18:10:00,0.004886921961,0.008552113548,0.004886921961,-0.6368576288,-9.900024414,1.642422318,0.9534883720930196,-338.4186046511628,-286.3488372093023,-7893.558139534884,3138.558139534884,881.9302325581396,11
2024-06-14 18:10:00,0.004886921961,0.008552113548,0.004886921961,-0.6368576288,-9.900024414,1.642422318,72.4516129032258,-28.967741935483843,-75.96774193548387,-7729.419354838709,3010.4193548387098,870.0,11
2024-06-14 18:10:00,-0.009773843922,0.0,0.008552113548,-0.5770025849,-9.916783333,1.618480325,-141.86813186813183,525.9230769230769,28.83516483516484,-7668.274725274725,3040.56043956044,497.6043956043956,11
2024-06-14 18:10:00,0.00122173049,0.0109955743,0.02199114859,-0.6560112834,-9.919178009,1.685518026,-68.32954545454545,-258.5681818181818,-243.6818181818182,-7968.568181818182,3106.5113636363635,477.3522727272728,11
2024-06-14 18:10:00,0.00122173049,0.0109955743,0.02199114859,-0.6560112834,-9.919178009,1.685518026,77.38095238095238,32.95238095238095,39.23809523809524,-7728.523809523809,2993.095238095238,814.3333333333334,11
2024-06-14 18:10:00,-0.02076941915,0.008552113548,0.00244346098,-0.6823474765,-9.902418137,1.687912226,156.04123711340208,-9.340206185567013,62.06185567010309,-7978.453608247422,3119.3917525773195,785.7113402061856,11
2024-06-14 18:10:01,-0.02076941915,0.008552113548,0.00244346098,-0.6823474765,-9.902418137,1.687912226,-325.1830985915493,44.77464788732394,-36.436619718309856,-7704.492957746479,3020.5774647887324,863.5352112676056,11
2024-06-14 18:10:01,-0.02565634064,0.003665191587,0.009773843922,-0.6081272364,-9.835380554,1.699883223,-70.46315789473684,194.07368421052632,-150.16842105263157,-7826.810526315789,2972.5684210526315,837.0526315789474,11
2024-06-14 18:10:01,-0.01221730467,-0.006108652335,0.006108652335,-0.6272808313,-9.87608242,1.656787634,-79.12658227848101,6.5316455696202524,-80.73417721518987,-7986.683544303797,2974.6962025316457,491.7721518987342,11
2024-06-14 18:10:01,-0.01221730467,-0.006108652335,0.006108652335,-0.6272808313,-9.87608242,1.656787634,106.3846153846154,-43.75824175824175,42.1978021978022,-7605.384615384615,3110.8571428571427,871.5714285714286,11
2024-06-14 18:10:01,-0.03420845419,-0.00244346098,0.003665191587,-0.6607996821,-9.957485199,1.649604917,-115.29896907216497,-17.164948453608247,98.95876288659794,-7664.536082474226,3014.577319587629,796.2577319587629,11
2024-06-14 18:10:01,-0.004886921961,0.00122173049,0.008552113548,-0.6512228847,-9.84974575,1.697489023,82.25,99.6590909090909,-253.75,-7666.522727272727,3170.6363636363635,805.1590909090909,11
2024-06-14 18:10:01,-0.008552113548,0.003665191587,0.006108652335,-0.6584054828,-9.880870819,1.716642618,54.89887640449438,78.79775280898876,105.49438202247192,-7643.876404494382,3154.123595505618,851.0,11
2024-06-14 18:10:01,-0.008552113548,0.003665191587,0.006108652335,-0.6584054828,-9.880870819,1.716642618,76.19565217391305,94.77173913043478,111.56521739130434,-7645.391304347826,3169.1195652173915,847.9673913043479,11
2024-06-14 18:10:01,-0.007330383174,0.0109955743,0.01954768784,-0.5554547906,-9.861717224,1.611297727,39.25882352941176,123.8470588235294,19.04705882352941,-7654.494117647058,3056.8,834.3882352941176,11
2024-06-14 18:10:02,-0.003665191587,0.0,0.007330383174,-0.5817909837,-9.890447617,1.687912226,26.0,-14.400000000000006,42.46666666666667,-7653.233333333334,3184.9333333333334,837.8666666666667,11
2024-06-14 18:10:02,-0.003665191587,0.0,0.007330383174,-0.5817909837,-9.890447617,1.687912226,45.53475935828877,-117.0374331550802,60.3903743315508,-7666.561497326204,3169.0,838.6470588235294,11
2024-06-14 18:10:02,0.00244346098,0.003665191587,0.003665191587,-0.5770025849,-9.842563629,1.675941229,60.50802139037433,-110.0855614973262,59.32085561497326,-7662.283422459893,3169.0,832.7647058823529,11
2024-06-14 18:10:02,-0.008552113548,0.004886921961,0.0109955743,-0.6033388376,-9.88805294,1.620874524,18.444444444444443,-99.77777777777776,38.55555555555556,-7649.111111111111,3174.111111111112,833.3333333333334,11
2024-06-14 18:10:02,-0.008552113548,0.004886921961,0.0109955743,-0.6033388376,-9.88805294,1.620874524,57.33333333333333,33.33333333333334,74.0,-7760.333333333333,3154.0,831.6666666666666,11
2024-06-14 18:10:02,0.0,-0.00244346098,0.008552113548,-0.6871358752,-9.832986832,1.663970232,43.65116279069768,104.95348837209302,44.11627906976744,-7670.767441860465,3148.651162790697,841.0697674418604,11
2024-06-14 18:10:02,0.0,-0.00244346098,0.008552113548,-0.6871358752,-9.832986832,1.663970232,57.69230769230769,40.15384615384615,62.30769230769231,-7661.846153846154,3145.769230769231,848.1538461538462,11
2024-06-14 18:10:02,-0.01588249579,0.006108652335,0.0171042271,-0.5913678408,-9.864110947,1.644816518,99.0,-121.0,119.0,-7668.0,3181.0,830.6666666666666,11
2024-06-14 18:10:02,-0.0171042271,0.004886921961,0.02076941915,-0.586579442,-9.880870819,1.659181833,65.18888888888888,-10.74444444444444,18.04444444444445,-7660.355555555556,3179.5333333333333,837.9222222222222,11
2024-06-14 18:10:02,-0.0171042271,0.004886921961,0.02076941915,-0.586579442,-9.880870819,1.659181833,94.16666666666669,-87.16666666666667,-93.83333333333331,-7650.416666666667,2964.0,822.6666666666666,11
2024-06-14 18:10:03,-0.007330383174,0.004886921961,0.0,-0.739808321,-9.895236015,1.726219416,64.26373626373626,56.20879120879121,17.318681318681314,-7656.593406593406,2986.5824175824177,803.2747252747253,11
2024-06-14 18:10:03,-0.0171042271,0.00122173049,0.01221730467,-0.6368576288,-9.840168953,1.647210717,19.477272727272727,118.0,15.227272727272728,-7655.181818181818,2963.6363636363635,826.3636363636364,11
2024-06-14 18:10:03,-0.0171042271,0.00122173049,0.01221730467,-0.6368576288,-9.840168953,1.647210717,51.89772727272727,123.04545454545456,44.09090909090909,-7646.954545454545,3168.9886363636365,839.5227272727273,11
2024-06-14 18:10:03,-0.01221730467,0.00244346098,0.009773843922,-0.6799532771,-9.904812813,1.707065821,67.70491803278688,-3.557377049180332,43.459016393442624,-7649.049180327869,3175.1311475409834,842.0327868852459,11
2024-06-14 18:10:03,-0.01221730467,0.00244346098,0.009773843922,-0.6799532771,-9.904812813,1.707065821,25.41176470588235,-72.0,73.88235294117646,-7668.529411764706,2952.1176470588234,819.7647058823529,11
2024-06-14 18:10:03,-0.01954768784,0.0,0.01343903504,-0.6033388376,-9.91438961,1.704671621,76.0,125.26829268292684,42.30487804878049,-7651.548780487805,2991.2804878048782,808.7317073170732,11
2024-06-14 18:10:03,-0.01588249579,0.006108652335,0.006108652335,-0.624886632,-9.928754807,1.70946002,68.17391304347827,103.8695652173913,100.91304347826087,-7638.565217391304,3174.5652173913045,830.5652173913044,11
2024-06-14 18:10:03,-0.01588249579,0.006108652335,0.006108652335,-0.624886632,-9.928754807,1.70946002,91.41573033707866,-120.98876404494382,108.30337078651684,-7653.011235955056,3096.8426966292136,834.7977528089888,11
2024-06-14 18:10:03,-0.008552113548,-0.003665191587,0.003665191587,-0.6344634295,-9.988609314,1.716642618,61.77777777777778,13.555555555555555,86.55555555555556,-7661.444444444444,2971.555555555556,828.0,11
2024-06-14 18:10:03,-0.00244346098,0.00244346098,-0.00244346098,-0.6607996821,-9.940725327,1.719036818,61.193548387096776,24.435483870967744,66.75268817204301,-7637.60752688172,2969.1720430107525,832.3387096774194,11
2024-06-14 18:10:04,-0.00244346098,0.00244346098,-0.00244346098,-0.6607996821,-9.940725327,1.719036818,54.74193548387097,-90.08064516129032,52.774193548387096,-7628.467741935484,2974.548387096774,821.0483870967741,11
2024-06-14 18:10:04,-0.00122173049,-0.00122173049,0.004886921961,-0.6751648784,-9.840168953,1.721431017,50.025,-123.425,51.1125,-7661.1125,2953.3375,815.1125,11
2024-06-14 18:10:04,-0.00122173049,-0.00122173049,0.004886921961,-0.6751648784,-9.840168953,1.721431017,43.38709677419355,119.78494623655914,45.215053763440864,-7642.4731182795695,2954.870967741936,808.1720430107526,11
2024-06-14 18:10:04,-0.01832595654,-0.00122173049,-0.00244346098,-0.6655880809,-9.828198433,1.711854219,57.4,-76.66666666666667,34.86666666666667,-7658.333333333333,3144.333333333333,820.9333333333333,11
2024-06-14 18:10:04,-0.003665191587,0.008552113548,0.0171042271,-0.653617084,-9.832986832,1.661576033,81.18181818181819,97.1818181818182,100.45454545454544,-7627.045454545455,3198.2272727272725,799.2272727272727,11
2024-06-14 18:10:04,-0.003665191587,0.008552113548,0.0171042271,-0.653617084,-9.832986832,1.661576033,67.74444444444444,-40.95555555555555,39.28888888888889,-7660.7555555555555,3179.688888888889,830.1666666666666,11
2024-06-14 18:10:04,-0.004886921961,0.00122173049,-0.00122173049,-0.6751648784,-9.828198433,1.707065821,123.7816091954023,102.08045977011494,150.26436781609195,-7652.114942528736,2996.229885057471,816.8045977011494,11
2024-06-14 18:10:04,-0.0171042271,0.008552113548,0.00244346098,-0.55784899,-9.895236015,1.668758631,-280.85393258426967,-26.2247191011236,244.7303370786517,-7608.168539325843,3010.808988764045,808.2921348314607,11
2024-06-14 18:10:04,-0.0171042271,0.008552113548,0.00244346098,-0.55784899,-9.895236015,1.668758631,-50.727272727272734,104.0909090909091,68.5909090909091,-7611.545454545455,3255.818181818182,823.7272727272727,11
2024-06-14 18:10:04,-0.05864306539,0.00244346098,0.02199114859,-0.5315127969,-9.813833237,1.501164436,74.63333333333334,79.36666666666666,56.73333333333333,-7587.011111111111,3342.8,846.9888888888889,11
2024-06-14 18:10:05,-0.05864306539,0.00244346098,0.02199114859,-0.5315127969,-9.813833237,1.501164436,60.64835164835165,-91.7912087912088,51.76923076923077,-7568.758241758242,3329.208791208792,852.7802197802198,11
2024-06-14 18:10:05,0.07574728876,-0.008552113548,0.009773843922,-0.6703764796,-9.797073364,1.522712231,42.15909090909091,99.27272727272728,20.59090909090909,-7611.454545454545,3043.7727272727275,838.2045454545455,11
2024-06-14 18:10:05,0.07574728876,-0.008552113548,0.009773843922,-0.6703764796,-9.797073364,1.522712231,47.35955056179776,64.37078651685394,46.58426966292135,-7597.606741573034,3042.224719101124,821.5280898876405,11
2024-06-14 18:10:05,-0.006108652335,0.007330383174,0.00244346098,-0.6607996821,-9.909601212,1.666364431,64.91489361702128,-36.191489361702125,66.65957446808511,-7627.021276595745,3045.36170212766,819.7234042553191,11
2024-06-14 18:10:05,-0.01221730467,-0.00122173049,0.004886921961,-0.6416460276,-9.852140427,1.740584612,45.41666666666666,115.41666666666669,35.75,-7602.166666666667,3037.083333333333,818.1666666666666,11
2024-06-14 18:10:05,-0.01221730467,-0.00122173049,0.004886921961,-0.6416460276,-9.852140427,1.740584612,44.24719101123596,98.561797752809,59.73033707865169,-7608.314606741573,3012.7640449438204,833.9887640449438,11
2024-06-14 18:10:05,-0.009773843922,0.0,-0.00122173049,-0.5698199868,-9.840168953,1.745373011,74.97872340425532,-37.95744680851064,86.27659574468085,-7598.021276595745,3024.7021276595747,847.4893617021277,11
2024-06-14 18:10:05,-0.009773843922,0.0,-0.00122173049,-0.5698199868,-9.840168953,1.745373011,77.14942528735632,-21.114942528735625,90.20689655172414,-7623.6551724137935,3053.425287356322,840.0919540229885,11
2024-06-14 18:10:05,-0.00244346098,-0.0109955743,0.003665191587,-0.6488286853,-9.91438961,1.762132406,72.55172413793103,109.34482758620688,95.3793103448276,-7615.0344827586205,3055.7241379310344,825.7241379310345,11
2024-06-14 18:10:06,-0.008552113548,0.01588249579,0.01588249579,-0.691924274,-9.832986832,1.74776721,54.11578947368421,-109.81052631578947,71.05263157894737,-7613.873684210526,3047.242105263158,800.4421052631579,11
2024-06-14 18:10:06,-0.008552113548,0.01588249579,0.01588249579,-0.691924274,-9.832986832,1.74776721,43.93103448275862,-86.57471264367817,55.81609195402299,-7617.080459770115,3027.8275862068967,819.8045977011494,11
2024-06-14 18:10:06,-0.00122173049,0.004886921961,-0.00244346098,-0.6440402865,-9.816226959,1.769315004,52.04545454545455,-70.04545454545455,52.27272727272727,-7614.545454545455,3032.318181818182,815.7272727272727,11
2024-06-14 18:10:06,-0.01832595654,0.006108652335,0.009773843922,-0.6655880809,-9.91438961,1.74776721,112.24719101123596,88.12359550561797,55.438202247191015,-7603.853932584269,3069.348314606741,806.2584269662922,11
2024-06-14 18:10:06,-0.01832595654,0.006108652335,0.009773843922,-0.6655880809,-9.91438961,1.74776721,15.454545454545457,-118.4431818181818,75.43181818181819,-7624.227272727273,3050.125,821.4431818181819,11
2024-06-14 18:10:06,-0.0293215327,0.004886921961,0.01343903504,-0.6799532771,-9.907206535,1.711854219,62.90476190476191,-14.26190476190476,20.45238095238096,-7605.285714285715,3024.833333333333,824.8333333333334,11
2024-06-14 18:10:06,-0.0293215327,0.004886921961,0.01343903504,-0.6799532771,-9.907206535,1.711854219,41.69662921348315,-118.08988764044943,61.50561797752809,-7616.865168539326,3013.044943820225,816.9101123595506,11
2024-06-14 18:10:06,-0.01832595654,0.004886921961,0.003665191587,-0.6033388376,-9.928754807,1.697489023,51.37078651685393,70.62921348314606,66.21348314606742,-7616.426966292135,3006.2921348314608,816.7078651685393,11
2024-06-14 18:10:06,-0.0109955743,0.007330383174,0.009773843922,-0.7757213712,-9.871294022,1.687912226,71.40449438202248,99.93258426966293,77.59550561797752,-7630.314606741573,3019.0,810.1123595505618,11
2024-06-14 18:10:06,-0.0109955743,0.007330383174,0.009773843922,-0.7757213712,-9.871294022,1.687912226,76.73913043478261,110.02173913043478,79.06521739130434,-7599.217391304348,2997.0652173913045,830.8478260869565,11
2024-06-14 18:10:07,-0.007330383174,0.0,0.01343903504,-0.6153098345,-9.878476143,1.78368032,48.5,-102.25,62.083333333333336,-7633.333333333333,3021.4166666666665,814.3333333333334,11
2024-06-14 18:10:07,-0.0109955743,0.00244346098,0.00244346098,-0.6679822803,-9.96466732,1.745373011,66.25,114.25,45.25,-7628.0,3018.75,805.75,11
2024-06-14 18:10:07,-0.0109955743,0.00244346098,0.00244346098,-0.6679822803,-9.96466732,1.745373011,59.6875,80.44886363636364,43.23295454545455,-7628.079545454545,3016.784090909091,823.9147727272727,11
2024-06-14 18:10:07,-0.006108652335,0.003665191587,0.00244346098,-0.5746083856,-9.789890289,1.788468719,58.34782608695652,101.27173913043478,36.869565217391305,-7619.804347826087,2993.326086956521,833.0760869565217,11
2024-06-14 18:10:07,-0.006108652335,0.003665191587,0.00244346098,-0.5746083856,-9.789890289,1.788468719,71.02380952380952,105.48809523809524,80.98809523809524,-7631.440476190476,3016.035714285714,820.3571428571429,11
2024-06-14 18:10:07,-0.02199114859,-0.006108652335,0.00122173049,-0.6631938815,-9.947908401,1.697489023,53.175824175824175,110.78021978021978,54.91208791208791,-7603.318681318681,3033.6153846153848,815.989010989011,11
2024-06-14 18:10:07,-0.01954768784,-0.00244346098,0.004886921961,-0.6847416759,-9.856928825,1.742978811,42.2183908045977,-77.73563218390805,51.02298850574713,-7638.206896551724,3000.8390804597702,833.5057471264367,11
2024-06-14 18:10:07,-0.01954768784,-0.00244346098,0.004886921961,-0.6847416759,-9.856928825,1.742978811,74.14444444444445,104.38888888888889,86.24444444444444,-7610.122222222222,2996.1444444444446,856.0,11
2024-06-14 18:10:07,-0.02565634064,-0.00122173049,0.009773843922,-0.586579442,-9.921571732,1.750161409,65.65168539325843,80.19101123595506,63.52808988764045,-7628.61797752809,3056.775280898876,845.0,11
2024-06-14 18:10:07,-0.01343903504,-0.00122173049,0.003665191587,-0.6296750307,-9.902418137,1.692700624,23.366666666666667,-111.72222222222224,-279.6555555555556,-7605.733333333334,3018.211111111111,844.5333333333333,11
2024-06-14 18:10:08,-0.01343903504,-0.00122173049,0.003665191587,-0.6296750307,-9.902418137,1.692700624,13.08695652173913,-52.391304347826086,74.17391304347827,-7632.739130434783,2965.782608695652,802.3478260869565,11
2024-06-14 18:10:08,-0.007330383174,0.003665191587,0.009773843922,-0.6177040339,-9.816226959,1.74776721,37.53333333333333,-4.68888888888889,81.37777777777778,-7643.666666666667,2969.0444444444443,801.2444444444444,11
2024-06-14 18:10:08,-0.007330383174,0.003665191587,0.009773843922,-0.6177040339,-9.816226959,1.74776721,89.47727272727273,83.26136363636364,77.52272727272727,-7636.534090909091,3005.3125,803.0511363636364,11
2024-06-14 18:10:08,-0.00122173049,0.003665191587,0.00244346098,-0.6272808313,-9.844957352,1.78368032,82.6590909090909,86.67045454545455,84.3409090909091,-7621.761363636364,3011.5625,805.8920454545455,11
2024-06-14 18:10:08,-0.01588249579,0.003665191587,0.0109955743,-0.6129156351,-9.828198433,1.735796213,68.48813559322033,-104.32881355932204,40.932203389830505,-7702.44406779661,3033.840677966102,822.1254237288135,11
2024-06-14 18:10:08,-0.01588249579,0.003665191587,0.0109955743,-0.6129156351,-9.828198433,1.735796213,64.0813559322034,-97.88813559322034,44.32203389830509,-7810.240677966101,3031.806779661017,825.8542372881356,11
2024-06-14 18:10:08,-0.006108652335,0.00122173049,0.004886921961,-0.5770025849,-9.947908401,1.723825216,59.67457627118644,-91.44745762711864,47.71186440677966,-7918.037288135593,3029.772881355932,829.5830508474576,11
2024-06-14 18:10:08,-0.006108652335,0.006108652335,0.0232128799,-0.55784899,-9.885659218,1.740584612,3.344827586206897,36.58620689655172,-292.55172413793105,-7953.241379310345,3040.4137931034484,842.2758620689655,11
2024-06-14 18:10:08,-0.01466076635,-0.007330383174,-0.01221730467,-0.538695395,-9.928754807,1.752555609,-373.50485436893206,9.135922330097088,-330.71844660194176,-7873.067961165048,3095.8252427184466,845.495145631068,11
2024-06-14 18:10:09,-0.01466076635,-0.007330383174,-0.01221730467,-0.538695395,-9.928754807,1.752555609,107.21212121212122,-93.63636363636364,36.81818181818182,-7653.818181818182,3094.181818181818,676.4848484848485,11
2024-06-14 18:10:09,0.004886921961,0.008552113548,0.01221730467,-0.5722141862,-9.957485199,1.764526606,32.241379310344826,21.321839080459768,117.64367816091954,-7964.275862068966,2982.310344827586,664.9885057471264,11
2024-06-14 18:10:09,-0.004886921961,-0.00122173049,-0.009773843922,-0.6272808313,-9.897629738,1.788468719,-89.82558139534883,74.79069767441861,198.6046511627907,-7628.581395348837,3034.593023255814,678.6162790697674,11
2024-06-14 18:10:09,-0.004886921961,-0.00122173049,-0.009773843922,-0.6272808313,-9.897629738,1.788468719,-28.293478260869563,-118.03260869565216,189.2934782608696,-7634.29347826087,3030.293478260869,664.3695652173913,11
2024-06-14 18:10:09,-0.02199114859,0.01221730467,-0.01832595654,-0.5650315881,-9.885659218,1.762132406,-222.3152173913044,-122.92391304347828,33.315217391304344,-7628.315217391304,3024.3152173913045,669.804347826087,11
2024-06-14 18:10:09,0.00122173049,0.02443460934,0.01954768784,-0.5506663918,-9.842563629,1.733402014,72.1219512195122,232.46341463414632,-135.3170731707317,-7608.5609756097565,3132.243902439024,660.0243902439024,11
2024-06-14 18:10:09,0.00122173049,0.02443460934,0.01954768784,-0.5506663918,-9.842563629,1.733402014,-10.5,329.5,-53.5,-7798.0,3012.5,795.5,11
2024-06-14 18:10:09,0.003665191587,0.0109955743,0.02687807009,-0.5219359994,-10.01015759,1.800439715,22.06896551724138,-70.51724137931035,87.79310344827586,-8007.252873563219,3022.229885057471,536.9195402298851,11
2024-06-14 18:10:09,0.003665191587,0.0109955743,0.02687807009,-0.5219359994,-10.01015759,1.800439715,-84.36559139784947,-294.258064516129,63.784946236559136,-7618.602150537635,3001.462365591398,867.1612903225806,11
2024-06-14 18:10:09,-0.05253441259,0.03665191308,-0.00122173049,-0.6368576288,-9.852140427,1.383848548,3.8064516129032313,-105.5483870967742,62.70967741935484,-7611.612903225807,2998.774193548388,742.9677419354839,11
2024-06-14 18:10:10,0.009773843922,-0.009773843922,0.07330382615,-0.6033388376,-9.902418137,1.59693253,-80.4625,-18.8625,83.55,-7585.5375,3014.225,672.8125,11
2024-06-14 18:10:10,0.009773843922,-0.009773843922,0.07330382615,-0.6033388376,-9.902418137,1.59693253,-293.64359861591697,-64.67820069204153,64.73010380622837,-7718.2871972318335,2982.4740484429067,674.4913494809689,11
2024-06-14 18:10:10,0.0354301855,0.004886921961,0.02443460934,-0.55784899,-9.804255486,1.680729628,-290.8754325259516,-66.06228373702422,72.34256055363322,-7812.750865051903,2979.359861591696,673.4532871972318,11
2024-06-14 18:10:10,-0.0232128799,0.00244346098,-0.004886921961,-0.5841852427,-9.91438961,1.738190413,-288.10726643598616,-67.44636678200692,79.95501730103805,-7907.214532871973,2976.2456747404844,672.4152249134949,11
2024-06-14 18:10:10,-0.0232128799,0.00244346098,-0.004886921961,-0.5841852427,-9.91438961,1.738190413,114.70149253731344,65.76119402985074,72.44776119402985,-7642.985074626866,3152.2985074626868,685.2537313432836,11
2024-06-14 18:10:10,-0.01832595654,0.01221730467,0.0171042271,-0.55784899,-9.895236015,1.680729628,47.73863636363636,-84.36363636363636,39.375,-7608.056818181818,3325.8636363636365,722.2613636363636,11
2024-06-14 18:10:10,-0.01832595654,0.01221730467,0.0171042271,-0.55784899,-9.895236015,1.680729628,9.060975609756095,14.402439024390244,-289.0,-7658.914634146341,2974.3658536585367,711.2682926829268,11
2024-06-14 18:10:10,-0.00244346098,-0.006108652335,-0.01588249579,-0.5770025849,-9.797073364,1.673547029,-66.25,264.25,-286.5,-7740.5,3034.0,691.5,11
2024-06-14 18:10:10,0.0293215327,0.007330383174,0.00122173049,-0.5746083856,-9.780313492,1.764526606,-283.1764705882353,55.0,14.411764705882351,-7664.023529411765,3168.1294117647058,668.8705882352941,11
2024-06-14 18:10:10,0.0293215327,0.007330383174,0.00122173049,-0.5746083856,-9.780313492,1.764526606,26.482352941176472,-104.7764705882353,60.35294117647059,-7629.952941176471,3177.1294117647058,682.0941176470589,11
2024-06-14 18:10:11,-0.007330383174,0.04886921868,0.006108652335,-0.383072257,-10.0556469,1.774103403,100.26966292134831,-46.39325842696629,-18.033707865168537,-7624.752808988764,3188.7078651685392,673.1460674157304,11
2024-06-14 18:10:11,-0.03298672289,-0.008552113548,-0.1185078546,-0.5554547906,-9.698910713,1.915361404,38.46511627906977,-110.41860465116278,24.627906976744185,-7763.953488372093,2990.93023255814,648.3488372093024,11
2024-06-14 18:10:11,-0.03298672289,-0.008552113548,-0.1185078546,-0.5554547906,-9.698910713,1.915361404,-305.39772727272725,72.77272727272727,56.86363636363636,-7642.636363636364,2952.7613636363635,667.2613636363636,11
2024-06-14 18:10:11,-0.00244346098,0.03909537569,0.02565634064,-0.4884171486,-9.442731857,1.742978811,51.58426966292135,81.52808988764045,50.10112359550562,-7641.157303370786,2983.505617977528,684.9101123595506,11
2024-06-14 18:10:11,0.05742133409,-0.008552113548,0.007330383174,-0.4429273009,-9.962273598,1.580173135,2.7954545454545467,41.27272727272727,76.52272727272727,-7645.409090909091,2959.4772727272725,711.4318181818181,11
2024-06-14 18:10:11,0.02809980139,-0.003665191587,0.007330383174,-0.4118026793,-9.91438961,1.716642618,-297.5842696629214,-121.0505617977528,56.47752808988764,-7620.960674157303,3185.94382022472,714.1348314606741,11
2024-06-14 18:10:11,0.02809980139,-0.003665191587,0.007330383174,-0.4118026793,-9.91438961,1.716642618,-279.60674157303373,-100.26404494382022,37.938202247191015,-7626.016853932584,3164.5955056179773,725.370786516854,11
2024-06-14 18:10:11,-0.02199114859,-0.00122173049,-0.003665191587,-0.5027823448,-9.938331604,1.754949808,-30.365168539325843,-61.10112359550562,62.831460674157306,-7678.820224719101,3001.73595505618,681.0,11
2024-06-14 18:10:11,0.00122173049,0.004886921961,0.01221730467,-0.3734954596,-9.900024414,1.829170108,-2.8370786516853954,55.75280898876406,90.92134831460676,-7675.449438202248,3012.4101123595506,681.0,11
2024-06-14 18:10:12,0.00122173049,0.004886921961,0.01221730467,-0.3734954596,-9.900024414,1.829170108,-54.423529411764704,-28.42352941176472,33.61176470588235,-7638.835294117647,3145.823529411765,722.7529411764706,11
2024-06-14 18:10:12,0.003665191587,0.01221730467,0.007330383174,-0.4644751251,-9.880870819,1.793257117,-84.32558139534883,-66.13953488372093,23.55813953488372,-7652.162790697675,3011.93023255814,695.1162790697674,11
2024-06-14 18:10:12,0.003665191587,0.01221730467,0.007330383174,-0.4644751251,-9.880870819,1.793257117,-338.8,94.7,64.7,-7693.2,2970.4,667.1,11
2024-06-14 18:10:12,-0.02076941915,0.009773843922,0.0293215327,-0.3950432837,-9.895236015,1.793257117,98.31907894736842,-123.90460526315788,-270.04276315789474,-7641.032894736842,3111.032894736842,722.9572368421053,11
2024-06-14 18:10:12,-0.02199114859,-0.01954768784,-0.02809980139,-0.3998316824,-10.01733971,1.745373011,30.22697368421052,-114.36513157894736,-174.31907894736844,-7644.3223684210525,3114.3223684210525,718.6809210526316,11
2024-06-14 18:10:12,-0.02199114859,-0.01954768784,-0.02809980139,-0.3998316824,-10.01733971,1.745373011,-37.86513157894737,-104.82565789473684,-78.59539473684211,-7647.611842105263,3117.611842105264,714.4046052631579,11
2024-06-14 18:10:12,-0.01832595654,-0.01343903504,0.00244346098,-0.4429273009,-9.923966408,1.762132406,-105.95723684210526,-95.28618421052632,17.12828947368422,-7650.901315789473,3120.9013157894738,710.1282894736842,11
2024-06-14 18:10:12,-0.0171042271,0.01221730467,0.04031710699,-0.4955997467,-9.785101891,1.798045516,22.90000000000001,28.03333333333333,74.5,-7969.8,2960.7,685.0666666666667,11
2024-06-14 18:10:12,-0.0171042271,0.01221730467,0.04031710699,-0.4955997467,-9.785101891,1.798045516,57.72727272727273,-90.02597402597402,3.623376623376629,-7649.558441558442,3187.5454545454545,717.1038961038961,11
2024-06-14 18:10:12,0.004886921961,0.004886921961,0.01343903504,-0.4525041282,-9.821015358,1.78368032,36.367816091954026,-94.7471264367816,71.02298850574712,-7867.310344827586,3184.862068965517,687.1724137931035,11
2024-06-14 18:10:13,0.004886921961,0.004886921961,0.01343903504,-0.4525041282,-9.821015358,1.78368032,-222.63636363636363,76.5909090909091,49.79545454545455,-7718.977272727273,3139.5,697.1136363636364,11
2024-06-14 18:10:13,-0.02809980139,0.006108652335,0.003665191587,-0.4740519226,-9.923966408,1.759738207,-14.246575342465746,115.91780821917808,19.21917808219178,-7631.575342465753,3131.31506849315,727.1232876712329,11
2024-06-14 18:10:13,-0.01588249579,0.008552113548,0.01221730467,-0.3926490843,-9.87608242,1.759738207,86.18181818181819,-109.9659090909091,64.86363636363636,-7660.045454545455,3167.9204545454545,699.9772727272727,11
2024-06-14 18:10:13,-0.01588249579,0.008552113548,0.01221730467,-0.3926490843,-9.87608242,1.759738207,56.58695652173913,-93.02173913043478,71.56521739130434,-7907.152173913043,3150.554347826087,714.1630434782609,11
2024-06-14 18:10:13,-0.007330383174,0.00244346098,0.003665191587,-0.4548983276,-9.844957352,1.774103403,87.0,102.04651162790698,52.25581395348837,-7667.558139534884,3169.7441860465115,708.7906976744187,11
2024-06-14 18:10:13,-0.0109955743,-0.00244346098,0.003665191587,-0.4620809257,-9.921571732,1.82198751,46.72340425531915,125.32978723404256,76.58510638297872,-7647.648936170212,3173.404255319149,710.9787234042553,11
